image_face,image_scram,avatar,emo,emotion,sex,trigeeg,dac,trial_no,NMES,stimtime,baseline,iti,face,scr_face,resp_time,index,count_NMES,count_avatar,count_emotion,dac1,dac2,dac1_output,dac2_output,trigs_out,nmes,practice_trials.thisRepN,practice_trials.thisTrialN,practice_trials.thisN,practice_trials.thisIndex,real_trials.thisRepN,real_trials.thisTrialN,real_trials.thisN,real_trials.thisIndex,trials.thisRepN,trials.thisTrialN,trials.thisN,trials.thisIndex,position,Welcome.started,Welcome.stopped,Welcome_resp.keys,Welcome_resp.rt,text_2.started,text_2.stopped,form_2.index,form_2.itemText,form_2.type,form_2.response,form_2.rt,key_resp_4.keys,key_resp_4.rt,key_resp_4.started,key_resp_4.stopped,instructions.started,instructions.stopped,end_instr.keys,end_instr.rt,instructions_2.started,instructions_2.stopped,end_instr_2.keys,end_instr_2.rt,end_instr_2.started,end_instr_2.stopped,instruct_keypress.started,instruct_keypress.stopped,end_instruct_keypress.keys,end_instruct_keypress.rt,start_practice.started,start_practice.stopped,start_practice_resp.keys,start_practice_resp.rt,prac_baseline.started,prac_baseline.stopped,prac_iti.started,prac_iti.stopped,prac_stimulus.started,prac_stimulus.stopped,prac_scram_stim.started,prac_scram_stim.stopped,prac_stimulus_resp.started,prac_stimulus_resp.stopped,prac_resp.keys,prac_resp.rt,prac_resp.started,prac_resp.stopped,transition_to_real.started,transition_to_real.stopped,end_transition_to_real.keys,end_transition_to_real.rt,fixation_cross.started,fixation_cross.stopped,tr_iti.started,tr_iti.stopped,stimulus.started,stimulus.stopped,scram_stim.started,scram_stim.stopped,response_txt.started,response_txt.stopped,response.keys,response.rt,response.started,response.stopped,participant_Resp,grouping,corAnswer,break_msg.started,break_msg.stopped,end_break.keys,end_break.started,end_break.stopped,end_break.rt,text.started,text.stopped,key_resp_3.keys,key_resp_3.rt,key_resp_3.started,key_resp_3.stopped,fix_cross_comf.started,fix_cross_comf.stopped,stimulation_comf.started,stimulation_comf.stopped,rate_instr.started,rate_instr.stopped,comfort_rating.response,comfort_rating.rt,comfort_rating.started,comfort_rating.stopped,resp_form.keys,resp_form.rt,resp_form.started,resp_form.stopped,survey_instructions.started,survey_instructions.stopped,key_resp_2.keys,key_resp_2.rt,key_resp_2.started,key_resp_2.stopped,form.index,form.itemText,form.type,form.response,form.rt,key_resp.keys,key_resp.rt,key_resp.started,key_resp.stopped,text_3.started,text_3.stopped,rate_smile.response,rate_smile.rt,rate_smile.started,rate_smile.stopped,key_resp_5.keys,key_resp_5.rt,key_resp_5.started,key_resp_5.stopped,end_msg.started,end_msg.stopped,end_resp.keys,end_resp.rt,end_resp.started,end_resp.stopped,participant,session,gender,age,LEFT,RIGHT,date,expName,psychopyVersion,frameRate,
,,,,,,,,,,,,,,,,,,,,,,,,,,,,,,,,,,,,,,S-H,29.559835899999598,None,num_add,126.54644829999961,,,,,,,,,,,,,,,,,,,,,,,,,,,,,,,,,,,,,,,,,,,,,,,,,,,,,,,,,,,,,,,,,,,,,,,,,,,,,,,,,,,,,,,,,,,,,,,,,,,,,,,,,,,,,,,,,,,,,,,,,,10,001,male,37,600,450,2022_Sep_02_1353,Experiment,2021.1.4,359.89865253629745,
,,,,,,,,,,,,,,,,,,,,,,,,,,,,,,,,,,,,,,,,,,,156.12617580000006,158.18386699999974,1,"This scale consistes of a number of words that describe different feelings and emotion. Read each item and then list the number from the scale below each word. Indicate (by clicking) to what extend you feel this way RIGHT NOW, that is, AT THE PRESENT MOMENT.",description,,,,,,,,,,,,,,,,,,,,,,,,,,,,,,,,,,,,,,,,,,,,,,,,,,,,,,,,,,,,,,,,,,,,,,,,,,,,,,,,,,,,,,,,,,,,,,,,,,,,,,,,,,,,,,,,,,,,,10,001,male,37,600,450,2022_Sep_02_1353,Experiment,2021.1.4,359.89865253629745,
,,,,,,,,,,,,,,,,,,,,,,,,,,,,,,,,,,,,,,,,,,,,,2,Interested,rating,4.0,14.866330099999686,,,,,,,,,,,,,,,,,,,,,,,,,,,,,,,,,,,,,,,,,,,,,,,,,,,,,,,,,,,,,,,,,,,,,,,,,,,,,,,,,,,,,,,,,,,,,,,,,,,,,,,,,,,,,,,,,,,10,001,male,37,600,450,2022_Sep_02_1353,Experiment,2021.1.4,359.89865253629745,
,,,,,,,,,,,,,,,,,,,,,,,,,,,,,,,,,,,,,,,,,,,,,3,Distressed,rating,3.0,21.579049199999645,,,,,,,,,,,,,,,,,,,,,,,,,,,,,,,,,,,,,,,,,,,,,,,,,,,,,,,,,,,,,,,,,,,,,,,,,,,,,,,,,,,,,,,,,,,,,,,,,,,,,,,,,,,,,,,,,,,10,001,male,37,600,450,2022_Sep_02_1353,Experiment,2021.1.4,359.89865253629745,
,,,,,,,,,,,,,,,,,,,,,,,,,,,,,,,,,,,,,,,,,,,,,4,Excited,rating,2.0,27.580714499999885,,,,,,,,,,,,,,,,,,,,,,,,,,,,,,,,,,,,,,,,,,,,,,,,,,,,,,,,,,,,,,,,,,,,,,,,,,,,,,,,,,,,,,,,,,,,,,,,,,,,,,,,,,,,,,,,,,,10,001,male,37,600,450,2022_Sep_02_1353,Experiment,2021.1.4,359.89865253629745,
,,,,,,,,,,,,,,,,,,,,,,,,,,,,,,,,,,,,,,,,,,,,,5,Upset,rating,2.0,34.11732209999991,,,,,,,,,,,,,,,,,,,,,,,,,,,,,,,,,,,,,,,,,,,,,,,,,,,,,,,,,,,,,,,,,,,,,,,,,,,,,,,,,,,,,,,,,,,,,,,,,,,,,,,,,,,,,,,,,,,10,001,male,37,600,450,2022_Sep_02_1353,Experiment,2021.1.4,359.89865253629745,
,,,,,,,,,,,,,,,,,,,,,,,,,,,,,,,,,,,,,,,,,,,,,6,Strong,rating,3.0,37.41625590000058,,,,,,,,,,,,,,,,,,,,,,,,,,,,,,,,,,,,,,,,,,,,,,,,,,,,,,,,,,,,,,,,,,,,,,,,,,,,,,,,,,,,,,,,,,,,,,,,,,,,,,,,,,,,,,,,,,,10,001,male,37,600,450,2022_Sep_02_1353,Experiment,2021.1.4,359.89865253629745,
,,,,,,,,,,,,,,,,,,,,,,,,,,,,,,,,,,,,,,,,,,,,,7,Guilty,rating,1.0,12.091957999999977,,,,,,,,,,,,,,,,,,,,,,,,,,,,,,,,,,,,,,,,,,,,,,,,,,,,,,,,,,,,,,,,,,,,,,,,,,,,,,,,,,,,,,,,,,,,,,,,,,,,,,,,,,,,,,,,,,,10,001,male,37,600,450,2022_Sep_02_1353,Experiment,2021.1.4,359.89865253629745,
,,,,,,,,,,,,,,,,,,,,,,,,,,,,,,,,,,,,,,,,,,,,,8,Scared,rating,1.0,13.923383599999397,,,,,,,,,,,,,,,,,,,,,,,,,,,,,,,,,,,,,,,,,,,,,,,,,,,,,,,,,,,,,,,,,,,,,,,,,,,,,,,,,,,,,,,,,,,,,,,,,,,,,,,,,,,,,,,,,,,10,001,male,37,600,450,2022_Sep_02_1353,Experiment,2021.1.4,359.89865253629745,
,,,,,,,,,,,,,,,,,,,,,,,,,,,,,,,,,,,,,,,,,,,,,9,Hostile,rating,1.0,10.342025299999477,,,,,,,,,,,,,,,,,,,,,,,,,,,,,,,,,,,,,,,,,,,,,,,,,,,,,,,,,,,,,,,,,,,,,,,,,,,,,,,,,,,,,,,,,,,,,,,,,,,,,,,,,,,,,,,,,,,10,001,male,37,600,450,2022_Sep_02_1353,Experiment,2021.1.4,359.89865253629745,
,,,,,,,,,,,,,,,,,,,,,,,,,,,,,,,,,,,,,,,,,,,,,10,Enthusiastic,rating,3.0,10.634707700000035,,,,,,,,,,,,,,,,,,,,,,,,,,,,,,,,,,,,,,,,,,,,,,,,,,,,,,,,,,,,,,,,,,,,,,,,,,,,,,,,,,,,,,,,,,,,,,,,,,,,,,,,,,,,,,,,,,,10,001,male,37,600,450,2022_Sep_02_1353,Experiment,2021.1.4,359.89865253629745,
,,,,,,,,,,,,,,,,,,,,,,,,,,,,,,,,,,,,,,,,,,,,,11,Proud,rating,3.0,11.541616100000283,,,,,,,,,,,,,,,,,,,,,,,,,,,,,,,,,,,,,,,,,,,,,,,,,,,,,,,,,,,,,,,,,,,,,,,,,,,,,,,,,,,,,,,,,,,,,,,,,,,,,,,,,,,,,,,,,,,10,001,male,37,600,450,2022_Sep_02_1353,Experiment,2021.1.4,359.89865253629745,
,,,,,,,,,,,,,,,,,,,,,,,,,,,,,,,,,,,,,,,,,,,,,12,Irritable,rating,1.0,11.596148199999334,,,,,,,,,,,,,,,,,,,,,,,,,,,,,,,,,,,,,,,,,,,,,,,,,,,,,,,,,,,,,,,,,,,,,,,,,,,,,,,,,,,,,,,,,,,,,,,,,,,,,,,,,,,,,,,,,,,10,001,male,37,600,450,2022_Sep_02_1353,Experiment,2021.1.4,359.89865253629745,
,,,,,,,,,,,,,,,,,,,,,,,,,,,,,,,,,,,,,,,,,,,,,13,Alert,rating,4.0,12.421505299999808,,,,,,,,,,,,,,,,,,,,,,,,,,,,,,,,,,,,,,,,,,,,,,,,,,,,,,,,,,,,,,,,,,,,,,,,,,,,,,,,,,,,,,,,,,,,,,,,,,,,,,,,,,,,,,,,,,,10,001,male,37,600,450,2022_Sep_02_1353,Experiment,2021.1.4,359.89865253629745,
,,,,,,,,,,,,,,,,,,,,,,,,,,,,,,,,,,,,,,,,,,,,,14,Ashamed,rating,2.0,13.788441300000159,,,,,,,,,,,,,,,,,,,,,,,,,,,,,,,,,,,,,,,,,,,,,,,,,,,,,,,,,,,,,,,,,,,,,,,,,,,,,,,,,,,,,,,,,,,,,,,,,,,,,,,,,,,,,,,,,,,10,001,male,37,600,450,2022_Sep_02_1353,Experiment,2021.1.4,359.89865253629745,
,,,,,,,,,,,,,,,,,,,,,,,,,,,,,,,,,,,,,,,,,,,,,15,Inspired,rating,3.0,13.317594199999803,,,,,,,,,,,,,,,,,,,,,,,,,,,,,,,,,,,,,,,,,,,,,,,,,,,,,,,,,,,,,,,,,,,,,,,,,,,,,,,,,,,,,,,,,,,,,,,,,,,,,,,,,,,,,,,,,,,10,001,male,37,600,450,2022_Sep_02_1353,Experiment,2021.1.4,359.89865253629745,
,,,,,,,,,,,,,,,,,,,,,,,,,,,,,,,,,,,,,,,,,,,,,16,Nervous,rating,3.0,15.83712480000031,,,,,,,,,,,,,,,,,,,,,,,,,,,,,,,,,,,,,,,,,,,,,,,,,,,,,,,,,,,,,,,,,,,,,,,,,,,,,,,,,,,,,,,,,,,,,,,,,,,,,,,,,,,,,,,,,,,10,001,male,37,600,450,2022_Sep_02_1353,Experiment,2021.1.4,359.89865253629745,
,,,,,,,,,,,,,,,,,,,,,,,,,,,,,,,,,,,,,,,,,,,,,17,Determined,rating,3.0,16.06133669999963,,,,,,,,,,,,,,,,,,,,,,,,,,,,,,,,,,,,,,,,,,,,,,,,,,,,,,,,,,,,,,,,,,,,,,,,,,,,,,,,,,,,,,,,,,,,,,,,,,,,,,,,,,,,,,,,,,,10,001,male,37,600,450,2022_Sep_02_1353,Experiment,2021.1.4,359.89865253629745,
,,,,,,,,,,,,,,,,,,,,,,,,,,,,,,,,,,,,,,,,,,,,,18,Attentive,rating,5.0,14.504187300000012,,,,,,,,,,,,,,,,,,,,,,,,,,,,,,,,,,,,,,,,,,,,,,,,,,,,,,,,,,,,,,,,,,,,,,,,,,,,,,,,,,,,,,,,,,,,,,,,,,,,,,,,,,,,,,,,,,,10,001,male,37,600,450,2022_Sep_02_1353,Experiment,2021.1.4,359.89865253629745,
,,,,,,,,,,,,,,,,,,,,,,,,,,,,,,,,,,,,,,,,,,,,,19,Jittery,rating,None,None,,,,,,,,,,,,,,,,,,,,,,,,,,,,,,,,,,,,,,,,,,,,,,,,,,,,,,,,,,,,,,,,,,,,,,,,,,,,,,,,,,,,,,,,,,,,,,,,,,,,,,,,,,,,,,,,,,,10,001,male,37,600,450,2022_Sep_02_1353,Experiment,2021.1.4,359.89865253629745,
,,,,,,,,,,,,,,,,,,,,,,,,,,,,,,,,,,,,,,,,,,,,,20,Active,rating,4.0,12.088490099999945,,,,,,,,,,,,,,,,,,,,,,,,,,,,,,,,,,,,,,,,,,,,,,,,,,,,,,,,,,,,,,,,,,,,,,,,,,,,,,,,,,,,,,,,,,,,,,,,,,,,,,,,,,,,,,,,,,,10,001,male,37,600,450,2022_Sep_02_1353,Experiment,2021.1.4,359.89865253629745,
,,,,,,,,,,,,,,,,,,,,,,,,,,,,,,,,,,,,,,,,,,,,,21,Afraid,rating,1.0,11.41419229999974,,,,,,,,,,,,,,,,,,,,,,,,,,,,,,,,,,,,,,,,,,,,,,,,,,,,,,,,,,,,,,,,,,,,,,,,,,,,,,,,,,,,,,,,,,,,,,,,,,,,,,,,,,,,,,,,,,,10,001,male,37,600,450,2022_Sep_02_1353,Experiment,2021.1.4,359.89865253629745,
,,,,,,,,,,,,,,,,,,,,,,,,,,,,,,,,,,,,,,,,,,,,,22,Press the + button to submit your answers,description,,,,,,,,,,,,,,,,,,,,,,,,,,,,,,,,,,,,,,,,,,,,,,,,,,,,,,,,,,,,,,,,,,,,,,,,,,,,,,,,,,,,,,,,,,,,,,,,,,,,,,,,,,,,,,,,,,,,,10,001,male,37,600,450,2022_Sep_02_1353,Experiment,2021.1.4,359.89865253629745,
,,,,,,,,,,,,,,,,,,,,,,,,,,,,,,,,,,,,,,,,,,,,,,,,,,num_add,80.5793805000003,166.15085480000016,None,,,,,,,,,,,,,,,,,,,,,,,,,,,,,,,,,,,,,,,,,,,,,,,,,,,,,,,,,,,,,,,,,,,,,,,,,,,,,,,,,,,,,,,,,,,,,,,,,,,,,,,,,,,,,,,10,001,male,37,600,450,2022_Sep_02_1353,Experiment,2021.1.4,359.89865253629745,
,,,,,,,,,,,,,,,,,,,,,,,,,,,,,,,,,,,,,,,,,,,,,,,,,,,,,,246.75663859999986,None,num_add,29.381747700000233,,,,,,,,,,,,,,,,,,,,,,,,,,,,,,,,,,,,,,,,,,,,,,,,,,,,,,,,,,,,,,,,,,,,,,,,,,,,,,,,,,,,,,,,,,,,,,,,,,,,,,,,,,,10,001,male,37,600,450,2022_Sep_02_1353,Experiment,2021.1.4,359.89865253629745,
,,,,,,,,,,,,,,,,,,,,,,,,,,,,,,,,,,,,,,,,,,,,,,,,,,,,,,,,,,276.1504028999998,None,num_add,11.396055399999568,276.1504028999998,None,,,,,,,,,,,,,,,,,,,,,,,,,,,,,,,,,,,,,,,,,,,,,,,,,,,,,,,,,,,,,,,,,,,,,,,,,,,,,,,,,,,,,,,,,,,,,,,,,,,,,10,001,male,37,600,450,2022_Sep_02_1353,Experiment,2021.1.4,359.89865253629745,
,,,,,,,,,,,,,,,,,,,,,,,,,,,,,,,,,,,,,,,,,,,,,,,,,,,,,,,,,,,,,,,,287.5691031999995,None,num_add,18.897298099999716,,,,,,,,,,,,,,,,,,,,,,,,,,,,,,,,,,,,,,,,,,,,,,,,,,,,,,,,,,,,,,,,,,,,,,,,,,,,,,,,,,,,,,,,,,,,,,,,,10,001,male,37,600,450,2022_Sep_02_1353,Experiment,2021.1.4,359.89865253629745,
,,,,,,,,,,,,,,,,,,,,,,,,,,,,,,,,,,,,,,,,,,,,,,,,,,,,,,,,,,,,,,,,,,,,306.4744174999996,None,space,37.047586099999535,,,,,,,,,,,,,,,,,,,,,,,,,,,,,,,,,,,,,,,,,,,,,,,,,,,,,,,,,,,,,,,,,,,,,,,,,,,,,,,,,,,,,,,,,,,,,10,001,male,37,600,450,2022_Sep_02_1353,Experiment,2021.1.4,359.89865253629745,
images\S22_M_S_01.png,images\S22_M_S_01_scrambled.png,22,Sad,0.1,M,0,0,practice,on,2,0.5,0.75,0.5,0.867,3,,,,,,,,,,,0,0,0,5,,,,,,,,,,,,,,,,,,,,,,,,,,,,,,,,,,,,,,,,,,,343.6935738000002,344.1933775999996,344.1933775999996,344.94592079999984,344.94592079999984,345.45145969999976,345.45145969999976,346.32330569999976,346.32330569999976,None,num_6,2.6709059000004345,346.32330569999976,None,,,,,,,,,,,,,,,,,,,,,,,,,,,,,,,,,,,,,,,,,,,,,,,,,,,,,,,,,,,,,,,,,,,,,,,,,,,,,,,10,001,male,37,600,450,2022_Sep_02_1353,Experiment,2021.1.4,359.89865253629745,
images\S22_M_S_02.png,images\S22_M_S_02_scrambled.png,22,Sad,0.2,M,0,0,practice,off,1,0.5,0.75,0.5,0.751,3,,,,,,,,,,,0,1,1,3,,,,,,,,,,,,,,,,,,,,,,,,,,,,,,,,,,,,,,,,,,,349.0835454999997,349.58897369999977,349.58897369999977,350.34159739999996,350.34159739999996,350.84412859999975,350.84412859999975,351.6023018999995,351.6023018999995,None,num_6,1.9040635999999722,351.6023018999995,None,,,,,,,,,,,,,,,,,,,,,,,,,,,,,,,,,,,,,,,,,,,,,,,,,,,,,,,,,,,,,,,,,,,,,,,,,,,,,,,10,001,male,37,600,450,2022_Sep_02_1353,Experiment,2021.1.4,359.89865253629745,
images\S21_F_H_02.png,images\S21_F_H_02_scrambled.png,21,Happy,-0.2,F,0,0,practice,off,1,0.5,0.75,0.5,0.91,3,,,,,,,,,,,0,2,2,1,,,,,,,,,,,,,,,,,,,,,,,,,,,,,,,,,,,,,,,,,,,353.6015957999998,354.1070871000002,354.1070871000002,354.85954109999966,354.85954109999966,355.3622813000002,355.3622813000002,356.2758130000002,356.2758130000002,None,num_6,0.9105157000003601,356.2758130000002,None,,,,,,,,,,,,,,,,,,,,,,,,,,,,,,,,,,,,,,,,,,,,,,,,,,,,,,,,,,,,,,,,,,,,,,,,,,,,,,,10,001,male,37,600,450,2022_Sep_02_1353,Experiment,2021.1.4,359.89865253629745,
images\S22_M_H_02.png,images\S22_M_H_02_scrambled.png,22,Happy,-0.2,M,0,0,practice,off,1,0.5,0.75,0.5,0.883,3,,,,,,,,,,,0,3,3,2,,,,,,,,,,,,,,,,,,,,,,,,,,,,,,,,,,,,,,,,,,,357.30601169999954,357.8086682000003,357.8086682000003,358.56121209999947,358.56121209999947,359.0638399999998,359.0638399999998,359.94966380000005,359.94966380000005,None,num_6,1.5327573000004122,359.94966380000005,None,,,,,,,,,,,,,,,,,,,,,,,,,,,,,,,,,,,,,,,,,,,,,,,,,,,,,,,,,,,,,,,,,,,,,,,,,,,,,,,10,001,male,37,600,450,2022_Sep_02_1353,Experiment,2021.1.4,359.89865253629745,
images\S22_M_S_03.png,images\S22_M_S_03_scrambled.png,22,Sad,0.3,M,0,0,practice,on,2,0.5,0.75,0.5,0.87,3,,,,,,,,,,,0,4,4,4,,,,,,,,,,,,,,,,,,,,,,,,,,,,,,,,,,,,,,,,,,,361.5769301,362.0795478,362.0795478,362.83211479999954,362.83211479999954,363.33472879999954,363.33472879999954,364.20667109999977,364.20667109999977,None,num_6,2.0755441999999675,364.20667109999977,None,,,,,,,,,,,,,,,,,,,,,,,,,,,,,,,,,,,,,,,,,,,,,,,,,,,,,,,,,,,,,,,,,,,,,,,,,,,,,,,10,001,male,37,600,450,2022_Sep_02_1353,Experiment,2021.1.4,359.89865253629745,
images\S22_M_S_02.png,images\S22_M_S_02_scrambled.png,22,Sad,0.2,M,0,0,practice,on,2,0.5,0.75,0.5,0.783,3,,,,,,,,,,,0,5,5,6,,,,,,,,,,,,,,,,,,,,,,,,,,,,,,,,,,,,,,,,,,,366.33658079999987,366.8392149000001,366.8392149000001,367.59188259999974,367.59188259999974,368.09720259999995,368.09720259999995,368.8830547999996,368.8830547999996,None,num_6,2.1833041999998386,368.8830547999996,None,,,,,,,,,,,,,,,,,,,,,,,,,,,,,,,,,,,,,,,,,,,,,,,,,,,,,,,,,,,,,,,,,,,,,,,,,,,,,,,10,001,male,37,600,450,2022_Sep_02_1353,Experiment,2021.1.4,359.89865253629745,
images\S21_F_H_01.png,images\S21_F_H_01_scrambled.png,21,Happy,-0.1,F,0,0,practice,off,1,0.5,0.75,0.5,0.853,3,,,,,,,,,,,0,6,6,0,,,,,,,,,,,,,,,,,,,,,,,,,,,,,,,,,,,,,,,,,,,371.16009639999993,371.65994649999993,371.65994649999993,372.4124923999998,372.4124923999998,372.91791980000016,372.91791980000016,373.7732176999998,373.7732176999998,None,num_6,1.773146700000325,373.7732176999998,None,,,,,,,,,,,,,,,,,,,,,,,,,,,,,,,,,,,,,,,,,,,,,,,,,,,,,,,,,,,,,,,,,,,,,,,,,,,,,,,10,001,male,37,600,450,2022_Sep_02_1353,Experiment,2021.1.4,359.89865253629745,
images\S22_M_S_03.png,images\S22_M_S_03_scrambled.png,22,Sad,0.3,M,0,0,practice,on,2,0.5,0.75,0.5,0.794,3,,,,,,,,,,,0,7,7,7,,,,,,,,,,,,,,,,,,,,,,,,,,,,,,,,,,,,,,,,,,,375.60317209999994,376.1085944999995,376.1085944999995,376.86389080000026,376.86389080000026,377.36664740000015,377.36664740000015,378.1635348,378.1635348,None,num_6,1.4308267999995223,378.1635348,None,,,,,,,,,,,,,,,,,,,,,,,,,,,,,,,,,,,,,,,,,,,,,,,,,,,,,,,,,,,,,,,,,,,,,,,,,,,,,,,10,001,male,37,600,450,2022_Sep_02_1353,Experiment,2021.1.4,359.89865253629745,
,,,,,,,,,,,,,,,,,,,,,,,,,,,,,,,,,,,,,,,,,,,,,,,,,,,,,,,,,,,,,,,,,,,,,,,,,,,,,,,,,,,,,,379.6241578999998,None,space,42.49800159999995,,,,,,,,,,,,,,,,,,,,,,,,,,,,,,,,,,,,,,,,,,,,,,,,,,,,,,,,,,,,,,,,,,,,,,,,,,,10,001,male,37,600,450,2022_Sep_02_1353,Experiment,2021.1.4,359.89865253629745,
images\S1_F_H_03.png,images\S1_F_H_03_scrambled.png,1,happy,30,female,6,,423,on,2,0.5,0.75,0.5,0.882,3,422,1,1,1,2,2,32,128,166,,,,,,0,0,0,0,,,,,,,,,,,,,,,,,,,,,,,,,,,,,,,,,,,,,,,,,,,,,,,,,,,,,,,,,422.6220672999998,423.1246937999995,423.1246937999995,423.8772382999996,423.8772382999996,424.3826835,424.3826835,425.2685025999999,425.2685025999999,None,num_6,1.7497454999993352,425.2685025999999,None,happy,0,Happy,427.03462820000004,None,None,427.03462820000004,None,,,,,,,,,,,,,,,,,,,,,,,,,,,,,,,,,,,,,,,,,,,,,,,,,,,,,10,001,male,37,600,450,2022_Sep_02_1353,Experiment,2021.1.4,359.89865253629745,
images\S7_F_H_01.png,images\S7_F_H_01_scrambled.png,7,happy,10,female,4,,337,on,2,0.5,0.75,0.5,0.939,3,336,2,1,1,2,2,32,128,164,,,,,,0,1,1,1,,,,,,,,,,,,,,,,,,,,,,,,,,,,,,,,,,,,,,,,,,,,,,,,,,,,,,,,,427.12067430000025,427.62052609999955,427.62052609999955,428.3702883999995,428.3702883999995,428.8729500999998,428.8729500999998,429.81720529999984,429.81720529999984,None,num_6,0.8009682000001703,429.81720529999984,None,happy,0,Happy,430.6307422600001,None,None,430.6307422600001,None,,,,,,,,,,,,,,,,,,,,,,,,,,,,,,,,,,,,,,,,,,,,,,,,,,,,,10,001,male,37,600,450,2022_Sep_02_1353,Experiment,2021.1.4,359.89865253629745,
images\S9_F_S_02.png,images\S9_F_S_02_scrambled.png,9,sad,-20,female,2,,173,off,1,0.5,0.75,0.5,0.948,3,172,1,1,1,0,0,0,0,2,,,,,,0,2,2,2,,,,,,,,,,,,,,,,,,,,,,,,,,,,,,,,,,,,,,,,,,,,,,,,,,,,,,,,,430.7167892999996,431.2194311000003,431.2194311000003,431.97219570000016,431.97219570000016,432.4774488000003,432.4774488000003,433.4298589,433.4298589,None,num_6,0.6442979000003106,433.4298589,None,happy,0,Sad,434.0796633799995,None,None,434.0796633799995,None,,,,,,,,,,,,,,,,,,,,,,,,,,,,,,,,,,,,,,,,,,,,,,,,,,,,,10,001,male,37,600,450,2022_Sep_02_1353,Experiment,2021.1.4,359.89865253629745,
images\S9_F_H_03.png,images\S9_F_H_03_scrambled.png,9,happy,30,female,6,,591,on,2,0.5,0.75,0.5,0.814,3,590,1,2,1,2,2,32,128,166,,,,,,0,3,3,3,,,,,,,,,,,,,,,,,,,,,,,,,,,,,,,,,,,,,,,,,,,,,,,,,,,,,,,,,434.1685091999998,434.6683524,434.6683524,435.4209404000003,435.4209404000003,435.9235189000001,435.9235189000001,436.74277789999996,436.74277789999996,None,num_6,0.5795516999996835,436.74277789999996,None,happy,0,Happy,437.339798,None,None,437.339798,None,,,,,,,,,,,,,,,,,,,,,,,,,,,,,,,,,,,,,,,,,,,,,,,,,,,,,10,001,male,37,600,450,2022_Sep_02_1353,Experiment,2021.1.4,359.89865253629745,
images\S9_F_S_01.png,images\S9_F_S_01_scrambled.png,9,sad,-10,female,3,,52,off,1,0.5,0.75,0.5,0.827,3,51,1,3,1,0,0,0,0,3,,,,,,0,4,4,4,,,,,,,,,,,,,,,,,,,,,,,,,,,,,,,,,,,,,,,,,,,,,,,,,,,,,,,,,437.42584869999973,437.9256875000001,437.9256875000001,438.6782739,438.6782739,439.18090140000004,439.18090140000004,440.01118339999994,440.01118339999994,None,num_6,0.5670835000000807,440.01118339999994,None,happy,0,Sad,440.58883071999986,None,None,440.58883071999986,None,,,,,,,,,,,,,,,,,,,,,,,,,,,,,,,,,,,,,,,,,,,,,,,,,,,,,10,001,male,37,600,450,2022_Sep_02_1353,Experiment,2021.1.4,359.89865253629745,
images\blank.jpg,images\blank.jpg,none,none,none,none,0,,609,on,2,0.5,0.75,0.5,0.786,0,608,1,1,1,3,3,48,192,240,,,,,,0,5,5,5,,,,,,,,,,,,,,,,,,,,,,,,,,,,,,,,,,,,,,,,,,,,,,,,,,,,,,,,,440.75026329999946,441.25250379999943,441.25250379999943,442.0078287999995,442.0078287999995,442.5132057999999,442.5132057999999,443.30193710000003,443.30193710000003,443.30193710000003,None,,443.30193710000003,None,miss,0,,446.3037298799994,None,None,446.3037298799994,None,,,,,,,,,,,,,,,,,,,,,,,,,,,,,,,,,,,,,,,,,,,,,,,,,,,,,10,001,male,37,600,450,2022_Sep_02_1353,Experiment,2021.1.4,359.89865253629745,
images\S1_F_S_01.png,images\S1_F_S_01_scrambled.png,1,sad,-10,female,3,,544,on,2,0.5,0.75,0.5,0.916,3,543,2,1,1,2,2,32,128,163,,,,,,0,6,6,6,,,,,,,,,,,,,,,,,,,,,,,,,,,,,,,,,,,,,,,,,,,,,,,,,,,,,,,,,446.45648019999953,446.9590368999998,446.9590368999998,447.7143651999995,447.7143651999995,448.21710919999987,448.21710919999987,449.13335129999996,449.13335129999996,None,num_6,1.2288579000005484,449.13335129999996,446.45648019999953,happy,0,Sad,450.3691012799994,None,None,450.3691012799994,None,,,,,,,,,,,,,,,,,,,,,,,,,,,,,,,,,,,,,,,,,,,,,,,,,,,,,10,001,male,37,600,450,2022_Sep_02_1353,Experiment,2021.1.4,359.89865253629745,
images\S9_F_H_03.png,images\S9_F_H_03_scrambled.png,9,happy,30,female,6,,231,on,2,0.5,0.75,0.5,0.763,3,230,3,1,1,2,2,32,128,166,,,,,,0,7,7,7,,,,,,,,,,,,,,,,,,,,,,,,,,,,,,,,,,,,,,,,,,,,,,,,,,,,,,,,,450.42185489999974,450.9244913000002,450.9244913000002,451.67703679999977,451.67703679999977,452.17688589999943,452.17688589999943,452.9433356999998,452.9433356999998,None,num_6,0.530803300000116,452.9433356999998,None,happy,0,Happy,453.4848328599999,None,None,453.4848328599999,None,,,,,,,,,,,,,,,,,,,,,,,,,,,,,,,,,,,,,,,,,,,,,,,,,,,,,10,001,male,37,600,450,2022_Sep_02_1353,Experiment,2021.1.4,359.89865253629745,
images\blank.jpg,images\blank.jpg,none,none,none,none,0,,624,on,2,0.5,0.75,0.5,0.784,0,623,4,1,1,3,3,48,192,240,,,,,,0,8,8,8,,,,,,,,,,,,,,,,,,,,,,,,,,,,,,,,,,,,,,,,,,,,,,,,,,,,,,,,,453.5683558999999,454.06796119999944,454.06796119999944,454.8233113999995,454.8233113999995,455.32869909999954,455.32869909999954,456.114646,456.114646,456.114646,None,,456.114646,None,miss,0,,459.11647998000024,None,None,459.11647998000024,None,,,,,,,,,,,,,,,,,,,,,,,,,,,,,,,,,,,,,,,,,,,,,,,,,,,,,10,001,male,37,600,450,2022_Sep_02_1353,Experiment,2021.1.4,359.89865253629745,
images\S2_M_H_02.png,images\S2_M_H_02_scrambled.png,2,happy,20,male,5,,308,on,2,0.5,0.75,0.5,0.847,3,307,5,1,1,2,2,32,128,165,,,,,,0,9,9,9,,,,,,,,,,,,,,,,,,,,,,,,,,,,,,,,,,,,,,,,,,,,,,,,,,,,,,,,,459.27476229999957,459.7773981999999,459.7773981999999,460.53266639999947,460.53266639999947,461.03248110000004,461.03248110000004,461.8823403999995,461.8823403999995,None,None,,461.8823403999995,459.27476229999957,miss,0,Happy,464.88687343999953,None,None,464.88687343999953,None,,,,,,,,,,,,,,,,,,,,,,,,,,,,,,,,,,,,,,,,,,,,,,,,,,,,,10,001,male,37,600,450,2022_Sep_02_1353,Experiment,2021.1.4,359.89865253629745,
images\S2_M_S_02.png,images\S2_M_S_02_scrambled.png,2,sad,-20,male,2,,71,on,2,0.5,0.75,0.5,0.757,3,70,6,2,1,2,2,32,128,162,,,,,,0,10,10,10,,,,,,,,,,,,,,,,,,,,,,,,,,,,,,,,,,,,,,,,,,,,,,,,,,,,,,,,,464.97294109999984,465.4783588999999,465.4783588999999,466.2336814999999,466.2336814999999,466.7364001999995,466.7364001999995,467.4972527,467.4972527,464.97294109999984,num_4,1.1769021000000066,467.4972527,464.97294109999984,sad,0,Sad,468.6857176599995,None,None,468.6857176599995,None,,,,,,,,,,,,,,,,,,,,,,,,,,,,,,,,,,,,,,,,,,,,,,,,,,,,,10,001,male,37,600,450,2022_Sep_02_1353,Experiment,2021.1.4,359.89865253629745,
images\S6_M_S_01.png,images\S6_M_S_01_scrambled.png,6,sad,-10,male,3,,154,off,1,0.5,0.75,0.5,0.85,3,153,1,1,1,0,0,0,0,3,,,,,,0,11,11,11,,,,,,,,,,,,,,,,,,,,,,,,,,,,,,,,,,,,,,,,,,,,,,,,,,,,,,,,,468.77176679999957,469.2744141000003,469.2744141000003,470.02695119999953,470.02695119999953,470.5268063000003,470.5268063000003,471.3821600000001,471.3821600000001,None,num_6,1.748000000000502,471.3821600000001,None,happy,0,Sad,473.1398857799999,None,None,473.1398857799999,None,,,,,,,,,,,,,,,,,,,,,,,,,,,,,,,,,,,,,,,,,,,,,,,,,,,,,10,001,male,37,600,450,2022_Sep_02_1353,Experiment,2021.1.4,359.89865253629745,
images\S4_M_S_01.png,images\S4_M_S_01_scrambled.png,4,sad,-10,male,3,,322,on,2,0.5,0.75,0.5,0.862,3,321,1,1,2,2,2,32,128,163,,,,,,0,12,12,12,,,,,,,,,,,,,,,,,,,,,,,,,,,,,,,,,,,,,,,,,,,,,,,,,,,,,,,,,473.22594879999997,473.7286027,473.7286027,474.4811572999997,474.4811572999997,474.98101140000017,474.98101140000017,475.84745159999966,475.84745159999966,None,num_4,0.5388396999996985,475.84745159999966,None,sad,0,Sad,476.4000063599995,None,None,476.4000063599995,None,,,,,,,,,,,,,,,,,,,,,,,,,,,,,,,,,,,,,,,,,,,,,,,,,,,,,10,001,male,37,600,450,2022_Sep_02_1353,Experiment,2021.1.4,359.89865253629745,
images\S5_F_S_02.png,images\S5_F_S_02_scrambled.png,5,sad,-20,female,2,,29,off,1,0.5,0.75,0.5,0.904,3,28,1,1,1,0,0,0,0,2,,,,,,0,13,13,13,,,,,,,,,,,,,,,,,,,,,,,,,,,,,,,,,,,,,,,,,,,,,,,,,,,,,,,,,476.4860632,476.99145789999966,476.99145789999966,477.74402329999975,477.74402329999975,478.2494280000001,478.2494280000001,479.1575193999997,479.1575193999997,None,num_6,0.41264200000023266,479.1575193999997,None,happy,0,Sad,479.5767988800002,None,None,479.5767988800002,None,,,,,,,,,,,,,,,,,,,,,,,,,,,,,,,,,,,,,,,,,,,,,,,,,,,,,10,001,male,37,600,450,2022_Sep_02_1353,Experiment,2021.1.4,359.89865253629745,
images\S6_M_H_01.png,images\S6_M_H_01_scrambled.png,6,happy,10,male,4,,571,on,2,0.5,0.75,0.5,0.849,3,570,1,1,1,2,2,32,128,164,,,,,,0,14,14,14,,,,,,,,,,,,,,,,,,,,,,,,,,,,,,,,,,,,,,,,,,,,,,,,,,,,,,,,,479.6656446999996,480.1682605999995,480.1682605999995,480.9236209999999,480.9236209999999,481.42900050000026,481.42900050000026,482.28161480000017,482.28161480000017,None,num_6,0.5205489999998463,482.28161480000017,None,happy,0,Happy,482.8147035600003,None,None,482.8147035600003,None,,,,,,,,,,,,,,,,,,,,,,,,,,,,,,,,,,,,,,,,,,,,,,,,,,,,,10,001,male,37,600,450,2022_Sep_02_1353,Experiment,2021.1.4,359.89865253629745,
images\S8_M_H_02.png,images\S8_M_H_02_scrambled.png,8,happy,20,male,5,,464,on,2,0.5,0.75,0.5,0.805,3,463,2,1,1,2,2,32,128,165,,,,,,0,15,15,15,,,,,,,,,,,,,,,,,,,,,,,,,,,,,,,,,,,,,,,,,,,,,,,,,,,,,,,,,482.90075830000023,483.4033752999994,483.4033752999994,484.1531537999999,484.1531537999999,484.6557700000003,484.6557700000003,485.46385439999995,485.46385439999995,None,num_6,0.36232060000020283,485.46385439999995,None,happy,0,Happy,485.84157249999953,None,None,485.84157249999953,None,,,,,,,,,,,,,,,,,,,,,,,,,,,,,,,,,,,,,,,,,,,,,,,,,,,,,10,001,male,37,600,450,2022_Sep_02_1353,Experiment,2021.1.4,359.89865253629745,
images\S10_M_H_03.png,images\S10_M_H_03_scrambled.png,10,happy,30,male,6,,57,off,1,0.5,0.75,0.5,0.854,3,56,1,1,1,0,0,0,0,6,,,,,,0,16,16,16,,,,,,,,,,,,,,,,,,,,,,,,,,,,,,,,,,,,,,,,,,,,,,,,,,,,,,,,,485.9553656999997,486.45521459999964,486.45521459999964,487.20780319999994,487.20780319999994,487.7132024000002,487.7132024000002,488.574028,488.574028,None,num_6,0.8120912000003955,488.574028,None,happy,0,Happy,489.401578,None,None,489.401578,None,,,,,,,,,,,,,,,,,,,,,,,,,,,,,,,,,,,,,,,,,,,,,,,,,,,,,10,001,male,37,600,450,2022_Sep_02_1353,Experiment,2021.1.4,359.89865253629745,
images\S10_M_S_03.png,images\S10_M_S_03_scrambled.png,10,sad,-30,male,1,,360,on,2,0.5,0.75,0.5,0.907,3,359,1,2,1,2,2,32,128,161,,,,,,0,17,17,17,,,,,,,,,,,,,,,,,,,,,,,,,,,,,,,,,,,,,,,,,,,,,,,,,,,,,,,,,489.4848493999998,489.98752650000006,489.98752650000006,490.73723169999994,490.73723169999994,491.2398714000001,491.2398714000001,492.15349530000003,492.15349530000003,None,num_4,0.5047982999994929,492.15349530000003,None,sad,0,Sad,492.67556969999987,None,None,492.67556969999987,None,,,,,,,,,,,,,,,,,,,,,,,,,,,,,,,,,,,,,,,,,,,,,,,,,,,,,10,001,male,37,600,450,2022_Sep_02_1353,Experiment,2021.1.4,359.89865253629745,
images\S3_F_S_02.png,images\S3_F_S_02_scrambled.png,3,sad,-20,female,2,,557,on,2,0.5,0.75,0.5,0.927,3,556,2,1,1,2,2,32,128,162,,,,,,0,18,18,18,,,,,,,,,,,,,,,,,,,,,,,,,,,,,,,,,,,,,,,,,,,,,,,,,,,,,,,,,492.76162139999997,493.26425389999986,493.26425389999986,494.0195623999998,494.0195623999998,494.52220059999945,494.52220059999945,495.45249760000024,495.45249760000024,None,num_4,1.2698065000004135,495.45249760000024,None,sad,0,Sad,496.7326567600001,None,None,496.7326567600001,None,,,,,,,,,,,,,,,,,,,,,,,,,,,,,,,,,,,,,,,,,,,,,,,,,,,,,10,001,male,37,600,450,2022_Sep_02_1353,Experiment,2021.1.4,359.89865253629745,
images\S7_F_H_01.png,images\S7_F_H_01_scrambled.png,7,happy,10,female,4,,217,on,2,0.5,0.75,0.5,0.829,3,216,3,1,1,2,2,32,128,164,,,,,,0,19,19,19,,,,,,,,,,,,,,,,,,,,,,,,,,,,,,,,,,,,,,,,,,,,,,,,,,,,,,,,,496.7825995000003,497.2880398999996,497.2880398999996,498.0405522000001,498.0405522000001,498.54321939999954,498.54321939999954,499.3763657999998,499.3763657999998,None,num_6,1.1698431999993772,499.3763657999998,None,happy,0,Happy,500.5564761599997,None,None,500.5564761599997,None,,,,,,,,,,,,,,,,,,,,,,,,,,,,,,,,,,,,,,,,,,,,,,,,,,,,,10,001,male,37,600,450,2022_Sep_02_1353,Experiment,2021.1.4,359.89865253629745,
images\S10_M_H_02.png,images\S10_M_H_02_scrambled.png,10,happy,20,male,5,,236,on,2,0.5,0.75,0.5,0.858,3,235,4,1,1,2,2,32,128,165,,,,,,0,20,20,20,,,,,,,,,,,,,,,,,,,,,,,,,,,,,,,,,,,,,,,,,,,,,,,,,,,,,,,,,500.6452368,501.1479486999997,501.1479486999997,501.90050019999944,501.90050019999944,502.40031610000005,502.40031610000005,503.2613136,503.2613136,None,num_6,0.7408303000001979,503.2613136,None,happy,0,Happy,504.01929616000035,None,None,504.01929616000035,None,,,,,,,,,,,,,,,,,,,,,,,,,,,,,,,,,,,,,,,,,,,,,,,,,,,,,10,001,male,37,600,450,2022_Sep_02_1353,Experiment,2021.1.4,359.89865253629745,
images\S3_F_S_01.png,images\S3_F_S_01_scrambled.png,3,sad,-10,female,3,,436,on,2,0.5,0.75,0.5,0.845,3,435,5,1,1,2,2,32,128,163,,,,,,0,21,21,21,,,,,,,,,,,,,,,,,,,,,,,,,,,,,,,,,,,,,,,,,,,,,,,,,,,,,,,,,504.1025933000001,504.60802049999984,504.60802049999984,505.36329959999966,505.36329959999966,505.8659551999999,505.8659551999999,506.7129377000001,506.7129377000001,None,num_6,2.0333582000002934,506.7129377000001,None,happy,0,Sad,508.75117327999976,None,None,508.75117327999976,None,,,,,,,,,,,,,,,,,,,,,,,,,,,,,,,,,,,,,,,,,,,,,,,,,,,,,10,001,male,37,600,450,2022_Sep_02_1353,Experiment,2021.1.4,359.89865253629745,
images\S1_F_S_01.png,images\S1_F_S_01_scrambled.png,1,sad,-10,female,3,,304,on,2,0.5,0.75,0.5,0.782,3,303,6,1,2,2,2,32,128,163,,,,,,0,22,22,22,,,,,,,,,,,,,,,,,,,,,,,,,,,,,,,,,,,,,,,,,,,,,,,,,,,,,,,,,508.80113269999947,509.3009761000003,509.3009761000003,510.0535616999996,510.0535616999996,510.55617299999994,510.55617299999994,511.3421639999997,511.3421639999997,None,num_6,1.4679316000001563,511.3421639999997,None,happy,0,Sad,512.8193612800001,None,None,512.8193612800001,None,,,,,,,,,,,,,,,,,,,,,,,,,,,,,,,,,,,,,,,,,,,,,,,,,,,,,10,001,male,37,600,450,2022_Sep_02_1353,Experiment,2021.1.4,359.89865253629745,
images\S9_F_H_02.png,images\S9_F_H_02_scrambled.png,9,happy,20,female,5,,590,on,2,0.5,0.75,0.5,0.923,3,589,7,1,1,2,2,32,128,165,,,,,,0,23,23,23,,,,,,,,,,,,,,,,,,,,,,,,,,,,,,,,,,,,,,,,,,,,,,,,,,,,,,,,,512.9026501999997,513.4080873000003,513.4080873000003,514.1633696999997,514.1633696999997,514.6687959000001,514.6687959000001,515.5990628,515.5990628,None,num_6,0.6030517999997755,515.5990628,None,happy,0,Happy,516.2155521599997,None,None,516.2155521599997,None,,,,,,,,,,,,,,,,,,,,,,,,,,,,,,,,,,,,,,,,,,,,,,,,,,,,,10,001,male,37,600,450,2022_Sep_02_1353,Experiment,2021.1.4,359.89865253629745,
images\S10_M_S_03.png,images\S10_M_S_03_scrambled.png,10,sad,-30,male,1,,60,off,1,0.5,0.75,0.5,0.794,3,59,1,1,1,0,0,0,0,1,,,,,,0,24,24,24,,,,,,,,,,,,,,,,,,,,,,,,,,,,,,,,,,,,,,,,,,,,,,,,,,,,,,,,,516.2655064999999,516.7681683000001,516.7681683000001,517.5234773000002,517.5234773000002,518.0232962999999,518.0232962999999,518.8202873999999,518.8202873999999,None,num_4,0.4698538999991797,518.8202873999999,None,sad,0,Sad,519.3119313200001,None,None,519.3119313200001,None,,,,,,,,,,,,,,,,,,,,,,,,,,,,,,,,,,,,,,,,,,,,,,,,,,,,,10,001,male,37,600,450,2022_Sep_02_1353,Experiment,2021.1.4,359.89865253629745,
images\blank.jpg,images\blank.jpg,none,none,none,none,0,,626,on,2,0.5,0.75,0.5,0.879,0,625,1,1,1,3,3,48,192,240,,,,,,0,25,25,25,,,,,,,,,,,,,,,,,,,,,,,,,,,,,,,,,,,,,,,,,,,,,,,,,,,,,,,,,519.4008512,519.9033145000003,519.9033145000003,520.6558231999998,520.6558231999998,521.1584700000003,521.1584700000003,522.0388456000001,522.0388456000001,522.0388456000001,None,,522.0388456000001,None,miss,0,,525.0434580799997,None,None,525.0434580799997,None,,,,,,,,,,,,,,,,,,,,,,,,,,,,,,,,,,,,,,,,,,,,,,,,,,,,,10,001,male,37,600,450,2022_Sep_02_1353,Experiment,2021.1.4,359.89865253629745,
images\S8_M_H_03.png,images\S8_M_H_03_scrambled.png,8,happy,30,male,6,,45,off,1,0.5,0.75,0.5,0.842,3,44,1,1,1,0,0,0,0,6,,,,,,0,26,26,26,,,,,,,,,,,,,,,,,,,,,,,,,,,,,,,,,,,,,,,,,,,,,,,,,,,,,,,,,525.2100579999997,525.7126109000001,525.7126109000001,526.4679557999998,526.4679557999998,526.9733600999998,526.9733600999998,527.8175497000002,527.8175497000002,None,num_6,0.4087276000000202,527.8175497000002,525.2100579999997,happy,0,Happy,528.2396316599996,None,None,528.2396316599996,None,,,,,,,,,,,,,,,,,,,,,,,,,,,,,,,,,,,,,,,,,,,,,,,,,,,,,10,001,male,37,600,450,2022_Sep_02_1353,Experiment,2021.1.4,359.89865253629745,
images\S6_M_H_01.png,images\S6_M_H_01_scrambled.png,6,happy,10,male,4,,331,on,2,0.5,0.75,0.5,0.791,3,330,1,1,1,2,2,32,128,164,,,,,,0,27,27,27,,,,,,,,,,,,,,,,,,,,,,,,,,,,,,,,,,,,,,,,,,,,,,,,,,,,,,,,,528.2895938000001,528.7922169000003,528.7922169000003,529.5475885999995,529.5475885999995,530.0529724999997,530.0529724999997,530.8499289000001,530.8499289000001,None,num_6,2.2403514000006908,530.8499289000001,None,happy,0,Happy,533.1048049600003,None,None,533.1048049600003,None,,,,,,,,,,,,,,,,,,,,,,,,,,,,,,,,,,,,,,,,,,,,,,,,,,,,,10,001,male,37,600,450,2022_Sep_02_1353,Experiment,2021.1.4,359.89865253629745,
images\blank.jpg,images\blank.jpg,none,none,none,none,0,,603,on,2,0.5,0.75,0.5,0.94,0,602,2,1,1,3,3,48,192,240,,,,,,0,28,28,28,,,,,,,,,,,,,,,,,,,,,,,,,,,,,,,,,,,,,,,,,,,,,,,,,,,,,,,,,533.1883558999998,533.6935088999999,533.6935088999999,534.4432593000001,534.4432593000001,534.9486813000003,534.9486813000003,535.8928439000001,535.8928439000001,535.8928439000001,None,,535.8928439000001,None,miss,0,,538.8975210800004,None,None,538.8975210800004,None,,,,,,,,,,,,,,,,,,,,,,,,,,,,,,,,,,,,,,,,,,,,,,,,,,,,,10,001,male,37,600,450,2022_Sep_02_1353,Experiment,2021.1.4,359.89865253629745,
images\S3_F_H_01.png,images\S3_F_H_01_scrambled.png,3,happy,10,female,4,,373,off,1,0.5,0.75,0.5,0.759,3,372,1,1,1,0,0,0,0,4,,,,,,0,29,29,29,,,,,,,,,,,,,,,,,,,,,,,,,,,,,,,,,,,,,,,,,,,,,,,,,,,,,,,,,539.0641341,539.5694642999997,539.5694642999997,540.3221158999995,540.3221158999995,540.8218750999995,540.8218750999995,541.5827252999998,541.5827252999998,None,num_6,0.8274096000004647,541.5827252999998,539.0641341,happy,0,Happy,542.42140026,None,None,542.42140026,None,,,,,,,,,,,,,,,,,,,,,,,,,,,,,,,,,,,,,,,,,,,,,,,,,,,,,10,001,male,37,600,450,2022_Sep_02_1353,Experiment,2021.1.4,359.89865253629745,
images\blank.jpg,images\blank.jpg,none,none,none,none,0,,645,on,2,0.5,0.75,0.5,0.861,0,644,1,1,1,3,3,48,192,240,,,,,,0,30,30,30,,,,,,,,,,,,,,,,,,,,,,,,,,,,,,,,,,,,,,,,,,,,,,,,,,,,,,,,,542.5078557999996,543.0128769000003,543.0128769000003,543.7653934,543.7653934,544.2680478000002,544.2680478000002,545.1317727999995,545.1317727999995,545.1317727999995,None,,545.1317727999995,None,miss,0,,548.1364099799998,None,None,548.1364099799998,None,,,,,,,,,,,,,,,,,,,,,,,,,,,,,,,,,,,,,,,,,,,,,,,,,,,,,10,001,male,37,600,450,2022_Sep_02_1353,Experiment,2021.1.4,359.89865253629745,
images\S7_F_S_02.png,images\S7_F_S_02_scrambled.png,7,sad,-20,female,2,,161,off,1,0.5,0.75,0.5,0.93,3,160,1,1,1,0,0,0,0,2,,,,,,0,31,31,31,,,,,,,,,,,,,,,,,,,,,,,,,,,,,,,,,,,,,,,,,,,,,,,,,,,,,,,,,548.3088582,548.8138628999995,548.8138628999995,549.5664957999998,549.5664957999998,550.0662296999999,550.0662296999999,550.9992921000003,550.9992921000003,None,num_4,0.5228668999998263,550.9992921000003,548.3088582,sad,0,Sad,551.5408663999997,None,None,551.5408663999997,None,,,,,,,,,,,,,,,,,,,,,,,,,,,,,,,,,,,,,,,,,,,,,,,,,,,,,10,001,male,37,600,450,2022_Sep_02_1353,Experiment,2021.1.4,359.89865253629745,
images\S3_F_S_03.png,images\S3_F_S_03_scrambled.png,3,sad,-30,female,1,,378,off,1,0.5,0.75,0.5,0.876,3,377,2,1,1,0,0,0,0,1,,,,,,0,32,32,32,,,,,,,,,,,,,,,,,,,,,,,,,,,,,,,,,,,,,,,,,,,,,,,,,,,,,,,,,551.6490477999996,552.1518114999999,552.1518114999999,552.9042631000002,552.9042631000002,553.406884,553.406884,554.2872325999997,554.2872325999997,None,num_4,0.7308832999997321,554.2872325999997,None,sad,0,Sad,555.03140376,None,None,555.03140376,None,,,,,,,,,,,,,,,,,,,,,,,,,,,,,,,,,,,,,,,,,,,,,,,,,,,,,10,001,male,37,600,450,2022_Sep_02_1353,Experiment,2021.1.4,359.89865253629745,
images\S6_M_S_03.png,images\S6_M_S_03_scrambled.png,6,sad,-30,male,1,,396,off,1,0.5,0.75,0.5,0.866,3,395,3,1,2,0,0,0,0,1,,,,,,0,33,33,33,,,,,,,,,,,,,,,,,,,,,,,,,,,,,,,,,,,,,,,,,,,,,,,,,,,,,,,,,555.1146831999995,555.6174150999996,555.6174150999996,556.3726724999997,556.3726724999997,556.8752592999999,556.8752592999999,557.7472931000002,557.7472931000002,None,num_4,0.5831377999993492,557.7472931000002,None,sad,0,Sad,558.3555177800004,None,None,558.3555177800004,None,,,,,,,,,,,,,,,,,,,,,,,,,,,,,,,,,,,,,,,,,,,,,,,,,,,,,10,001,male,37,600,450,2022_Sep_02_1353,Experiment,2021.1.4,359.89865253629745,
images\S7_F_S_03.png,images\S7_F_S_03_scrambled.png,7,sad,-30,female,1,,282,off,1,0.5,0.75,0.5,0.852,3,281,4,1,3,0,0,0,0,1,,,,,,0,34,34,34,,,,,,,,,,,,,,,,,,,,,,,,,,,,,,,,,,,,,,,,,,,,,,,,,,,,,,,,,558.4636602,558.9664136000001,558.9664136000001,559.7160429999994,559.7160429999994,560.2158876000003,560.2158876000003,561.0739795,561.0739795,None,num_4,0.5041584000000512,561.0739795,None,sad,0,Sad,561.5904994600004,None,None,561.5904994600004,None,,,,,,,,,,,,,,,,,,,,,,,,,,,,,,,,,,,,,,,,,,,,,,,,,,,,,10,001,male,37,600,450,2022_Sep_02_1353,Experiment,2021.1.4,359.89865253629745,
images\S5_F_S_02.png,images\S5_F_S_02_scrambled.png,5,sad,-20,female,2,,449,on,2,0.5,0.75,0.5,0.785,3,448,1,1,1,2,2,32,128,162,,,,,,0,35,35,35,,,,,,,,,,,,,,,,,,,,,,,,,,,,,,,,,,,,,,,,,,,,,,,,,,,,,,,,,561.6376746999995,562.1375220999998,562.1375220999998,562.8873064999998,562.8873064999998,563.3927512999999,563.3927512999999,564.1814607999995,564.1814607999995,None,num_4,1.4288305000000037,564.1814607999995,None,sad,0,Sad,565.62536816,None,None,565.62536816,None,,,,,,,,,,,,,,,,,,,,,,,,,,,,,,,,,,,,,,,,,,,,,,,,,,,,,10,001,male,37,600,450,2022_Sep_02_1353,Experiment,2021.1.4,359.89865253629745,
images\S6_M_S_02.png,images\S6_M_S_02_scrambled.png,6,sad,-20,male,2,,35,off,1,0.5,0.75,0.5,0.914,3,34,1,1,2,0,0,0,0,2,,,,,,0,36,36,36,,,,,,,,,,,,,,,,,,,,,,,,,,,,,,,,,,,,,,,,,,,,,,,,,,,,,,,,,565.7086409000003,566.2140621999997,566.2140621999997,566.9693839000001,566.9693839000001,567.4721279999994,567.4721279999994,568.3912848999998,568.3912848999998,None,num_6,1.1387532999997347,568.3912848999998,None,happy,0,Sad,569.53804068,None,None,569.53804068,None,,,,,,,,,,,,,,,,,,,,,,,,,,,,,,,,,,,,,,,,,,,,,,,,,,,,,10,001,male,37,600,450,2022_Sep_02_1353,Experiment,2021.1.4,359.89865253629745,
images\S1_F_H_02.png,images\S1_F_H_02_scrambled.png,1,happy,20,female,5,,2,off,1,0.5,0.75,0.5,0.805,3,1,2,1,1,0,0,0,0,5,,,,,,0,37,37,37,,,,,,,,,,,,,,,,,,,,,,,,,,,,,,,,,,,,,,,,,,,,,,,,,,,,,,,,,569.6240983999996,570.1268399999999,570.1268399999999,570.8764977999999,570.8764977999999,571.3820224000001,571.3820224000001,572.1928230000003,572.1928230000003,None,num_6,0.5452942000001713,572.1928230000003,None,happy,0,Happy,572.7509589600003,None,None,572.7509589600003,None,,,,,,,,,,,,,,,,,,,,,,,,,,,,,,,,,,,,,,,,,,,,,,,,,,,,,10,001,male,37,600,450,2022_Sep_02_1353,Experiment,2021.1.4,359.89865253629745,
images\S6_M_S_03.png,images\S6_M_S_03_scrambled.png,6,sad,-30,male,1,,576,on,2,0.5,0.75,0.5,0.783,3,575,1,1,1,2,2,32,128,161,,,,,,0,38,38,38,,,,,,,,,,,,,,,,,,,,,,,,,,,,,,,,,,,,,,,,,,,,,,,,,,,,,,,,,572.8009192999998,573.3035665999996,573.3035665999996,574.0533372,574.0533372,574.5587312999996,574.5587312999996,575.3474120999999,575.3474120999999,None,num_4,0.6067552000004071,575.3474120999999,None,sad,0,Sad,575.97782642,None,None,575.97782642,None,,,,,,,,,,,,,,,,,,,,,,,,,,,,,,,,,,,,,,,,,,,,,,,,,,,,,10,001,male,37,600,450,2022_Sep_02_1353,Experiment,2021.1.4,359.89865253629745,
images\S1_F_H_02.png,images\S1_F_H_02_scrambled.png,1,happy,20,female,5,,302,on,2,0.5,0.75,0.5,0.946,3,301,2,1,1,2,2,32,128,165,,,,,,0,39,39,39,,,,,,,,,,,,,,,,,,,,,,,,,,,,,,,,,,,,,,,,,,,,,,,,,,,,,,,,,576.0415786000003,576.5442198999999,576.5442198999999,577.2968995000001,577.2968995000001,577.7966189999997,577.7966189999997,578.7464320999998,578.7464320999998,None,num_6,0.4316971999996895,578.7464320999998,None,happy,0,Happy,579.1934367599996,None,None,579.1934367599996,None,,,,,,,,,,,,,,,,,,,,,,,,,,,,,,,,,,,,,,,,,,,,,,,,,,,,,10,001,male,37,600,450,2022_Sep_02_1353,Experiment,2021.1.4,359.89865253629745,
images\S2_M_S_01.png,images\S2_M_S_01_scrambled.png,2,sad,-10,male,3,,490,off,1,0.5,0.75,0.5,0.782,3,489,1,1,1,0,0,0,0,3,,,,,,0,40,40,40,,,,,,,,,,,,,,,,,,,,,,,,,,,,,,,,,,,,,,,,,,,,,,,,,,,,,,,,,579.2739271999999,579.7766734999996,579.7766734999996,580.5291058000003,580.5291058000003,581.0317098999994,581.0317098999994,581.8175787,581.8175787,None,num_6,0.9447336000002906,581.8175787,None,happy,0,Sad,582.7700933800002,None,None,582.7700933800002,None,,,,,,,,,,,,,,,,,,,,,,,,,,,,,,,,,,,,,,,,,,,,,,,,,,,,,10,001,male,37,600,450,2022_Sep_02_1353,Experiment,2021.1.4,359.89865253629745,
images\S3_F_H_02.png,images\S3_F_H_02_scrambled.png,3,happy,20,female,5,,494,off,1,0.5,0.75,0.5,0.936,3,493,2,1,1,0,0,0,0,5,,,,,,0,41,41,41,,,,,,,,,,,,,,,,,,,,,,,,,,,,,,,,,,,,,,,,,,,,,,,,,,,,,,,,,582.8505995999994,583.356119,583.356119,584.1085637999995,584.1085637999995,584.6113089999999,584.6113089999999,585.5526094999996,585.5526094999996,None,num_6,2.953465100000358,585.5526094999996,None,happy,0,Happy,588.5183369599998,None,None,588.5183369599998,None,,,,,,,,,,,,,,,,,,,,,,,,,,,,,,,,,,,,,,,,,,,,,,,,,,,,,10,001,male,37,600,450,2022_Sep_02_1353,Experiment,2021.1.4,359.89865253629745,
images\S10_M_H_02.png,images\S10_M_H_02_scrambled.png,10,happy,20,male,5,,356,on,2,0.5,0.75,0.5,0.855,3,355,1,1,2,2,2,32,128,165,,,,,,0,42,42,42,,,,,,,,,,,,,,,,,,,,,,,,,,,,,,,,,,,,,,,,,,,,,,,,,,,,,,,,,588.5655162000003,589.0681353999998,589.0681353999998,589.8178988,589.8178988,590.3233313000001,590.3233313000001,591.1814947000003,591.1814947000003,None,num_6,0.36473260000002483,591.1814947000003,None,happy,0,Happy,591.5674823200003,None,None,591.5674823200003,None,,,,,,,,,,,,,,,,,,,,,,,,,,,,,,,,,,,,,,,,,,,,,,,,,,,,,10,001,male,37,600,450,2022_Sep_02_1353,Experiment,2021.1.4,359.89865253629745,
images\S2_M_S_03.png,images\S2_M_S_03_scrambled.png,2,sad,-30,male,1,,432,on,2,0.5,0.75,0.5,0.828,3,431,2,1,1,2,2,32,128,161,,,,,,0,43,43,43,,,,,,,,,,,,,,,,,,,,,,,,,,,,,,,,,,,,,,,,,,,,,,,,,,,,,,,,,591.6728880999999,592.1783182999998,592.1783182999998,592.9280575000003,592.9280575000003,593.4307276,593.4307276,594.2581998999995,594.2581998999995,None,num_4,0.4959902999999031,594.2581998999995,None,sad,0,Sad,594.7748390399995,None,None,594.7748390399995,None,,,,,,,,,,,,,,,,,,,,,,,,,,,,,,,,,,,,,,,,,,,,,,,,,,,,,10,001,male,37,600,450,2022_Sep_02_1353,Experiment,2021.1.4,359.89865253629745,
images\S2_M_H_02.png,images\S2_M_H_02_scrambled.png,2,happy,20,male,5,,548,on,2,0.5,0.75,0.5,0.785,3,547,3,2,1,2,2,32,128,165,,,,,,0,44,44,44,,,,,,,,,,,,,,,,,,,,,,,,,,,,,,,,,,,,,,,,,,,,,,,,,,,,,,,,,594.8274724000003,595.3329144999998,595.3329144999998,596.0882333999998,596.0882333999998,596.5880826000002,596.5880826000002,597.3768395999996,597.3768395999996,None,num_6,0.3693028999996386,597.3768395999996,None,happy,0,Happy,597.77387506,None,None,597.77387506,None,,,,,,,,,,,,,,,,,,,,,,,,,,,,,,,,,,,,,,,,,,,,,,,,,,,,,10,001,male,37,600,450,2022_Sep_02_1353,Experiment,2021.1.4,359.89865253629745,
images\S7_F_S_01.png,images\S7_F_S_01_scrambled.png,7,sad,-10,female,3,,100,on,2,0.5,0.75,0.5,0.86,3,99,4,1,1,2,2,32,128,163,,,,,,0,45,45,45,,,,,,,,,,,,,,,,,,,,,,,,,,,,,,,,,,,,,,,,,,,,,,,,,,,,,,,,,597.8820921999995,598.3875427000003,598.3875427000003,599.1428728999999,599.1428728999999,599.6454966000001,599.6454966000001,600.5119539999996,600.5119539999996,None,num_6,0.6422048999993422,600.5119539999996,None,happy,0,Sad,601.1616716800004,None,None,601.1616716800004,None,,,,,,,,,,,,,,,,,,,,,,,,,,,,,,,,,,,,,,,,,,,,,,,,,,,,,10,001,male,37,600,450,2022_Sep_02_1353,Experiment,2021.1.4,359.89865253629745,
images\S8_M_S_01.png,images\S8_M_S_01_scrambled.png,8,sad,-10,male,3,,466,on,2,0.5,0.75,0.5,0.758,3,465,5,1,2,2,2,32,128,163,,,,,,0,46,46,46,,,,,,,,,,,,,,,,,,,,,,,,,,,,,,,,,,,,,,,,,,,,,,,,,,,,,,,,,601.2532832999996,601.7531176000002,601.7531176000002,602.5057919000001,602.5057919000001,603.0082983000002,603.0082983000002,603.7663990000001,603.7663990000001,None,num_6,0.4357939000001352,603.7663990000001,None,happy,0,Sad,604.2108427199997,None,None,604.2108427199997,None,,,,,,,,,,,,,,,,,,,,,,,,,,,,,,,,,,,,,,,,,,,,,,,,,,,,,10,001,male,37,600,450,2022_Sep_02_1353,Experiment,2021.1.4,359.89865253629745,
images\S2_M_H_03.png,images\S2_M_H_03_scrambled.png,2,happy,30,male,6,,549,on,2,0.5,0.75,0.5,0.795,3,548,6,1,1,2,2,32,128,166,,,,,,0,47,47,47,,,,,,,,,,,,,,,,,,,,,,,,,,,,,,,,,,,,,,,,,,,,,,,,,,,,,,,,,604.3217717999996,604.8244138999999,604.8244138999999,605.5769652999998,605.5769652999998,606.0824093000001,606.0824093000001,606.879344,606.879344,None,num_6,0.34679959999994026,606.879344,None,happy,0,Happy,607.2403657599997,None,None,607.2403657599997,None,,,,,,,,,,,,,,,,,,,,,,,,,,,,,,,,,,,,,,,,,,,,,,,,,,,,,10,001,male,37,600,450,2022_Sep_02_1353,Experiment,2021.1.4,359.89865253629745,
images\S2_M_S_03.png,images\S2_M_S_03_scrambled.png,2,sad,-30,male,1,,312,on,2,0.5,0.75,0.5,0.95,3,311,7,2,1,2,2,32,128,161,,,,,,0,48,48,48,,,,,,,,,,,,,,,,,,,,,,,,,,,,,,,,,,,,,,,,,,,,,,,,,,,,,,,,,607.2903160999995,607.7929733000001,607.7929733000001,608.5482947,608.5482947,609.0536855999999,609.0536855999999,610.0089474999995,610.0089474999995,None,num_4,1.3691957000000912,610.0089474999995,None,sad,0,Sad,611.3947524400003,None,None,611.3947524400003,None,,,,,,,,,,,,,,,,,,,,,,,,,,,,,,,,,,,,,,,,,,,,,,,,,,,,,10,001,male,37,600,450,2022_Sep_02_1353,Experiment,2021.1.4,359.89865253629745,
images\S2_M_H_01.png,images\S2_M_H_01_scrambled.png,2,happy,10,male,4,,7,off,1,0.5,0.75,0.5,0.916,3,6,1,3,1,0,0,0,0,4,,,,,,0,49,49,49,,,,,,,,,,,,,,,,,,,,,,,,,,,,,,,,,,,,,,,,,,,,,,,,,,,,,,,,,611.5085558000001,612.0138787999995,612.0138787999995,612.7664181,612.7664181,613.2662580999995,613.2662580999995,614.1826401999997,614.1826401999997,None,num_6,0.7713876000007076,614.1826401999997,None,happy,0,Happy,614.9657671599997,None,None,614.9657671599997,None,,,,,,,,,,,,,,,,,,,,,,,,,,,,,,,,,,,,,,,,,,,,,,,,,,,,,10,001,male,37,600,450,2022_Sep_02_1353,Experiment,2021.1.4,359.89865253629745,
images\S9_F_H_03.png,images\S9_F_H_03_scrambled.png,9,happy,30,female,6,,171,off,1,0.5,0.75,0.5,0.853,3,170,2,1,1,0,0,0,0,6,,,,,,0,50,50,50,,,,,,,,,,,,,,,,,,,,,,,,,,,,,,,,,,,,,,,,,,,,,,,,,,,,,,,,,615.0157098999998,615.5155642999998,615.5155642999998,616.2653253999997,616.2653253999997,616.7651740000001,616.7651740000001,617.6232764999995,617.6232764999995,None,num_6,0.5229953999996724,617.6232764999995,None,happy,0,Happy,618.1564561599997,None,None,618.1564561599997,None,,,,,,,,,,,,,,,,,,,,,,,,,,,,,,,,,,,,,,,,,,,,,,,,,,,,,10,001,male,37,600,450,2022_Sep_02_1353,Experiment,2021.1.4,359.89865253629745,
images\S1_F_S_03.png,images\S1_F_S_03_scrambled.png,1,sad,-30,female,1,,306,on,2,0.5,0.75,0.5,0.785,3,305,1,1,1,2,2,32,128,161,,,,,,0,51,51,51,,,,,,,,,,,,,,,,,,,,,,,,,,,,,,,,,,,,,,,,,,,,,,,,,,,,,,,,,618.2424992999995,618.7479401,618.7479401,619.5032607000003,619.5032607000003,620.0086534000002,620.0086534000002,620.8000616999998,620.8000616999998,None,num_4,0.4101219999993191,620.8000616999998,None,sad,0,Sad,621.2361899200001,None,None,621.2361899200001,None,,,,,,,,,,,,,,,,,,,,,,,,,,,,,,,,,,,,,,,,,,,,,,,,,,,,,10,001,male,37,600,450,2022_Sep_02_1353,Experiment,2021.1.4,359.89865253629745,
images\S7_F_S_01.png,images\S7_F_S_01_scrambled.png,7,sad,-10,female,3,,580,on,2,0.5,0.75,0.5,0.827,3,579,2,1,1,2,2,32,128,163,,,,,,0,52,52,52,,,,,,,,,,,,,,,,,,,,,,,,,,,,,,,,,,,,,,,,,,,,,,,,,,,,,,,,,621.2916859999996,621.7914453000003,621.7914453000003,622.5412077000001,622.5412077000001,623.0438294999994,623.0438294999994,623.8769989000002,623.8769989000002,None,num_6,1.0530699999999342,623.8769989000002,None,happy,0,Sad,624.9376857800003,None,None,624.9376857800003,None,,,,,,,,,,,,,,,,,,,,,,,,,,,,,,,,,,,,,,,,,,,,,,,,,,,,,10,001,male,37,600,450,2022_Sep_02_1353,Experiment,2021.1.4,359.89865253629745,
images\blank.jpg,images\blank.jpg,none,none,none,none,0,,629,on,2,0.5,0.75,0.5,0.906,0,628,3,1,1,3,3,48,192,240,,,,,,0,53,53,53,,,,,,,,,,,,,,,,,,,,,,,,,,,,,,,,,,,,,,,,,,,,,,,,,,,,,,,,,625.0212575999994,625.5208181999997,625.5208181999997,626.2733977999997,626.2733977999997,626.7787931000003,626.7787931000003,627.6868484999995,627.6868484999995,627.6868484999995,None,,627.6868484999995,None,miss,0,,630.6915374799996,None,None,630.6915374799996,None,,,,,,,,,,,,,,,,,,,,,,,,,,,,,,,,,,,,,,,,,,,,,,,,,,,,,10,001,male,37,600,450,2022_Sep_02_1353,Experiment,2021.1.4,359.89865253629745,
images\blank.jpg,images\blank.jpg,none,none,none,none,0,,623,on,2,0.5,0.75,0.5,0.822,0,622,4,2,2,3,3,48,192,240,,,,,,0,54,54,54,,,,,,,,,,,,,,,,,,,,,,,,,,,,,,,,,,,,,,,,,,,,,,,,,,,,,,,,,630.7220152,631.2246141999995,631.2246141999995,631.9771855999998,631.9771855999998,632.4826275999994,632.4826275999994,633.3073212999998,633.3073212999998,633.3073212999998,None,,633.3073212999998,630.7220152,miss,0,,636.3091666399998,None,None,636.3091666399998,None,,,,,,,,,,,,,,,,,,,,,,,,,,,,,,,,,,,,,,,,,,,,,,,,,,,,,10,001,male,37,600,450,2022_Sep_02_1353,Experiment,2021.1.4,359.89865253629745,
images\S4_M_S_03.png,images\S4_M_S_03_scrambled.png,4,sad,-30,male,1,,24,off,1,0.5,0.75,0.5,0.872,3,23,1,1,1,0,0,0,0,1,,,,,,0,55,55,55,,,,,,,,,,,,,,,,,,,,,,,,,,,,,,,,,,,,,,,,,,,,,,,,,,,,,,,,,636.4593447999996,636.9618837999997,636.9618837999997,637.7171596999997,637.7171596999997,638.2197121999998,638.2197121999998,639.0944516999998,639.0944516999998,None,num_4,0.5477677999997468,639.0944516999998,636.4593447999996,sad,0,Sad,639.65540116,None,None,639.65540116,None,,,,,,,,,,,,,,,,,,,,,,,,,,,,,,,,,,,,,,,,,,,,,,,,,,,,,10,001,male,37,600,450,2022_Sep_02_1353,Experiment,2021.1.4,359.89865253629745,
images\S6_M_S_01.png,images\S6_M_S_01_scrambled.png,6,sad,-10,male,3,,94,on,2,0.5,0.75,0.5,0.947,3,93,1,1,1,2,2,32,128,163,,,,,,0,56,56,56,,,,,,,,,,,,,,,,,,,,,,,,,,,,,,,,,,,,,,,,,,,,,,,,,,,,,,,,,639.7053581999999,640.2079735999996,640.2079735999996,640.9605661999994,640.9605661999994,641.4603621999995,641.4603621999995,642.4073012999997,642.4073012999997,None,num_6,0.9388722000003327,642.4073012999997,None,happy,0,Sad,643.3514760800003,None,None,643.3514760800003,None,,,,,,,,,,,,,,,,,,,,,,,,,,,,,,,,,,,,,,,,,,,,,,,,,,,,,10,001,male,37,600,450,2022_Sep_02_1353,Experiment,2021.1.4,359.89865253629745,
images\blank.jpg,images\blank.jpg,none,none,none,none,0,,622,on,2,0.5,0.75,0.5,0.763,0,621,2,1,1,3,3,48,192,240,,,,,,0,57,57,57,,,,,,,,,,,,,,,,,,,,,,,,,,,,,,,,,,,,,,,,,,,,,,,,,,,,,,,,,643.4349844999997,643.9374153999997,643.9374153999997,644.6899414,644.6899414,645.1926075000001,645.1926075000001,645.9619047999995,645.9619047999995,645.9619047999995,None,,645.9619047999995,None,miss,0,,648.9664883800001,None,None,648.9664883800001,None,,,,,,,,,,,,,,,,,,,,,,,,,,,,,,,,,,,,,,,,,,,,,,,,,,,,,10,001,male,37,600,450,2022_Sep_02_1353,Experiment,2021.1.4,359.89865253629745,
images\S8_M_S_01.png,images\S8_M_S_01_scrambled.png,8,sad,-10,male,3,,586,on,2,0.5,0.75,0.5,0.788,3,585,3,1,1,2,2,32,128,163,,,,,,0,58,58,58,,,,,,,,,,,,,,,,,,,,,,,,,,,,,,,,,,,,,,,,,,,,,,,,,,,,,,,,,649.0915389000002,649.5911987,649.5911987,650.3437605999998,650.3437605999998,650.8491701000003,650.8491701000003,651.6433766,651.6433766,None,num_6,0.6148342000005869,651.6433766,649.0915389000002,happy,0,Sad,652.2654021800004,None,None,652.2654021800004,None,,,,,,,,,,,,,,,,,,,,,,,,,,,,,,,,,,,,,,,,,,,,,,,,,,,,,10,001,male,37,600,450,2022_Sep_02_1353,Experiment,2021.1.4,359.89865253629745,
images\S6_M_H_03.png,images\S6_M_H_03_scrambled.png,6,happy,30,male,6,,333,on,2,0.5,0.75,0.5,0.937,3,332,4,1,1,2,2,32,128,166,,,,,,0,59,59,59,,,,,,,,,,,,,,,,,,,,,,,,,,,,,,,,,,,,,,,,,,,,,,,,,,,,,,,,,652.3514727000002,652.8541061999995,652.8541061999995,653.6066509000002,653.6066509000002,654.1092762999997,654.1092762999997,655.0534385000001,655.0534385000001,None,num_6,0.4526701000004323,655.0534385000001,None,happy,0,Happy,655.5312269800002,None,None,655.5312269800002,None,,,,,,,,,,,,,,,,,,,,,,,,,,,,,,,,,,,,,,,,,,,,,,,,,,,,,10,001,male,37,600,450,2022_Sep_02_1353,Experiment,2021.1.4,359.89865253629745,
images\S9_F_H_03.png,images\S9_F_H_03_scrambled.png,9,happy,30,female,6,,471,on,2,0.5,0.75,0.5,0.923,3,470,5,1,2,2,2,32,128,166,,,,,,0,60,60,60,,,,,,,,,,,,,,,,,,,,,,,,,,,,,,,,,,,,,,,,,,,,,,,,,,,,,,,,,655.5838194999997,656.0892247000002,656.0892247000002,656.8418755000002,656.8418755000002,657.3472338000001,657.3472338000001,658.2774741000003,658.2774741000003,None,num_6,0.5007458000000042,658.2774741000003,None,happy,0,Happy,658.7996238400003,None,None,658.7996238400003,None,,,,,,,,,,,,,,,,,,,,,,,,,,,,,,,,,,,,,,,,,,,,,,,,,,,,,10,001,male,37,600,450,2022_Sep_02_1353,Experiment,2021.1.4,359.89865253629745,
images\S6_M_S_03.png,images\S6_M_S_03_scrambled.png,6,sad,-30,male,1,,276,off,1,0.5,0.75,0.5,0.826,3,275,1,1,1,0,0,0,0,1,,,,,,0,61,61,61,,,,,,,,,,,,,,,,,,,,,,,,,,,,,,,,,,,,,,,,,,,,,,,,,,,,,,,,,658.8550214999996,659.3576456000001,659.3576456000001,660.1074212000003,660.1074212000003,660.6072881999999,660.6072881999999,661.4376145999995,661.4376145999995,None,num_4,0.5326751000002332,661.4376145999995,None,sad,0,Sad,661.9874326999998,None,None,661.9874326999998,None,,,,,,,,,,,,,,,,,,,,,,,,,,,,,,,,,,,,,,,,,,,,,,,,,,,,,10,001,male,37,600,450,2022_Sep_02_1353,Experiment,2021.1.4,359.89865253629745,
images\S1_F_S_02.png,images\S1_F_S_02_scrambled.png,1,sad,-20,female,2,,305,on,2,0.5,0.75,0.5,0.855,3,304,1,1,1,2,2,32,128,162,,,,,,0,62,62,62,,,,,,,,,,,,,,,,,,,,,,,,,,,,,,,,,,,,,,,,,,,,,,,,,,,,,,,,,662.0707074000002,662.5733506999995,662.5733506999995,663.3259937000003,663.3259937000003,663.8285163,663.8285163,664.6893570000002,664.6893570000002,None,num_6,0.9207642999999734,664.6893570000002,None,happy,0,Sad,665.6196444800003,None,None,665.6196444800003,None,,,,,,,,,,,,,,,,,,,,,,,,,,,,,,,,,,,,,,,,,,,,,,,,,,,,,10,001,male,37,600,450,2022_Sep_02_1353,Experiment,2021.1.4,359.89865253629745,
images\S2_M_H_02.png,images\S2_M_H_02_scrambled.png,2,happy,20,male,5,,68,on,2,0.5,0.75,0.5,0.816,3,67,2,1,1,2,2,32,128,165,,,,,,0,63,63,63,,,,,,,,,,,,,,,,,,,,,,,,,,,,,,,,,,,,,,,,,,,,,,,,,,,,,,,,,665.6723732,666.1778082999999,666.1778082999999,666.9275482000003,666.9275482000003,667.4301712999995,667.4301712999995,668.2493769000002,668.2493769000002,None,num_6,0.7287297000002582,668.2493769000002,None,happy,0,Happy,669.0075299999999,None,None,669.0075299999999,None,,,,,,,,,,,,,,,,,,,,,,,,,,,,,,,,,,,,,,,,,,,,,,,,,,,,,10,001,male,37,600,450,2022_Sep_02_1353,Experiment,2021.1.4,359.89865253629745,
images\S3_F_S_01.png,images\S3_F_S_01_scrambled.png,3,sad,-10,female,3,,196,on,2,0.5,0.75,0.5,0.876,3,195,3,1,1,2,2,32,128,163,,,,,,0,64,64,64,,,,,,,,,,,,,,,,,,,,,,,,,,,,,,,,,,,,,,,,,,,,,,,,,,,,,,,,,669.0629944000002,669.5684298999995,669.5684298999995,670.3181644999995,670.3181644999995,670.8207915000003,670.8207915000003,671.7038786000003,671.7038786000003,None,num_4,0.4661129999994955,671.7038786000003,None,sad,0,Sad,672.1815203599998,None,None,672.1815203599998,None,,,,,,,,,,,,,,,,,,,,,,,,,,,,,,,,,,,,,,,,,,,,,,,,,,,,,10,001,male,37,600,450,2022_Sep_02_1353,Experiment,2021.1.4,359.89865253629745,
images\blank.jpg,images\blank.jpg,none,none,none,none,0,,631,on,2,0.5,0.75,0.5,0.946,0,630,4,1,1,3,3,48,192,240,,,,,,0,65,65,65,,,,,,,,,,,,,,,,,,,,,,,,,,,,,,,,,,,,,,,,,,,,,,,,,,,,,,,,,672.2679999000002,672.7730056999999,672.7730056999999,673.5255135999996,673.5255135999996,674.0281759999998,674.0281759999998,674.9750318999995,674.9750318999995,674.9750318999995,None,,674.9750318999995,None,miss,0,,677.97416954,None,None,677.97416954,None,,,,,,,,,,,,,,,,,,,,,,,,,,,,,,,,,,,,,,,,,,,,,,,,,,,,,10,001,male,37,600,450,2022_Sep_02_1353,Experiment,2021.1.4,359.89865253629745,
images\S10_M_S_02.png,images\S10_M_S_02_scrambled.png,10,sad,-20,male,2,,419,off,1,0.5,0.75,0.5,0.885,3,418,1,1,1,0,0,0,0,2,,,,,,0,66,66,66,,,,,,,,,,,,,,,,,,,,,,,,,,,,,,,,,,,,,,,,,,,,,,,,,,,,,,,,,678.1241818999997,678.6267539999999,678.6267539999999,679.3764906999995,679.3764906999995,679.8820372,679.8820372,680.7733278999995,680.7733278999995,None,num_4,0.4687285999998494,680.7733278999995,678.1241818999997,sad,0,Sad,681.2537302600002,None,None,681.2537302600002,None,,,,,,,,,,,,,,,,,,,,,,,,,,,,,,,,,,,,,,,,,,,,,,,,,,,,,10,001,male,37,600,450,2022_Sep_02_1353,Experiment,2021.1.4,359.89865253629745,
images\S9_F_S_01.png,images\S9_F_S_01_scrambled.png,9,sad,-10,female,3,,172,off,1,0.5,0.75,0.5,0.777,3,171,2,1,1,0,0,0,0,3,,,,,,0,67,67,67,,,,,,,,,,,,,,,,,,,,,,,,,,,,,,,,,,,,,,,,,,,,,,,,,,,,,,,,,681.3009112,681.8007505999994,681.8007505999994,682.5505561999998,682.5505561999998,683.0503534999998,683.0503534999998,683.8306678999998,683.8306678999998,None,num_6,0.45954600000004575,683.8306678999998,None,happy,0,Sad,684.3000915799998,None,None,684.3000915799998,None,,,,,,,,,,,,,,,,,,,,,,,,,,,,,,,,,,,,,,,,,,,,,,,,,,,,,10,001,male,37,600,450,2022_Sep_02_1353,Experiment,2021.1.4,359.89865253629745,
images\S7_F_H_01.png,images\S7_F_H_01_scrambled.png,7,happy,10,female,4,,37,off,1,0.5,0.75,0.5,0.851,3,36,3,1,1,0,0,0,0,4,,,,,,0,68,68,68,,,,,,,,,,,,,,,,,,,,,,,,,,,,,,,,,,,,,,,,,,,,,,,,,,,,,,,,,684.3582891999995,684.8637258999997,684.8637258999997,685.6190379,685.6190379,686.1216703,686.1216703,686.9769292999999,686.9769292999999,None,num_6,0.44142050000027666,686.9769292999999,None,happy,0,Happy,687.4351784999999,None,None,687.4351784999999,None,,,,,,,,,,,,,,,,,,,,,,,,,,,,,,,,,,,,,,,,,,,,,,,,,,,,,10,001,male,37,600,450,2022_Sep_02_1353,Experiment,2021.1.4,359.89865253629745,
images\S5_F_H_01.png,images\S5_F_H_01_scrambled.png,5,happy,10,female,4,,325,on,2,0.5,0.75,0.5,0.897,3,324,1,1,2,2,2,32,128,164,,,,,,0,69,69,69,,,,,,,,,,,,,,,,,,,,,,,,,,,,,,,,,,,,,,,,,,,,,,,,,,,,,,,,,687.5212071999995,688.0238368999999,688.0238368999999,688.7791762999996,688.7791762999996,689.2818033000003,689.2818033000003,690.1844022999994,690.1844022999994,None,num_6,0.3777941999996983,690.1844022999994,None,happy,0,Happy,690.5759004000001,None,None,690.5759004000001,None,,,,,,,,,,,,,,,,,,,,,,,,,,,,,,,,,,,,,,,,,,,,,,,,,,,,,10,001,male,37,600,450,2022_Sep_02_1353,Experiment,2021.1.4,359.89865253629745,
images\S7_F_S_03.png,images\S7_F_S_03_scrambled.png,7,sad,-30,female,1,,582,on,2,0.5,0.75,0.5,0.888,3,581,2,1,1,2,2,32,128,161,,,,,,0,70,70,70,,,,,,,,,,,,,,,,,,,,,,,,,,,,,,,,,,,,,,,,,,,,,,,,,,,,,,,,,690.6258102000002,691.1313387999999,691.1313387999999,691.8837573000001,691.8837573000001,692.3865116999996,692.3865116999996,693.2778160999997,693.2778160999997,None,num_4,0.41221870000026684,693.2778160999997,None,sad,0,Sad,693.6999004600001,None,None,693.6999004600001,None,,,,,,,,,,,,,,,,,,,,,,,,,,,,,,,,,,,,,,,,,,,,,,,,,,,,,10,001,male,37,600,450,2022_Sep_02_1353,Experiment,2021.1.4,359.89865253629745,
images\S9_F_H_02.png,images\S9_F_H_02_scrambled.png,9,happy,20,female,5,,470,on,2,0.5,0.75,0.5,0.942,3,469,3,1,1,2,2,32,128,165,,,,,,0,71,71,71,,,,,,,,,,,,,,,,,,,,,,,,,,,,,,,,,,,,,,,,,,,,,,,,,,,,,,,,,693.7498575999998,694.2525366999998,694.2525366999998,695.0022423,695.0022423,695.5020921999994,695.5020921999994,696.4463985000002,696.4463985000002,None,num_6,0.3958093999999619,696.4463985000002,None,happy,0,Happy,696.8656682799997,None,None,696.8656682799997,None,,,,,,,,,,,,,,,,,,,,,,,,,,,,,,,,,,,,,,,,,,,,,,,,,,,,,10,001,male,37,600,450,2022_Sep_02_1353,Experiment,2021.1.4,359.89865253629745,
images\S9_F_H_03.png,images\S9_F_H_03_scrambled.png,9,happy,30,female,6,,111,on,2,0.5,0.75,0.5,0.864,3,110,4,2,1,2,2,32,128,166,,,,,,0,72,72,72,,,,,,,,,,,,,,,,,,,,,,,,,,,,,,,,,,,,,,,,,,,,,,,,,,,,,,,,,696.9211102999998,697.4237229,697.4237229,698.1734911000003,698.1734911000003,698.6789221999998,698.6789221999998,699.5481136999997,699.5481136999997,None,num_6,0.3580288000002838,699.5481136999997,None,happy,0,Happy,699.9286232199998,None,None,699.9286232199998,None,,,,,,,,,,,,,,,,,,,,,,,,,,,,,,,,,,,,,,,,,,,,,,,,,,,,,10,001,male,37,600,450,2022_Sep_02_1353,Experiment,2021.1.4,359.89865253629745,
images\S1_F_H_02.png,images\S1_F_H_02_scrambled.png,1,happy,20,female,5,,422,on,2,0.5,0.75,0.5,0.879,3,421,5,1,1,2,2,32,128,165,,,,,,0,73,73,73,,,,,,,,,,,,,,,,,,,,,,,,,,,,,,,,,,,,,,,,,,,,,,,,,,,,,,,,,700.0006489999996,700.5033861000002,700.5033861000002,701.2558935999996,701.2558935999996,701.7585098,701.7585098,702.6415675999997,702.6415675999997,None,num_6,0.3766229000002568,702.6415675999997,None,happy,0,Happy,703.0275955599999,None,None,703.0275955599999,None,,,,,,,,,,,,,,,,,,,,,,,,,,,,,,,,,,,,,,,,,,,,,,,,,,,,,10,001,male,37,600,450,2022_Sep_02_1353,Experiment,2021.1.4,359.89865253629745,
images\S3_F_H_03.png,images\S3_F_H_03_scrambled.png,3,happy,30,female,6,,195,on,2,0.5,0.75,0.5,0.802,3,194,6,1,1,2,2,32,128,166,,,,,,0,74,74,74,,,,,,,,,,,,,,,,,,,,,,,,,,,,,,,,,,,,,,,,,,,,,,,,,,,,,,,,,703.1108634000002,703.6134971000001,703.6134971000001,704.3688756000001,704.3688756000001,704.8714443999997,704.8714443999997,705.6767898999997,705.6767898999997,None,num_6,0.38146560000041063,705.6767898999997,None,happy,0,Happy,706.08233472,None,None,706.08233472,None,,,,,,,,,,,,,,,,,,,,,,,,,,,,,,,,,,,,,,,,,,,,,,,,,,,,,10,001,male,37,600,450,2022_Sep_02_1353,Experiment,2021.1.4,359.89865253629745,
images\S5_F_S_01.png,images\S5_F_S_01_scrambled.png,5,sad,-10,female,3,,268,off,1,0.5,0.75,0.5,0.792,3,267,1,1,1,0,0,0,0,3,,,,,,0,75,75,75,,,,,,,,,,,,,,,,,,,,,,,,,,,,,,,,,,,,,,,,,,,,,,,,,,,,,,,,,706.1932566999994,706.6986993999999,706.6986993999999,707.4512546999995,707.4512546999995,707.9511006000002,707.9511006000002,708.7481312,708.7481312,None,num_6,0.9738764000003357,708.7481312,None,happy,0,Sad,709.7283009799999,None,None,709.7283009799999,None,,,,,,,,,,,,,,,,,,,,,,,,,,,,,,,,,,,,,,,,,,,,,,,,,,,,,10,001,male,37,600,450,2022_Sep_02_1353,Experiment,2021.1.4,359.89865253629745,
images\S1_F_S_01.png,images\S1_F_S_01_scrambled.png,1,sad,-10,female,3,,64,on,2,0.5,0.75,0.5,0.879,3,63,1,1,2,2,2,32,128,163,,,,,,0,76,76,76,,,,,,,,,,,,,,,,,,,,,,,,,,,,,,,,,,,,,,,,,,,,,,,,,,,,,,,,,709.7754890999995,710.2753364,710.2753364,711.0306682999999,711.0306682999999,711.5333486,711.5333486,712.4191604999996,712.4191604999996,None,num_6,0.4470485000001645,712.4191604999996,None,happy,0,Sad,712.8745598800001,None,None,712.8745598800001,None,,,,,,,,,,,,,,,,,,,,,,,,,,,,,,,,,,,,,,,,,,,,,,,,,,,,,10,001,male,37,600,450,2022_Sep_02_1353,Experiment,2021.1.4,359.89865253629745,
images\S7_F_H_03.png,images\S7_F_H_03_scrambled.png,7,happy,30,female,6,,279,off,1,0.5,0.75,0.5,0.945,3,278,1,1,1,0,0,0,0,6,,,,,,0,77,77,77,,,,,,,,,,,,,,,,,,,,,,,,,,,,,,,,,,,,,,,,,,,,,,,,,,,,,,,,,712.9606168999999,713.4632764999997,713.4632764999997,714.2158035000002,714.2158035000002,714.7184766,714.7184766,715.6681925000003,715.6681925000003,None,num_6,0.4298729000001913,715.6681925000003,None,happy,0,Happy,716.1096863600004,None,None,716.1096863600004,None,,,,,,,,,,,,,,,,,,,,,,,,,,,,,,,,,,,,,,,,,,,,,,,,,,,,,10,001,male,37,600,450,2022_Sep_02_1353,Experiment,2021.1.4,359.89865253629745,
images\S2_M_H_03.png,images\S2_M_H_03_scrambled.png,2,happy,30,male,6,,249,off,1,0.5,0.75,0.5,0.794,3,248,2,1,2,0,0,0,0,6,,,,,,0,78,78,78,,,,,,,,,,,,,,,,,,,,,,,,,,,,,,,,,,,,,,,,,,,,,,,,,,,,,,,,,716.1568615999995,716.6595090999999,716.6595090999999,717.4120536,717.4120536,717.9146785000003,717.9146785000003,718.7144255000003,718.7144255000003,None,num_6,0.35170649999963643,718.7144255000003,None,happy,0,Happy,719.0866214800003,None,None,719.0866214800003,None,,,,,,,,,,,,,,,,,,,,,,,,,,,,,,,,,,,,,,,,,,,,,,,,,,,,,10,001,male,37,600,450,2022_Sep_02_1353,Experiment,2021.1.4,359.89865253629745,
images\S8_M_S_01.png,images\S8_M_S_01_scrambled.png,8,sad,-10,male,3,,286,off,1,0.5,0.75,0.5,0.851,3,285,3,1,1,0,0,0,0,3,,,,,,0,79,79,79,,,,,,,,,,,,,,,,,,,,,,,,,,,,,,,,,,,,,,,,,,,,,,,,,,,,,,,,,719.1392766999998,719.6419024999996,719.6419024999996,720.3944747999994,720.3944747999994,720.8971187999996,720.8971187999996,721.7524886000001,721.7524886000001,None,num_6,0.7696015000001353,721.7524886000001,None,happy,0,Sad,722.5299780199999,None,None,722.5299780199999,None,,,,,,,,,,,,,,,,,,,,,,,,,,,,,,,,,,,,,,,,,,,,,,,,,,,,,10,001,male,37,600,450,2022_Sep_02_1353,Experiment,2021.1.4,359.89865253629745,
images\S3_F_S_03.png,images\S3_F_S_03_scrambled.png,3,sad,-30,female,1,,78,on,2,0.5,0.75,0.5,0.878,3,77,1,1,1,2,2,32,128,161,,,,,,0,80,80,80,,,,,,,,,,,,,,,,,,,,,,,,,,,,,,,,,,,,,,,,,,,,,,,,,,,,,,,,,722.5909954999997,723.0963902000003,723.0963902000003,723.8489663999999,723.8489663999999,724.3515597999994,724.3515597999994,725.2318883999997,725.2318883999997,None,num_4,0.4343183000000863,725.2318883999997,None,sad,0,Sad,725.6929517200002,None,None,725.6929517200002,None,,,,,,,,,,,,,,,,,,,,,,,,,,,,,,,,,,,,,,,,,,,,,,,,,,,,,10,001,male,37,600,450,2022_Sep_02_1353,Experiment,2021.1.4,359.89865253629745,
images\S10_M_S_02.png,images\S10_M_S_02_scrambled.png,10,sad,-20,male,2,,119,on,2,0.5,0.75,0.5,0.901,3,118,2,1,1,2,2,32,128,162,,,,,,0,81,81,81,,,,,,,,,,,,,,,,,,,,,,,,,,,,,,,,,,,,,,,,,,,,,,,,,,,,,,,,,725.7455755999999,726.2482829,726.2482829,727.0035855999995,727.0035855999995,727.5061571999995,727.5061571999995,728.4142506999997,728.4142506999997,None,num_6,0.40387379999992845,728.4142506999997,None,happy,0,Sad,728.8224355799998,None,None,728.8224355799998,None,,,,,,,,,,,,,,,,,,,,,,,,,,,,,,,,,,,,,,,,,,,,,,,,,,,,,10,001,male,37,600,450,2022_Sep_02_1353,Experiment,2021.1.4,359.89865253629745,
images\S4_M_H_02.png,images\S4_M_H_02_scrambled.png,4,happy,20,male,5,,20,off,1,0.5,0.75,0.5,0.756,3,19,1,1,1,0,0,0,0,5,,,,,,0,82,82,82,,,,,,,,,,,,,,,,,,,,,,,,,,,,,,,,,,,,,,,,,,,,,,,,,,,,,,,,,728.9084922000002,729.4083408999995,729.4083408999995,730.1637284999997,730.1637284999997,730.6691044999998,730.6691044999998,731.4299726999998,731.4299726999998,None,num_6,1.5160648999999466,731.4299726999998,None,happy,0,Happy,732.9572541599999,None,None,732.9572541599999,None,,,,,,,,,,,,,,,,,,,,,,,,,,,,,,,,,,,,,,,,,,,,,,,,,,,,,10,001,male,37,600,450,2022_Sep_02_1353,Experiment,2021.1.4,359.89865253629745,
images\S9_F_H_02.png,images\S9_F_H_02_scrambled.png,9,happy,20,female,5,,290,off,1,0.5,0.75,0.5,0.83,3,289,2,1,2,0,0,0,0,5,,,,,,0,83,83,83,,,,,,,,,,,,,,,,,,,,,,,,,,,,,,,,,,,,,,,,,,,,,,,,,,,,,,,,,733.0044713999996,733.5098799999996,733.5098799999996,734.2651704999998,734.2651704999998,734.7678956999998,734.7678956999998,735.6037177999997,735.6037177999997,None,num_6,0.36644169999999576,735.6037177999997,None,happy,0,Happy,735.9869226000001,None,None,735.9869226000001,None,,,,,,,,,,,,,,,,,,,,,,,,,,,,,,,,,,,,,,,,,,,,,,,,,,,,,10,001,male,37,600,450,2022_Sep_02_1353,Experiment,2021.1.4,359.89865253629745,
images\S1_F_S_01.png,images\S1_F_S_01_scrambled.png,1,sad,-10,female,3,,184,on,2,0.5,0.75,0.5,0.826,3,183,1,1,1,2,2,32,128,163,,,,,,0,84,84,84,,,,,,,,,,,,,,,,,,,,,,,,,,,,,,,,,,,,,,,,,,,,,,,,,,,,,,,,,736.0340863000001,736.5395130999996,736.5395130999996,737.2948389000003,737.2948389000003,737.8002274999999,737.8002274999999,738.6305203000002,738.6305203000002,None,num_6,0.42765659999986383,738.6305203000002,None,happy,0,Sad,739.0665008800001,None,None,739.0665008800001,None,,,,,,,,,,,,,,,,,,,,,,,,,,,,,,,,,,,,,,,,,,,,,,,,,,,,,10,001,male,37,600,450,2022_Sep_02_1353,Experiment,2021.1.4,359.89865253629745,
images\S6_M_S_02.png,images\S6_M_S_02_scrambled.png,6,sad,-20,male,2,,515,off,1,0.5,0.75,0.5,0.768,3,514,1,1,1,0,0,0,0,2,,,,,,0,85,85,85,,,,,,,,,,,,,,,,,,,,,,,,,,,,,,,,,,,,,,,,,,,,,,,,,,,,,,,,,739.1136948000003,739.6163246999995,739.6163246999995,740.3688623999997,740.3688623999997,740.8742928000001,740.8742928000001,741.6462493999998,741.6462493999998,None,num_4,1.395932599999469,741.6462493999998,None,sad,0,Sad,743.05986624,None,None,743.05986624,None,,,,,,,,,,,,,,,,,,,,,,,,,,,,,,,,,,,,,,,,,,,,,,,,,,,,,10,001,male,37,600,450,2022_Sep_02_1353,Experiment,2021.1.4,359.89865253629745,
images\S5_F_H_03.png,images\S5_F_H_03_scrambled.png,5,happy,30,female,6,,267,off,1,0.5,0.75,0.5,0.908,3,266,2,1,1,0,0,0,0,6,,,,,,0,86,86,86,,,,,,,,,,,,,,,,,,,,,,,,,,,,,,,,,,,,,,,,,,,,,,,,,,,,,,,,,743.1707829999996,743.6734574000002,743.6734574000002,744.4287846999996,744.4287846999996,744.9341656999995,744.9341656999995,745.8478626999995,745.8478626999995,None,num_6,0.34632369999962975,745.8478626999995,None,happy,0,Happy,746.2087750600002,None,None,746.2087750600002,None,,,,,,,,,,,,,,,,,,,,,,,,,,,,,,,,,,,,,,,,,,,,,,,,,,,,,10,001,male,37,600,450,2022_Sep_02_1353,Experiment,2021.1.4,359.89865253629745,
images\S10_M_H_03.png,images\S10_M_H_03_scrambled.png,10,happy,30,male,6,,117,on,2,0.5,0.75,0.5,0.792,3,116,1,1,2,2,2,32,128,166,,,,,,0,87,87,87,,,,,,,,,,,,,,,,,,,,,,,,,,,,,,,,,,,,,,,,,,,,,,,,,,,,,,,,,746.2587305999996,746.7585663999998,746.7585663999998,747.5083347,747.5083347,748.0137880000002,748.0137880000002,748.8051592000002,748.8051592000002,None,num_6,0.41305449999981647,748.8051592000002,None,happy,0,Happy,749.23572584,None,None,749.23572584,None,,,,,,,,,,,,,,,,,,,,,,,,,,,,,,,,,,,,,,,,,,,,,,,,,,,,,10,001,male,37,600,450,2022_Sep_02_1353,Experiment,2021.1.4,359.89865253629745,
images\S8_M_S_02.png,images\S8_M_S_02_scrambled.png,8,sad,-20,male,2,,227,on,2,0.5,0.75,0.5,0.847,3,226,2,1,1,2,2,32,128,162,,,,,,0,88,88,88,,,,,,,,,,,,,,,,,,,,,,,,,,,,,,,,,,,,,,,,,,,,,,,,,,,,,,,,,749.3466589,749.8465151999999,749.8465151999999,750.6019690000003,750.6019690000003,751.1044857999996,751.1044857999996,751.9514208999999,751.9514208999999,None,num_4,1.1706205999998929,751.9514208999999,None,sad,0,Sad,753.1344208600002,None,None,753.1344208600002,None,,,,,,,,,,,,,,,,,,,,,,,,,,,,,,,,,,,,,,,,,,,,,,,,,,,,,10,001,male,37,600,450,2022_Sep_02_1353,Experiment,2021.1.4,359.89865253629745,
images\S6_M_S_02.png,images\S6_M_S_02_scrambled.png,6,sad,-20,male,2,,155,off,1,0.5,0.75,0.5,0.773,3,154,1,1,2,0,0,0,0,2,,,,,,0,89,89,89,,,,,,,,,,,,,,,,,,,,,,,,,,,,,,,,,,,,,,,,,,,,,,,,,,,,,,,,,753.1843809000002,753.6842141999996,753.6842141999996,754.4340179000001,754.4340179000001,754.9366517999997,754.9366517999997,755.7141890000003,755.7141890000003,None,num_4,0.9440875999998752,755.7141890000003,None,sad,0,Sad,756.67222776,None,None,756.67222776,None,,,,,,,,,,,,,,,,,,,,,,,,,,,,,,,,,,,,,,,,,,,,,,,,,,,,,10,001,male,37,600,450,2022_Sep_02_1353,Experiment,2021.1.4,359.89865253629745,
images\S8_M_S_02.png,images\S8_M_S_02_scrambled.png,8,sad,-20,male,2,,527,off,1,0.5,0.75,0.5,0.836,3,526,2,1,3,0,0,0,0,2,,,,,,0,90,90,90,,,,,,,,,,,,,,,,,,,,,,,,,,,,,,,,,,,,,,,,,,,,,,,,,,,,,,,,,756.7221708999996,757.2248147999999,757.2248147999999,757.9801386999998,757.9801386999998,758.4828904999995,758.4828904999995,759.3241919000002,759.3241919000002,None,num_6,1.0540153000001737,759.3241919000002,None,happy,0,Sad,760.3877360800002,None,None,760.3877360800002,None,,,,,,,,,,,,,,,,,,,,,,,,,,,,,,,,,,,,,,,,,,,,,,,,,,,,,10,001,male,37,600,450,2022_Sep_02_1353,Experiment,2021.1.4,359.89865253629745,
images\S4_M_S_03.png,images\S4_M_S_03_scrambled.png,4,sad,-30,male,1,,444,on,2,0.5,0.75,0.5,0.848,3,443,1,1,1,2,2,32,128,161,,,,,,0,91,91,91,,,,,,,,,,,,,,,,,,,,,,,,,,,,,,,,,,,,,,,,,,,,,,,,,,,,,,,,,760.4377028999997,760.9403315999998,760.9403315999998,761.6900877999997,761.6900877999997,762.1927241000003,762.1927241000003,763.045247,763.045247,None,num_4,0.4208777000003465,763.045247,None,sad,0,Sad,763.4868639800002,None,None,763.4868639800002,None,,,,,,,,,,,,,,,,,,,,,,,,,,,,,,,,,,,,,,,,,,,,,,,,,,,,,10,001,male,37,600,450,2022_Sep_02_1353,Experiment,2021.1.4,359.89865253629745,
images\S2_M_H_02.png,images\S2_M_H_02_scrambled.png,2,happy,20,male,5,,488,off,1,0.5,0.75,0.5,0.94,3,487,1,1,1,0,0,0,0,5,,,,,,0,92,92,92,,,,,,,,,,,,,,,,,,,,,,,,,,,,,,,,,,,,,,,,,,,,,,,,,,,,,,,,,763.5395530999995,764.0449520000002,764.0449520000002,764.7976006999997,764.7976006999997,765.3029780999996,765.3029780999996,766.2498274999998,766.2498274999998,None,num_6,0.40020089999961783,766.2498274999998,None,happy,0,Happy,766.6691730000002,None,None,766.6691730000002,None,,,,,,,,,,,,,,,,,,,,,,,,,,,,,,,,,,,,,,,,,,,,,,,,,,,,,10,001,male,37,600,450,2022_Sep_02_1353,Experiment,2021.1.4,359.89865253629745,
images\S5_F_S_02.png,images\S5_F_S_02_scrambled.png,5,sad,-20,female,2,,569,on,2,0.5,0.75,0.5,0.903,3,568,1,1,1,2,2,32,128,162,,,,,,0,93,93,93,,,,,,,,,,,,,,,,,,,,,,,,,,,,,,,,,,,,,,,,,,,,,,,,,,,,,,,,,766.7190920000003,767.2217224999995,767.2217224999995,767.9714963999995,767.9714963999995,768.4713388,768.4713388,769.3767370999994,769.3767370999994,None,num_6,0.4252560999993875,769.3767370999994,None,happy,0,Sad,769.8098369799995,None,None,769.8098369799995,None,,,,,,,,,,,,,,,,,,,,,,,,,,,,,,,,,,,,,,,,,,,,,,,,,,,,,10,001,male,37,600,450,2022_Sep_02_1353,Experiment,2021.1.4,359.89865253629745,
images\S9_F_S_03.png,images\S9_F_S_03_scrambled.png,9,sad,-30,female,1,,174,off,1,0.5,0.75,0.5,0.813,3,173,1,1,1,0,0,0,0,1,,,,,,0,94,94,94,,,,,,,,,,,,,,,,,,,,,,,,,,,,,,,,,,,,,,,,,,,,,,,,,,,,,,,,,769.8931348999995,770.3985881999997,770.3985881999997,771.1483102000002,771.1483102000002,771.6537395999994,771.6537395999994,772.4730334999995,772.4730334999995,None,num_4,0.39306049999959214,772.4730334999995,None,sad,0,Sad,772.8978946399995,None,None,772.8978946399995,None,,,,,,,,,,,,,,,,,,,,,,,,,,,,,,,,,,,,,,,,,,,,,,,,,,,,,10,001,male,37,600,450,2022_Sep_02_1353,Experiment,2021.1.4,359.89865253629745,
images\S7_F_S_01.png,images\S7_F_S_01_scrambled.png,7,sad,-10,female,3,,400,off,1,0.5,0.75,0.5,0.92,3,399,2,1,1,0,0,0,0,3,,,,,,0,95,95,95,,,,,,,,,,,,,,,,,,,,,,,,,,,,,,,,,,,,,,,,,,,,,,,,,,,,,,,,,772.9533956999994,773.4531544000001,773.4531544000001,774.2029317999995,774.2029317999995,774.7055340999996,774.7055340999996,775.6274862999999,775.6274862999999,None,num_4,0.35067440000057104,775.6274862999999,None,sad,0,Sad,775.9970428800002,None,None,775.9970428800002,None,,,,,,,,,,,,,,,,,,,,,,,,,,,,,,,,,,,,,,,,,,,,,,,,,,,,,10,001,male,37,600,450,2022_Sep_02_1353,Experiment,2021.1.4,359.89865253629745,
images\S3_F_S_01.png,images\S3_F_S_01_scrambled.png,3,sad,-10,female,3,,16,off,1,0.5,0.75,0.5,0.812,3,15,3,1,2,0,0,0,0,3,,,,,,0,96,96,96,,,,,,,,,,,,,,,,,,,,,,,,,,,,,,,,,,,,,,,,,,,,,,,,,,,,,,,,,776.0552357999995,776.5605305999998,776.5605305999998,777.3131738000002,777.3131738000002,777.8129061999998,777.8129061999998,778.6293178999995,778.6293178999995,None,num_4,0.3888442000006762,778.6293178999995,None,sad,0,Sad,779.0460392800001,None,None,779.0460392800001,None,,,,,,,,,,,,,,,,,,,,,,,,,,,,,,,,,,,,,,,,,,,,,,,,,,,,,10,001,male,37,600,450,2022_Sep_02_1353,Experiment,2021.1.4,359.89865253629745,
images\S8_M_S_02.png,images\S8_M_S_02_scrambled.png,8,sad,-20,male,2,,107,on,2,0.5,0.75,0.5,0.934,3,106,1,1,1,2,2,32,128,162,,,,,,0,97,97,97,,,,,,,,,,,,,,,,,,,,,,,,,,,,,,,,,,,,,,,,,,,,,,,,,,,,,,,,,779.0986326000002,779.6012730000002,779.6012730000002,780.3538250000001,780.3538250000001,780.8592442999998,780.8592442999998,781.7950427999995,781.7950427999995,None,num_4,0.9271135999997568,781.7950427999995,None,sad,0,Sad,782.7449342399998,None,None,782.7449342399998,None,,,,,,,,,,,,,,,,,,,,,,,,,,,,,,,,,,,,,,,,,,,,,,,,,,,,,10,001,male,37,600,450,2022_Sep_02_1353,Experiment,2021.1.4,359.89865253629745,
images\S2_M_S_03.png,images\S2_M_S_03_scrambled.png,2,sad,-30,male,1,,552,on,2,0.5,0.75,0.5,0.782,3,551,2,1,1,2,2,32,128,161,,,,,,0,98,98,98,,,,,,,,,,,,,,,,,,,,,,,,,,,,,,,,,,,,,,,,,,,,,,,,,,,,,,,,,782.7975753999999,783.2973365999997,783.2973365999997,784.0471372000002,784.0471372000002,784.5497576999996,784.5497576999996,785.3384396000001,785.3384396000001,None,num_4,0.40759560000060446,785.3384396000001,None,sad,0,Sad,785.7577293599996,None,None,785.7577293599996,None,,,,,,,,,,,,,,,,,,,,,,,,,,,,,,,,,,,,,,,,,,,,,,,,,,,,,10,001,male,37,600,450,2022_Sep_02_1353,Experiment,2021.1.4,359.89865253629745,
images\S7_F_S_02.png,images\S7_F_S_02_scrambled.png,7,sad,-20,female,2,,221,on,2,0.5,0.75,0.5,0.787,3,220,3,1,1,2,2,32,128,162,,,,,,0,99,99,99,,,,,,,,,,,,,,,,,,,,,,,,,,,,,,,,,,,,,,,,,,,,,,,,,,,,,,,,,785.8076820999995,786.3075227999998,786.3075227999998,787.0600949,787.0600949,787.5627376000002,787.5627376000002,788.3541573000002,788.3541573000002,None,num_4,0.45594139999957406,788.3541573000002,None,sad,0,Sad,788.8318609200002,None,None,788.8318609200002,None,,,,,,,,,,,,,,,,,,,,,,,,,,,,,,,,,,,,,,,,,,,,,,,,,,,,,10,001,male,37,600,450,2022_Sep_02_1353,Experiment,2021.1.4,359.89865253629745,
images\S1_F_S_01.png,images\S1_F_S_01_scrambled.png,1,sad,-10,female,3,,244,off,1,0.5,0.75,0.5,0.818,3,243,1,1,1,0,0,0,0,3,,,,,,0,100,100,100,,,,,,,,,,,,,,,,,,,,,,,,,,,,,,,,,,,,,,,,,,,,,,,,,,,,,,,,,788.8845161999998,789.3872707999999,789.3872707999999,790.1397074999995,790.1397074999995,790.6424424999996,790.6424424999996,791.4671806999995,791.4671806999995,None,num_6,0.4149110999996992,791.4671806999995,None,happy,0,Sad,791.8863897799997,None,None,791.8863897799997,None,,,,,,,,,,,,,,,,,,,,,,,,,,,,,,,,,,,,,,,,,,,,,,,,,,,,,10,001,male,37,600,450,2022_Sep_02_1353,Experiment,2021.1.4,359.89865253629745,
images\S2_M_S_03.png,images\S2_M_S_03_scrambled.png,2,sad,-30,male,1,,132,off,1,0.5,0.75,0.5,0.817,3,131,2,1,1,0,0,0,0,1,,,,,,0,101,101,101,,,,,,,,,,,,,,,,,,,,,,,,,,,,,,,,,,,,,,,,,,,,,,,,,,,,,,,,,791.9363492000002,792.4361939999999,792.4361939999999,793.1915308999996,793.1915308999996,793.6941907999999,793.6941907999999,794.5133903999995,794.5133903999995,None,num_4,0.32867590000023483,794.5133903999995,None,sad,0,Sad,794.8605458000002,None,None,794.8605458000002,None,,,,,,,,,,,,,,,,,,,,,,,,,,,,,,,,,,,,,,,,,,,,,,,,,,,,,10,001,male,37,600,450,2022_Sep_02_1353,Experiment,2021.1.4,359.89865253629745,
images\S8_M_S_03.png,images\S8_M_S_03_scrambled.png,8,sad,-30,male,1,,108,on,2,0.5,0.75,0.5,0.945,3,107,1,1,2,2,2,32,128,161,,,,,,0,102,102,102,,,,,,,,,,,,,,,,,,,,,,,,,,,,,,,,,,,,,,,,,,,,,,,,,,,,,,,,,794.9465512999996,795.4491575000002,795.4491575000002,796.2045115999999,796.2045115999999,796.7099068999996,796.7099068999996,797.6596203999998,797.6596203999998,None,num_4,0.37441599999965547,797.6596203999998,None,sad,0,Sad,798.0567794200002,None,None,798.0567794200002,None,,,,,,,,,,,,,,,,,,,,,,,,,,,,,,,,,,,,,,,,,,,,,,,,,,,,,10,001,male,37,600,450,2022_Sep_02_1353,Experiment,2021.1.4,359.89865253629745,
images\blank.jpg,images\blank.jpg,none,none,none,none,0,,610,on,2,0.5,0.75,0.5,0.752,0,609,2,1,1,3,3,48,192,240,,,,,,0,103,103,103,,,,,,,,,,,,,,,,,,,,,,,,,,,,,,,,,,,,,,,,,,,,,,,,,,,,,,,,,798.1487468999994,798.6509653000003,798.6509653000003,799.4035027999998,799.4035027999998,799.9089414,799.9089414,800.6615012000002,800.6615012000002,800.6615012000002,None,,800.6615012000002,None,miss,0,,803.6605485399998,None,None,803.6605485399998,None,,,,,,,,,,,,,,,,,,,,,,,,,,,,,,,,,,,,,,,,,,,,,,,,,,,,,10,001,male,37,600,450,2022_Sep_02_1353,Experiment,2021.1.4,359.89865253629745,
images\S9_F_S_02.png,images\S9_F_S_02_scrambled.png,9,sad,-20,female,2,,113,on,2,0.5,0.75,0.5,0.805,3,112,3,1,1,2,2,32,128,162,,,,,,0,104,104,104,,,,,,,,,,,,,,,,,,,,,,,,,,,,,,,,,,,,,,,,,,,,,,,,,,,,,,,,,803.7746850000003,804.2798101999997,804.2798101999997,805.0323544000003,805.0323544000003,805.5378558000002,805.5378558000002,806.3486444,806.3486444,None,num_6,0.349468500000512,806.3486444,803.7746850000003,happy,0,Sad,806.7068448799996,None,None,806.7068448799996,None,,,,,,,,,,,,,,,,,,,,,,,,,,,,,,,,,,,,,,,,,,,,,,,,,,,,,10,001,male,37,600,450,2022_Sep_02_1353,Experiment,2021.1.4,359.89865253629745,
images\blank.jpg,images\blank.jpg,none,none,none,none,0,,621,on,2,0.5,0.75,0.5,0.827,0,620,4,1,1,3,3,48,192,240,,,,,,0,105,105,105,,,,,,,,,,,,,,,,,,,,,,,,,,,,,,,,,,,,,,,,,,,,,,,,,,,,,,,,,806.7930852999998,807.2983715999999,807.2983715999999,808.0536808999996,808.0536808999996,808.5590627000001,808.5590627000001,809.3865980999999,809.3865980999999,809.3865980999999,None,,809.3865980999999,None,miss,0,,812.3884203399996,None,None,812.3884203399996,None,,,,,,,,,,,,,,,,,,,,,,,,,,,,,,,,,,,,,,,,,,,,,,,,,,,,,10,001,male,37,600,450,2022_Sep_02_1353,Experiment,2021.1.4,359.89865253629745,
images\S1_F_H_01.png,images\S1_F_H_01_scrambled.png,1,happy,10,female,4,,61,on,2,0.5,0.75,0.5,0.779,3,60,5,1,1,2,2,32,128,164,,,,,,0,106,106,106,,,,,,,,,,,,,,,,,,,,,,,,,,,,,,,,,,,,,,,,,,,,,,,,,,,,,,,,,812.5356602000002,813.0382885999998,813.0382885999998,813.7907595999995,813.7907595999995,814.2933661999996,814.2933661999996,815.0792830999999,815.0792830999999,None,num_6,0.3869318999995812,815.0792830999999,812.5356602000002,happy,0,Happy,815.47637776,None,None,815.47637776,None,,,,,,,,,,,,,,,,,,,,,,,,,,,,,,,,,,,,,,,,,,,,,,,,,,,,,10,001,male,37,600,450,2022_Sep_02_1353,Experiment,2021.1.4,359.89865253629745,
images\S8_M_H_02.png,images\S8_M_H_02_scrambled.png,8,happy,20,male,5,,164,off,1,0.5,0.75,0.5,0.921,3,163,1,1,1,0,0,0,0,5,,,,,,0,107,107,107,,,,,,,,,,,,,,,,,,,,,,,,,,,,,,,,,,,,,,,,,,,,,,,,,,,,,,,,,815.5263285999999,816.0289877999994,816.0289877999994,816.7842995000001,816.7842995000001,817.2869337000002,817.2869337000002,818.2116533999997,818.2116533999997,None,num_6,0.7903367999997499,818.2116533999997,None,happy,0,Happy,819.0141801600001,None,None,819.0141801600001,None,,,,,,,,,,,,,,,,,,,,,,,,,,,,,,,,,,,,,,,,,,,,,,,,,,,,,10,001,male,37,600,450,2022_Sep_02_1353,Experiment,2021.1.4,359.89865253629745,
images\S9_F_H_01.png,images\S9_F_H_01_scrambled.png,9,happy,10,female,4,,589,on,2,0.5,0.75,0.5,0.833,3,588,1,1,1,2,2,32,128,164,,,,,,0,108,108,108,,,,,,,,,,,,,,,,,,,,,,,,,,,,,,,,,,,,,,,,,,,,,,,,,,,,,,,,,819.0974526999998,819.6029840000001,819.6029840000001,820.3554094000001,820.3554094000001,820.8581181,820.8581181,821.6939176999995,821.6939176999995,None,num_6,0.38036430000011023,821.6939176999995,None,happy,0,Happy,822.08822116,None,None,822.08822116,None,,,,,,,,,,,,,,,,,,,,,,,,,,,,,,,,,,,,,,,,,,,,,,,,,,,,,10,001,male,37,600,450,2022_Sep_02_1353,Experiment,2021.1.4,359.89865253629745,
images\S2_M_S_02.png,images\S2_M_S_02_scrambled.png,2,sad,-20,male,2,,371,off,1,0.5,0.75,0.5,0.819,3,370,1,1,1,0,0,0,0,2,,,,,,0,109,109,109,,,,,,,,,,,,,,,,,,,,,,,,,,,,,,,,,,,,,,,,,,,,,,,,,,,,,,,,,822.1381903000001,822.6408074999999,822.6408074999999,823.3933594999999,823.3933594999999,823.8987937000002,823.8987937000002,824.7235529,824.7235529,None,num_6,0.76673479999954,824.7235529,None,happy,0,Sad,825.4982766799999,None,None,825.4982766799999,None,,,,,,,,,,,,,,,,,,,,,,,,,,,,,,,,,,,,,,,,,,,,,,,,,,,,,10,001,male,37,600,450,2022_Sep_02_1353,Experiment,2021.1.4,359.89865253629745,
images\S5_F_H_01.png,images\S5_F_H_01_scrambled.png,5,happy,10,female,4,,385,off,1,0.5,0.75,0.5,0.851,3,384,2,1,1,0,0,0,0,4,,,,,,0,110,110,110,,,,,,,,,,,,,,,,,,,,,,,,,,,,,,,,,,,,,,,,,,,,,,,,,,,,,,,,,825.5482524999998,826.0508743,826.0508743,826.8062012999999,826.8062012999999,827.3088613,827.3088613,828.1641488999994,828.1641488999994,None,num_6,0.4059486999994988,828.1641488999994,None,happy,0,Happy,828.5834608599997,None,None,828.5834608599997,None,,,,,,,,,,,,,,,,,,,,,,,,,,,,,,,,,,,,,,,,,,,,,,,,,,,,,10,001,male,37,600,450,2022_Sep_02_1353,Experiment,2021.1.4,359.89865253629745,
images\S2_M_H_03.png,images\S2_M_H_03_scrambled.png,2,happy,30,male,6,,9,off,1,0.5,0.75,0.5,0.834,3,8,3,1,1,0,0,0,0,6,,,,,,0,111,111,111,,,,,,,,,,,,,,,,,,,,,,,,,,,,,,,,,,,,,,,,,,,,,,,,,,,,,,,,,828.6306380999995,829.1304787999998,829.1304787999998,829.8831485999999,829.8831485999999,830.3884827000002,830.3884827000002,831.2243253999995,831.2243253999995,None,num_6,0.39366919999974925,831.2243253999995,None,happy,0,Happy,831.6297453599999,None,None,831.6297453599999,None,,,,,,,,,,,,,,,,,,,,,,,,,,,,,,,,,,,,,,,,,,,,,,,,,,,,,10,001,male,37,600,450,2022_Sep_02_1353,Experiment,2021.1.4,359.89865253629745,
images\S2_M_S_02.png,images\S2_M_S_02_scrambled.png,2,sad,-20,male,2,,311,on,2,0.5,0.75,0.5,0.863,3,310,1,2,1,2,2,32,128,162,,,,,,0,112,112,112,,,,,,,,,,,,,,,,,,,,,,,,,,,,,,,,,,,,,,,,,,,,,,,,,,,,,,,,,831.6796947000003,832.1824558999997,832.1824558999997,832.9321193999995,832.9321193999995,833.4375883000002,833.4375883000002,834.3039329000003,834.3039329000003,None,num_6,0.46623839999938355,834.3039329000003,None,happy,0,Sad,834.7787680799997,None,None,834.7787680799997,None,,,,,,,,,,,,,,,,,,,,,,,,,,,,,,,,,,,,,,,,,,,,,,,,,,,,,10,001,male,37,600,450,2022_Sep_02_1353,Experiment,2021.1.4,359.89865253629745,
images\S6_M_H_01.png,images\S6_M_H_01_scrambled.png,6,happy,10,male,4,,31,off,1,0.5,0.75,0.5,0.773,3,30,1,1,1,0,0,0,0,4,,,,,,0,113,113,113,,,,,,,,,,,,,,,,,,,,,,,,,,,,,,,,,,,,,,,,,,,,,,,,,,,,,,,,,834.8287374000001,835.3341700000001,835.3341700000001,836.0839002000002,836.0839002000002,836.5837810000003,836.5837810000003,837.3612811000003,837.3612811000003,None,num_6,0.5768797000000632,837.3612811000003,None,happy,0,Happy,837.9527996599999,None,None,837.9527996599999,None,,,,,,,,,,,,,,,,,,,,,,,,,,,,,,,,,,,,,,,,,,,,,,,,,,,,,10,001,male,37,600,450,2022_Sep_02_1353,Experiment,2021.1.4,359.89865253629745,
images\S9_F_S_01.png,images\S9_F_S_01_scrambled.png,9,sad,-10,female,3,,472,on,2,0.5,0.75,0.5,0.949,3,471,1,1,1,2,2,32,128,163,,,,,,0,114,114,114,,,,,,,,,,,,,,,,,,,,,,,,,,,,,,,,,,,,,,,,,,,,,,,,,,,,,,,,,838.0027511999997,838.5082354999995,838.5082354999995,839.2579182,839.2579182,839.7605484999995,839.7605484999995,840.7130533,840.7130533,None,num_6,0.3690734000001612,840.7130533,None,happy,0,Sad,841.0907354799997,None,None,841.0907354799997,None,,,,,,,,,,,,,,,,,,,,,,,,,,,,,,,,,,,,,,,,,,,,,,,,,,,,,10,001,male,37,600,450,2022_Sep_02_1353,Experiment,2021.1.4,359.89865253629745,
images\S2_M_H_03.png,images\S2_M_H_03_scrambled.png,2,happy,30,male,6,,369,off,1,0.5,0.75,0.5,0.85,3,368,1,1,1,0,0,0,0,6,,,,,,0,115,115,115,,,,,,,,,,,,,,,,,,,,,,,,,,,,,,,,,,,,,,,,,,,,,,,,,,,,,,,,,841.1406790999999,841.6433623000003,841.6433623000003,842.3930811999999,842.3930811999999,842.8985244999994,842.8985244999994,843.7538035999996,843.7538035999996,None,num_6,0.6402741000001697,843.7538035999996,None,happy,0,Happy,844.4119850999996,None,None,844.4119850999996,None,,,,,,,,,,,,,,,,,,,,,,,,,,,,,,,,,,,,,,,,,,,,,,,,,,,,,10,001,male,37,600,450,2022_Sep_02_1353,Experiment,2021.1.4,359.89865253629745,
images\S2_M_H_01.png,images\S2_M_H_01_scrambled.png,2,happy,10,male,4,,307,on,2,0.5,0.75,0.5,0.856,3,306,1,2,1,2,2,32,128,164,,,,,,0,116,116,116,,,,,,,,,,,,,,,,,,,,,,,,,,,,,,,,,,,,,,,,,,,,,,,,,,,,,,,,,844.4785397999995,844.9811723000003,844.9811723000003,845.7309410999997,845.7309410999997,846.2335972000001,846.2335972000001,847.0944368,847.0944368,None,num_6,0.8436560999998619,847.0944368,None,happy,0,Happy,847.9552911600002,None,None,847.9552911600002,None,,,,,,,,,,,,,,,,,,,,,,,,,,,,,,,,,,,,,,,,,,,,,,,,,,,,,10,001,male,37,600,450,2022_Sep_02_1353,Experiment,2021.1.4,359.89865253629745,
images\S10_M_S_03.png,images\S10_M_S_03_scrambled.png,10,sad,-30,male,1,,240,on,2,0.5,0.75,0.5,0.772,3,239,2,1,1,2,2,32,128,161,,,,,,0,117,117,117,,,,,,,,,,,,,,,,,,,,,,,,,,,,,,,,,,,,,,,,,,,,,,,,,,,,,,,,,848.0052318999997,848.5106467999994,848.5106467999994,849.2632777999997,849.2632777999997,849.7686375000003,849.7686375000003,850.5461284000003,850.5461284000003,None,num_4,0.7199044999997568,850.5461284000003,None,sad,0,Sad,851.2849544399999,None,None,851.2849544399999,None,,,,,,,,,,,,,,,,,,,,,,,,,,,,,,,,,,,,,,,,,,,,,,,,,,,,,10,001,male,37,600,450,2022_Sep_02_1353,Experiment,2021.1.4,359.89865253629745,
images\S9_F_S_01.png,images\S9_F_S_01_scrambled.png,9,sad,-10,female,3,,592,on,2,0.5,0.75,0.5,0.804,3,591,3,1,1,2,2,32,128,163,,,,,,0,118,118,118,,,,,,,,,,,,,,,,,,,,,,,,,,,,,,,,,,,,,,,,,,,,,,,,,,,,,,,,,851.3375390000001,851.8401687999994,851.8401687999994,852.5927308,852.5927308,853.0981943999996,853.0981943999996,853.9090186000003,853.9090186000003,None,num_6,0.340920499999811,853.9090186000003,None,happy,0,Sad,854.2561168799998,None,None,854.2561168799998,None,,,,,,,,,,,,,,,,,,,,,,,,,,,,,,,,,,,,,,,,,,,,,,,,,,,,,10,001,male,37,600,450,2022_Sep_02_1353,Experiment,2021.1.4,359.89865253629745,
images\S3_F_S_02.png,images\S3_F_S_02_scrambled.png,3,sad,-20,female,2,,77,on,2,0.5,0.75,0.5,0.781,3,76,4,1,1,2,2,32,128,162,,,,,,0,119,119,119,,,,,,,,,,,,,,,,,,,,,,,,,,,,,,,,,,,,,,,,,,,,,,,,,,,,,,,,,854.3060807000002,854.8087389000002,854.8087389000002,855.5584781999996,855.5584781999996,856.0639200999995,856.0639200999995,856.8497571999997,856.8497571999997,None,num_4,0.36828239999977086,856.8497571999997,None,sad,0,Sad,857.2329919599996,None,None,857.2329919599996,None,,,,,,,,,,,,,,,,,,,,,,,,,,,,,,,,,,,,,,,,,,,,,,,,,,,,,10,001,male,37,600,450,2022_Sep_02_1353,Experiment,2021.1.4,359.89865253629745,
images\S9_F_H_01.png,images\S9_F_H_01_scrambled.png,9,happy,10,female,4,,289,off,1,0.5,0.75,0.5,0.875,3,288,1,1,1,0,0,0,0,4,,,,,,0,120,120,120,,,,,,,,,,,,,,,,,,,,,,,,,,,,,,,,,,,,,,,,,,,,,,,,,,,,,,,,,857.2830856,857.7883941,857.7883941,858.5381295999996,858.5381295999996,859.0435717999999,859.0435717999999,859.9238358000002,859.9238358000002,None,num_6,0.3982620000006136,859.9238358000002,None,happy,0,Happy,860.3348215599998,None,None,860.3348215599998,None,,,,,,,,,,,,,,,,,,,,,,,,,,,,,,,,,,,,,,,,,,,,,,,,,,,,,10,001,male,37,600,450,2022_Sep_02_1353,Experiment,2021.1.4,359.89865253629745,
images\S10_M_S_03.png,images\S10_M_S_03_scrambled.png,10,sad,-30,male,1,,540,off,1,0.5,0.75,0.5,0.867,3,539,2,1,1,0,0,0,0,1,,,,,,0,121,121,121,,,,,,,,,,,,,,,,,,,,,,,,,,,,,,,,,,,,,,,,,,,,,,,,,,,,,,,,,860.3847949999999,860.8901839999999,860.8901839999999,861.6428539999997,861.6428539999997,862.1482079999996,862.1482079999996,863.0174256999999,863.0174256999999,None,num_4,0.35266740000042773,863.0174256999999,None,sad,0,Sad,863.3894496000003,None,None,863.3894496000003,None,,,,,,,,,,,,,,,,,,,,,,,,,,,,,,,,,,,,,,,,,,,,,,,,,,,,,10,001,male,37,600,450,2022_Sep_02_1353,Experiment,2021.1.4,359.89865253629745,
images\blank.jpg,images\blank.jpg,none,none,none,none,0,,605,on,2,0.5,0.75,0.5,0.94,0,604,1,1,1,3,3,48,192,240,,,,,,0,122,122,122,,,,,,,,,,,,,,,,,,,,,,,,,,,,,,,,,,,,,,,,,,,,,,,,,,,,,,,,,863.4732972000002,863.975351,863.975351,864.7278970999996,864.7278970999996,865.2333284999995,865.2333284999995,866.1747838000001,866.1747838000001,866.1747838000001,None,,866.1747838000001,None,miss,0,,869.1765949799997,None,None,869.1765949799997,None,,,,,,,,,,,,,,,,,,,,,,,,,,,,,,,,,,,,,,,,,,,,,,,,,,,,,10,001,male,37,600,450,2022_Sep_02_1353,Experiment,2021.1.4,359.89865253629745,
images\S9_F_S_01.png,images\S9_F_S_01_scrambled.png,9,sad,-10,female,3,,412,off,1,0.5,0.75,0.5,0.876,3,411,1,1,1,0,0,0,0,3,,,,,,0,123,123,123,,,,,,,,,,,,,,,,,,,,,,,,,,,,,,,,,,,,,,,,,,,,,,,,,,,,,,,,,869.2960977000002,869.7985521999999,869.7985521999999,870.5483063000001,870.5483063000001,871.0537508999996,871.0537508999996,871.9340321999998,871.9340321999998,None,num_6,0.5880134999997608,871.9340321999998,869.2960977000002,happy,0,Sad,872.5338365800003,None,None,872.5338365800003,None,,,,,,,,,,,,,,,,,,,,,,,,,,,,,,,,,,,,,,,,,,,,,,,,,,,,,10,001,male,37,600,450,2022_Sep_02_1353,Experiment,2021.1.4,359.89865253629745,
images\S2_M_H_01.png,images\S2_M_H_01_scrambled.png,2,happy,10,male,4,,367,off,1,0.5,0.75,0.5,0.882,3,366,2,1,1,0,0,0,0,4,,,,,,0,124,124,124,,,,,,,,,,,,,,,,,,,,,,,,,,,,,,,,,,,,,,,,,,,,,,,,,,,,,,,,,872.583799,873.0891984,873.0891984,873.8445468999998,873.8445468999998,874.3472706000002,874.3472706000002,875.2330703999996,875.2330703999996,None,num_6,0.36109339999984513,875.2330703999996,None,happy,0,Happy,875.6079078600004,None,None,875.6079078600004,None,,,,,,,,,,,,,,,,,,,,,,,,,,,,,,,,,,,,,,,,,,,,,,,,,,,,,10,001,male,37,600,450,2022_Sep_02_1353,Experiment,2021.1.4,359.89865253629745,
images\S9_F_H_01.png,images\S9_F_H_01_scrambled.png,9,happy,10,female,4,,169,off,1,0.5,0.75,0.5,0.856,3,168,3,1,2,0,0,0,0,4,,,,,,0,125,125,125,,,,,,,,,,,,,,,,,,,,,,,,,,,,,,,,,,,,,,,,,,,,,,,,,,,,,,,,,875.6550790000001,876.1577146,876.1577146,876.9131072,876.9131072,877.4184776000002,877.4184776000002,878.2765350999998,878.2765350999998,None,num_6,0.3415172999993956,878.2765350999998,None,happy,0,Happy,878.6348866399996,None,None,878.6348866399996,None,,,,,,,,,,,,,,,,,,,,,,,,,,,,,,,,,,,,,,,,,,,,,,,,,,,,,10,001,male,37,600,450,2022_Sep_02_1353,Experiment,2021.1.4,359.89865253629745,
images\S4_M_H_03.png,images\S4_M_H_03_scrambled.png,4,happy,30,male,6,,141,off,1,0.5,0.75,0.5,0.905,3,140,4,1,1,0,0,0,0,6,,,,,,0,126,126,126,,,,,,,,,,,,,,,,,,,,,,,,,,,,,,,,,,,,,,,,,,,,,,,,,,,,,,,,,878.7208056,879.2262043000001,879.2262043000001,879.9760244999998,879.9760244999998,880.4786447999995,880.4786447999995,881.3866854999997,881.3866854999997,None,num_6,0.2792945000001055,881.3866854999997,None,happy,0,Happy,881.6838221999997,None,None,881.6838221999997,None,,,,,,,,,,,,,,,,,,,,,,,,,,,,,,,,,,,,,,,,,,,,,,,,,,,,,10,001,male,37,600,450,2022_Sep_02_1353,Experiment,2021.1.4,359.89865253629745,
images\S6_M_S_02.png,images\S6_M_S_02_scrambled.png,6,sad,-20,male,2,,275,off,1,0.5,0.75,0.5,0.814,3,274,5,1,1,0,0,0,0,2,,,,,,0,127,127,127,,,,,,,,,,,,,,,,,,,,,,,,,,,,,,,,,,,,,,,,,,,,,,,,,,,,,,,,,881.7559157999995,882.2586559000001,882.2586559000001,883.0139137999995,883.0139137999995,883.5165476000002,883.5165476000002,884.3330942000002,884.3330942000002,None,num_4,0.5409557000002678,884.3330942000002,None,sad,0,Sad,884.88560726,None,None,884.88560726,None,,,,,,,,,,,,,,,,,,,,,,,,,,,,,,,,,,,,,,,,,,,,,,,,,,,,,10,001,male,37,600,450,2022_Sep_02_1353,Experiment,2021.1.4,359.89865253629745,
images\S3_F_H_03.png,images\S3_F_H_03_scrambled.png,3,happy,30,female,6,,375,off,1,0.5,0.75,0.5,0.805,3,374,6,1,1,0,0,0,0,6,,,,,,0,128,128,128,,,,,,,,,,,,,,,,,,,,,,,,,,,,,,,,,,,,,,,,,,,,,,,,,,,,,,,,,884.9355481000002,885.4354223999999,885.4354223999999,886.1907366999994,886.1907366999994,886.6934064999996,886.6934064999996,887.5042524999999,887.5042524999999,None,num_6,1.2979851000000053,887.5042524999999,None,happy,0,Happy,888.8121800600001,None,None,888.8121800600001,None,,,,,,,,,,,,,,,,,,,,,,,,,,,,,,,,,,,,,,,,,,,,,,,,,,,,,10,001,male,37,600,450,2022_Sep_02_1353,Experiment,2021.1.4,359.89865253629745,
images\blank.jpg,images\blank.jpg,none,none,none,none,0,,635,on,2,0.5,0.75,0.5,0.766,0,634,1,1,1,3,3,48,192,240,,,,,,0,129,129,129,,,,,,,,,,,,,,,,,,,,,,,,,,,,,,,,,,,,,,,,,,,,,,,,,,,,,,,,,888.8985249999996,889.4036756999994,889.4036756999994,890.1561866000002,890.1561866000002,890.6588259999999,890.6588259999999,891.4280846000001,891.4280846000001,891.4280846000001,None,,891.4280846000001,None,miss,0,,894.42994288,None,None,894.42994288,None,,,,,,,,,,,,,,,,,,,,,,,,,,,,,,,,,,,,,,,,,,,,,,,,,,,,,10,001,male,37,600,450,2022_Sep_02_1353,Experiment,2021.1.4,359.89865253629745,
images\S5_F_S_03.png,images\S5_F_S_03_scrambled.png,5,sad,-30,female,1,,210,on,2,0.5,0.75,0.5,0.784,3,209,2,1,1,2,2,32,128,161,,,,,,0,130,130,130,,,,,,,,,,,,,,,,,,,,,,,,,,,,,,,,,,,,,,,,,,,,,,,,,,,,,,,,,894.5883810999994,895.0907723,895.0907723,895.843374,895.843374,896.3487540999995,896.3487540999995,897.1346121999995,897.1346121999995,None,num_4,0.4113078000000314,897.1346121999995,894.5883810999994,sad,0,Sad,897.5622279999998,None,space,897.5622279999998,None,58.63976850000017,,,,,,,,,,,,,,,,,,,,,,,,,,,,,,,,,,,,,,,,,,,,,,,,,,,,10,001,male,37,600,450,2022_Sep_02_1353,Experiment,2021.1.4,359.89865253629745,
images\S4_M_S_02.png,images\S4_M_S_02_scrambled.png,4,sad,-20,male,2,,263,off,1,0.5,0.75,0.5,0.775,3,262,1,1,1,0,0,0,0,2,,,,,,0,131,131,131,,,,,,,,,,,,,,,,,,,,,,,,,,,,,,,,,,,,,,,,,,,,,,,,,,,,,,,,,956.2941279999995,956.7969285999998,956.7969285999998,957.5522762999999,957.5522762999999,958.0519757000002,958.0519757000002,958.8295134,958.8295134,None,num_4,0.5724011000002065,958.8295134,None,sad,0,Sad,959.4127150599996,None,None,959.4127150599996,None,,,,,,,,,,,,,,,,,,,,,,,,,,,,,,,,,,,,,,,,,,,,,,,,,,,,,10,001,male,37,600,450,2022_Sep_02_1353,Experiment,2021.1.4,359.89865253629745,
images\S6_M_H_02.png,images\S6_M_H_02_scrambled.png,6,happy,20,male,5,,152,off,1,0.5,0.75,0.5,0.832,3,151,2,1,1,0,0,0,0,5,,,,,,0,132,132,132,,,,,,,,,,,,,,,,,,,,,,,,,,,,,,,,,,,,,,,,,,,,,,,,,,,,,,,,,959.4987700000001,960.0041862999997,960.0041862999997,960.7567395999995,960.7567395999995,961.2593564999997,961.2593564999997,962.0952055999996,962.0952055999996,None,num_6,0.4828852000000552,962.0952055999996,None,happy,0,Happy,962.5922850599999,None,None,962.5922850599999,None,,,,,,,,,,,,,,,,,,,,,,,,,,,,,,,,,,,,,,,,,,,,,,,,,,,,,10,001,male,37,600,450,2022_Sep_02_1353,Experiment,2021.1.4,359.89865253629745,
images\S6_M_S_02.png,images\S6_M_S_02_scrambled.png,6,sad,-20,male,2,,395,off,1,0.5,0.75,0.5,0.874,3,394,3,2,1,0,0,0,0,2,,,,,,0,133,133,133,,,,,,,,,,,,,,,,,,,,,,,,,,,,,,,,,,,,,,,,,,,,,,,,,,,,,,,,,962.6422411000003,963.1448746999995,963.1448746999995,963.8974050999996,963.8974050999996,964.4029545000003,964.4029545000003,965.2831654000001,965.2831654000001,None,num_4,0.3188157000004139,965.2831654000001,None,sad,0,Sad,965.6247983400001,None,None,965.6247983400001,None,,,,,,,,,,,,,,,,,,,,,,,,,,,,,,,,,,,,,,,,,,,,,,,,,,,,,10,001,male,37,600,450,2022_Sep_02_1353,Experiment,2021.1.4,359.89865253629745,
images\S5_F_S_01.png,images\S5_F_S_01_scrambled.png,5,sad,-10,female,3,,148,off,1,0.5,0.75,0.5,0.823,3,147,4,1,1,0,0,0,0,3,,,,,,0,134,134,134,,,,,,,,,,,,,,,,,,,,,,,,,,,,,,,,,,,,,,,,,,,,,,,,,,,,,,,,,965.6774162000002,966.1800529000002,966.1800529000002,966.9326007999998,966.9326007999998,967.4352160999997,967.4352160999997,968.2627330999994,968.2627330999994,None,num_4,0.5471997000004194,968.2627330999994,None,sad,0,Sad,968.8237295999998,None,None,968.8237295999998,None,,,,,,,,,,,,,,,,,,,,,,,,,,,,,,,,,,,,,,,,,,,,,,,,,,,,,10,001,male,37,600,450,2022_Sep_02_1353,Experiment,2021.1.4,359.89865253629745,
images\S8_M_H_02.png,images\S8_M_H_02_scrambled.png,8,happy,20,male,5,,104,on,2,0.5,0.75,0.5,0.949,3,103,1,1,1,2,2,32,128,165,,,,,,0,135,135,135,,,,,,,,,,,,,,,,,,,,,,,,,,,,,,,,,,,,,,,,,,,,,,,,,,,,,,,,,968.8737587999995,969.3762814000002,969.3762814000002,970.1288254000001,970.1288254000001,970.6342533999996,970.6342533999996,971.5867343,971.5867343,None,num_6,0.39141840000047523,971.5867343,None,happy,0,Happy,971.9949698999999,None,None,971.9949698999999,None,,,,,,,,,,,,,,,,,,,,,,,,,,,,,,,,,,,,,,,,,,,,,,,,,,,,,10,001,male,37,600,450,2022_Sep_02_1353,Experiment,2021.1.4,359.89865253629745,
images\S4_M_S_01.png,images\S4_M_S_01_scrambled.png,4,sad,-10,male,3,,22,off,1,0.5,0.75,0.5,0.79,3,21,1,1,1,0,0,0,0,3,,,,,,0,136,136,136,,,,,,,,,,,,,,,,,,,,,,,,,,,,,,,,,,,,,,,,,,,,,,,,,,,,,,,,,972.0448902999997,972.5503128,972.5503128,973.3056342999998,973.3056342999998,973.8083015000002,973.8083015000002,974.6024531000003,974.6024531000003,None,num_4,0.3834067999996478,974.6024531000003,None,sad,0,Sad,974.9996014999997,None,None,974.9996014999997,None,,,,,,,,,,,,,,,,,,,,,,,,,,,,,,,,,,,,,,,,,,,,,,,,,,,,,10,001,male,37,600,450,2022_Sep_02_1353,Experiment,2021.1.4,359.89865253629745,
images\S6_M_S_01.png,images\S6_M_S_01_scrambled.png,6,sad,-10,male,3,,334,on,2,0.5,0.75,0.5,0.922,3,333,1,1,2,2,2,32,128,163,,,,,,0,137,137,137,,,,,,,,,,,,,,,,,,,,,,,,,,,,,,,,,,,,,,,,,,,,,,,,,,,,,,,,,975.0495364999997,975.5493762999995,975.5493762999995,976.3019623999999,976.3019623999999,976.8045744000001,976.8045744000001,977.7321702999998,977.7321702999998,None,num_6,0.949800200000027,977.7321702999998,None,happy,0,Sad,978.6873301800001,None,None,978.6873301800001,None,,,,,,,,,,,,,,,,,,,,,,,,,,,,,,,,,,,,,,,,,,,,,,,,,,,,,10,001,male,37,600,450,2022_Sep_02_1353,Experiment,2021.1.4,359.89865253629745,
images\S1_F_S_02.png,images\S1_F_S_02_scrambled.png,1,sad,-20,female,2,,485,off,1,0.5,0.75,0.5,0.819,3,484,1,1,1,0,0,0,0,2,,,,,,0,138,138,138,,,,,,,,,,,,,,,,,,,,,,,,,,,,,,,,,,,,,,,,,,,,,,,,,,,,,,,,,978.7372903999994,979.2428123,979.2428123,979.9924705000003,979.9924705000003,980.4979592,980.4979592,981.3198481,981.3198481,None,num_4,0.38622810000015306,981.3198481,None,sad,0,Sad,981.7336883200002,None,None,981.7336883200002,None,,,,,,,,,,,,,,,,,,,,,,,,,,,,,,,,,,,,,,,,,,,,,,,,,,,,,10,001,male,37,600,450,2022_Sep_02_1353,Experiment,2021.1.4,359.89865253629745,
images\blank.jpg,images\blank.jpg,none,none,none,none,0,,632,on,2,0.5,0.75,0.5,0.781,0,631,1,1,1,3,3,48,192,240,,,,,,0,139,139,139,,,,,,,,,,,,,,,,,,,,,,,,,,,,,,,,,,,,,,,,,,,,,,,,,,,,,,,,,981.8338332000003,982.3390014999995,982.3390014999995,983.0916517999995,983.0916517999995,983.5941719000002,983.5941719000002,984.3773596000001,984.3773596000001,984.3773596000001,None,,984.3773596000001,None,miss,0,,987.3791016400003,None,None,987.3791016400003,None,,,,,,,,,,,,,,,,,,,,,,,,,,,,,,,,,,,,,,,,,,,,,,,,,,,,,10,001,male,37,600,450,2022_Sep_02_1353,Experiment,2021.1.4,359.89865253629745,
