image_face,image_scram,avatar,emo,emotion,sex,trigeeg,dac,trial_no,NMES,stimtime,baseline,iti,face,scr_face,resp_time,index,count_NMES,count_avatar,count_emotion,dac1,dac2,dac1_output,dac2_output,trigs_out,nmes,practice_trials.thisRepN,practice_trials.thisTrialN,practice_trials.thisN,practice_trials.thisIndex,real_trials.thisRepN,real_trials.thisTrialN,real_trials.thisN,real_trials.thisIndex,trials.thisRepN,trials.thisTrialN,trials.thisN,trials.thisIndex,position,Welcome.started,Welcome.stopped,Welcome_resp.keys,Welcome_resp.rt,text_2.started,text_2.stopped,form_2.index,form_2.itemText,form_2.type,form_2.response,form_2.rt,key_resp_4.keys,key_resp_4.rt,key_resp_4.started,key_resp_4.stopped,instructions.started,instructions.stopped,end_instr.keys,end_instr.rt,instructions_2.started,instructions_2.stopped,end_instr_2.keys,end_instr_2.rt,end_instr_2.started,end_instr_2.stopped,instruct_keypress.started,instruct_keypress.stopped,end_instruct_keypress.keys,end_instruct_keypress.rt,start_practice.started,start_practice.stopped,start_practice_resp.keys,start_practice_resp.rt,prac_baseline.started,prac_baseline.stopped,prac_iti.started,prac_iti.stopped,prac_stimulus.started,prac_stimulus.stopped,prac_scram_stim.started,prac_scram_stim.stopped,prac_stimulus_resp.started,prac_stimulus_resp.stopped,prac_resp.keys,prac_resp.rt,prac_resp.started,prac_resp.stopped,transition_to_real.started,transition_to_real.stopped,end_transition_to_real.keys,end_transition_to_real.rt,fixation_cross.started,fixation_cross.stopped,tr_iti.started,tr_iti.stopped,stimulus.started,stimulus.stopped,scram_stim.started,scram_stim.stopped,response_txt.started,response_txt.stopped,response.keys,response.rt,response.started,response.stopped,participant_Resp,grouping,corAnswer,break_msg.started,break_msg.stopped,end_break.keys,end_break.started,end_break.stopped,end_break.rt,text.started,text.stopped,key_resp_3.keys,key_resp_3.rt,key_resp_3.started,key_resp_3.stopped,fix_cross_comf.started,fix_cross_comf.stopped,stimulation_comf.started,stimulation_comf.stopped,rate_instr.started,rate_instr.stopped,comfort_rating.response,comfort_rating.rt,comfort_rating.started,comfort_rating.stopped,resp_form.keys,resp_form.rt,resp_form.started,resp_form.stopped,survey_instructions.started,survey_instructions.stopped,key_resp_2.keys,key_resp_2.rt,key_resp_2.started,key_resp_2.stopped,form.index,form.itemText,form.type,form.response,form.rt,key_resp.keys,key_resp.rt,key_resp.started,key_resp.stopped,text_3.started,text_3.stopped,rate_smile.response,rate_smile.rt,rate_smile.started,rate_smile.stopped,key_resp_5.keys,key_resp_5.rt,key_resp_5.started,key_resp_5.stopped,end_msg.started,end_msg.stopped,end_resp.keys,end_resp.rt,end_resp.started,end_resp.stopped,participant,session,gender,age,LEFT,RIGHT,date,expName,psychopyVersion,frameRate,
,,,,,,,,,,,,,,,,,,,,,,,,,,,,,,,,,,,,,,H-S,28.737607400000343,None,num_add,6.115552199999911,,,,,,,,,,,,,,,,,,,,,,,,,,,,,,,,,,,,,,,,,,,,,,,,,,,,,,,,,,,,,,,,,,,,,,,,,,,,,,,,,,,,,,,,,,,,,,,,,,,,,,,,,,,,,,,,,,,,,,,,,,11,001,female,20,425,425,2022_Sep_05_1044,Experiment,2021.1.4,360.20848867122595,
,,,,,,,,,,,,,,,,,,,,,,,,,,,,,,,,,,,,,,,,,,,34.87601200000017,36.939248800000314,1,"This scale consistes of a number of words that describe different feelings and emotion. Read each item and then list the number from the scale below each word. Indicate (by clicking) to what extend you feel this way RIGHT NOW, that is, AT THE PRESENT MOMENT.",description,,,,,,,,,,,,,,,,,,,,,,,,,,,,,,,,,,,,,,,,,,,,,,,,,,,,,,,,,,,,,,,,,,,,,,,,,,,,,,,,,,,,,,,,,,,,,,,,,,,,,,,,,,,,,,,,,,,,,11,001,female,20,425,425,2022_Sep_05_1044,Experiment,2021.1.4,360.20848867122595,
,,,,,,,,,,,,,,,,,,,,,,,,,,,,,,,,,,,,,,,,,,,,,2,Interested,rating,4.0,8.100928900000326,,,,,,,,,,,,,,,,,,,,,,,,,,,,,,,,,,,,,,,,,,,,,,,,,,,,,,,,,,,,,,,,,,,,,,,,,,,,,,,,,,,,,,,,,,,,,,,,,,,,,,,,,,,,,,,,,,,11,001,female,20,425,425,2022_Sep_05_1044,Experiment,2021.1.4,360.20848867122595,
,,,,,,,,,,,,,,,,,,,,,,,,,,,,,,,,,,,,,,,,,,,,,3,Distressed,rating,1.0,11.126107000000047,,,,,,,,,,,,,,,,,,,,,,,,,,,,,,,,,,,,,,,,,,,,,,,,,,,,,,,,,,,,,,,,,,,,,,,,,,,,,,,,,,,,,,,,,,,,,,,,,,,,,,,,,,,,,,,,,,,11,001,female,20,425,425,2022_Sep_05_1044,Experiment,2021.1.4,360.20848867122595,
,,,,,,,,,,,,,,,,,,,,,,,,,,,,,,,,,,,,,,,,,,,,,4,Excited,rating,3.0,15.102556199999981,,,,,,,,,,,,,,,,,,,,,,,,,,,,,,,,,,,,,,,,,,,,,,,,,,,,,,,,,,,,,,,,,,,,,,,,,,,,,,,,,,,,,,,,,,,,,,,,,,,,,,,,,,,,,,,,,,,11,001,female,20,425,425,2022_Sep_05_1044,Experiment,2021.1.4,360.20848867122595,
,,,,,,,,,,,,,,,,,,,,,,,,,,,,,,,,,,,,,,,,,,,,,5,Upset,rating,1.0,19.856251300000167,,,,,,,,,,,,,,,,,,,,,,,,,,,,,,,,,,,,,,,,,,,,,,,,,,,,,,,,,,,,,,,,,,,,,,,,,,,,,,,,,,,,,,,,,,,,,,,,,,,,,,,,,,,,,,,,,,,11,001,female,20,425,425,2022_Sep_05_1044,Experiment,2021.1.4,360.20848867122595,
,,,,,,,,,,,,,,,,,,,,,,,,,,,,,,,,,,,,,,,,,,,,,6,Strong,rating,1.0,22.457321200000024,,,,,,,,,,,,,,,,,,,,,,,,,,,,,,,,,,,,,,,,,,,,,,,,,,,,,,,,,,,,,,,,,,,,,,,,,,,,,,,,,,,,,,,,,,,,,,,,,,,,,,,,,,,,,,,,,,,11,001,female,20,425,425,2022_Sep_05_1044,Experiment,2021.1.4,360.20848867122595,
,,,,,,,,,,,,,,,,,,,,,,,,,,,,,,,,,,,,,,,,,,,,,7,Guilty,rating,1.0,7.071166300000186,,,,,,,,,,,,,,,,,,,,,,,,,,,,,,,,,,,,,,,,,,,,,,,,,,,,,,,,,,,,,,,,,,,,,,,,,,,,,,,,,,,,,,,,,,,,,,,,,,,,,,,,,,,,,,,,,,,11,001,female,20,425,425,2022_Sep_05_1044,Experiment,2021.1.4,360.20848867122595,
,,,,,,,,,,,,,,,,,,,,,,,,,,,,,,,,,,,,,,,,,,,,,8,Scared,rating,1.0,7.609431699999732,,,,,,,,,,,,,,,,,,,,,,,,,,,,,,,,,,,,,,,,,,,,,,,,,,,,,,,,,,,,,,,,,,,,,,,,,,,,,,,,,,,,,,,,,,,,,,,,,,,,,,,,,,,,,,,,,,,11,001,female,20,425,425,2022_Sep_05_1044,Experiment,2021.1.4,360.20848867122595,
,,,,,,,,,,,,,,,,,,,,,,,,,,,,,,,,,,,,,,,,,,,,,9,Hostile,rating,1.0,7.765265800000179,,,,,,,,,,,,,,,,,,,,,,,,,,,,,,,,,,,,,,,,,,,,,,,,,,,,,,,,,,,,,,,,,,,,,,,,,,,,,,,,,,,,,,,,,,,,,,,,,,,,,,,,,,,,,,,,,,,11,001,female,20,425,425,2022_Sep_05_1044,Experiment,2021.1.4,360.20848867122595,
,,,,,,,,,,,,,,,,,,,,,,,,,,,,,,,,,,,,,,,,,,,,,10,Enthusiastic,rating,3.0,5.091869100000167,,,,,,,,,,,,,,,,,,,,,,,,,,,,,,,,,,,,,,,,,,,,,,,,,,,,,,,,,,,,,,,,,,,,,,,,,,,,,,,,,,,,,,,,,,,,,,,,,,,,,,,,,,,,,,,,,,,11,001,female,20,425,425,2022_Sep_05_1044,Experiment,2021.1.4,360.20848867122595,
,,,,,,,,,,,,,,,,,,,,,,,,,,,,,,,,,,,,,,,,,,,,,11,Proud,rating,2.0,8.751089800000045,,,,,,,,,,,,,,,,,,,,,,,,,,,,,,,,,,,,,,,,,,,,,,,,,,,,,,,,,,,,,,,,,,,,,,,,,,,,,,,,,,,,,,,,,,,,,,,,,,,,,,,,,,,,,,,,,,,11,001,female,20,425,425,2022_Sep_05_1044,Experiment,2021.1.4,360.20848867122595,
,,,,,,,,,,,,,,,,,,,,,,,,,,,,,,,,,,,,,,,,,,,,,12,Irritable,rating,1.0,9.19319110000015,,,,,,,,,,,,,,,,,,,,,,,,,,,,,,,,,,,,,,,,,,,,,,,,,,,,,,,,,,,,,,,,,,,,,,,,,,,,,,,,,,,,,,,,,,,,,,,,,,,,,,,,,,,,,,,,,,,11,001,female,20,425,425,2022_Sep_05_1044,Experiment,2021.1.4,360.20848867122595,
,,,,,,,,,,,,,,,,,,,,,,,,,,,,,,,,,,,,,,,,,,,,,13,Alert,rating,3.0,11.81518989999995,,,,,,,,,,,,,,,,,,,,,,,,,,,,,,,,,,,,,,,,,,,,,,,,,,,,,,,,,,,,,,,,,,,,,,,,,,,,,,,,,,,,,,,,,,,,,,,,,,,,,,,,,,,,,,,,,,,11,001,female,20,425,425,2022_Sep_05_1044,Experiment,2021.1.4,360.20848867122595,
,,,,,,,,,,,,,,,,,,,,,,,,,,,,,,,,,,,,,,,,,,,,,14,Ashamed,rating,1.0,10.410829800000101,,,,,,,,,,,,,,,,,,,,,,,,,,,,,,,,,,,,,,,,,,,,,,,,,,,,,,,,,,,,,,,,,,,,,,,,,,,,,,,,,,,,,,,,,,,,,,,,,,,,,,,,,,,,,,,,,,,11,001,female,20,425,425,2022_Sep_05_1044,Experiment,2021.1.4,360.20848867122595,
,,,,,,,,,,,,,,,,,,,,,,,,,,,,,,,,,,,,,,,,,,,,,15,Inspired,rating,4.0,6.993213300000207,,,,,,,,,,,,,,,,,,,,,,,,,,,,,,,,,,,,,,,,,,,,,,,,,,,,,,,,,,,,,,,,,,,,,,,,,,,,,,,,,,,,,,,,,,,,,,,,,,,,,,,,,,,,,,,,,,,11,001,female,20,425,425,2022_Sep_05_1044,Experiment,2021.1.4,360.20848867122595,
,,,,,,,,,,,,,,,,,,,,,,,,,,,,,,,,,,,,,,,,,,,,,16,Nervous,rating,1.0,8.881826100000126,,,,,,,,,,,,,,,,,,,,,,,,,,,,,,,,,,,,,,,,,,,,,,,,,,,,,,,,,,,,,,,,,,,,,,,,,,,,,,,,,,,,,,,,,,,,,,,,,,,,,,,,,,,,,,,,,,,11,001,female,20,425,425,2022_Sep_05_1044,Experiment,2021.1.4,360.20848867122595,
,,,,,,,,,,,,,,,,,,,,,,,,,,,,,,,,,,,,,,,,,,,,,17,Determined,rating,2.0,6.2751507000002675,,,,,,,,,,,,,,,,,,,,,,,,,,,,,,,,,,,,,,,,,,,,,,,,,,,,,,,,,,,,,,,,,,,,,,,,,,,,,,,,,,,,,,,,,,,,,,,,,,,,,,,,,,,,,,,,,,,11,001,female,20,425,425,2022_Sep_05_1044,Experiment,2021.1.4,360.20848867122595,
,,,,,,,,,,,,,,,,,,,,,,,,,,,,,,,,,,,,,,,,,,,,,18,Attentive,rating,4.0,8.879159600000094,,,,,,,,,,,,,,,,,,,,,,,,,,,,,,,,,,,,,,,,,,,,,,,,,,,,,,,,,,,,,,,,,,,,,,,,,,,,,,,,,,,,,,,,,,,,,,,,,,,,,,,,,,,,,,,,,,,11,001,female,20,425,425,2022_Sep_05_1044,Experiment,2021.1.4,360.20848867122595,
,,,,,,,,,,,,,,,,,,,,,,,,,,,,,,,,,,,,,,,,,,,,,19,Jittery,rating,1.0,7.172231099999863,,,,,,,,,,,,,,,,,,,,,,,,,,,,,,,,,,,,,,,,,,,,,,,,,,,,,,,,,,,,,,,,,,,,,,,,,,,,,,,,,,,,,,,,,,,,,,,,,,,,,,,,,,,,,,,,,,,11,001,female,20,425,425,2022_Sep_05_1044,Experiment,2021.1.4,360.20848867122595,
,,,,,,,,,,,,,,,,,,,,,,,,,,,,,,,,,,,,,,,,,,,,,20,Active,rating,2.0,7.718355999999858,,,,,,,,,,,,,,,,,,,,,,,,,,,,,,,,,,,,,,,,,,,,,,,,,,,,,,,,,,,,,,,,,,,,,,,,,,,,,,,,,,,,,,,,,,,,,,,,,,,,,,,,,,,,,,,,,,,11,001,female,20,425,425,2022_Sep_05_1044,Experiment,2021.1.4,360.20848867122595,
,,,,,,,,,,,,,,,,,,,,,,,,,,,,,,,,,,,,,,,,,,,,,21,Afraid,rating,1.0,9.477909299999737,,,,,,,,,,,,,,,,,,,,,,,,,,,,,,,,,,,,,,,,,,,,,,,,,,,,,,,,,,,,,,,,,,,,,,,,,,,,,,,,,,,,,,,,,,,,,,,,,,,,,,,,,,,,,,,,,,,11,001,female,20,425,425,2022_Sep_05_1044,Experiment,2021.1.4,360.20848867122595,
,,,,,,,,,,,,,,,,,,,,,,,,,,,,,,,,,,,,,,,,,,,,,22,Press the + button to submit your answers,description,,,,,,,,,,,,,,,,,,,,,,,,,,,,,,,,,,,,,,,,,,,,,,,,,,,,,,,,,,,,,,,,,,,,,,,,,,,,,,,,,,,,,,,,,,,,,,,,,,,,,,,,,,,,,,,,,,,,,11,001,female,20,425,425,2022_Sep_05_1044,Experiment,2021.1.4,360.20848867122595,
,,,,,,,,,,,,,,,,,,,,,,,,,,,,,,,,,,,,,,,,,,,,,,,,,,num_add,51.010103499999786,44.9228906000003,None,,,,,,,,,,,,,,,,,,,,,,,,,,,,,,,,,,,,,,,,,,,,,,,,,,,,,,,,,,,,,,,,,,,,,,,,,,,,,,,,,,,,,,,,,,,,,,,,,,,,,,,,,,,,,,,11,001,female,20,425,425,2022_Sep_05_1044,Experiment,2021.1.4,360.20848867122595,
,,,,,,,,,,,,,,,,,,,,,,,,,,,,,,,,,,,,,,,,,,,,,,,,,,,,,,95.95993160000035,None,num_add,20.333088699999735,,,,,,,,,,,,,,,,,,,,,,,,,,,,,,,,,,,,,,,,,,,,,,,,,,,,,,,,,,,,,,,,,,,,,,,,,,,,,,,,,,,,,,,,,,,,,,,,,,,,,,,,,,,11,001,female,20,425,425,2022_Sep_05_1044,Experiment,2021.1.4,360.20848867122595,
,,,,,,,,,,,,,,,,,,,,,,,,,,,,,,,,,,,,,,,,,,,,,,,,,,,,,,,,,,116.30367100000012,None,num_add,10.325556100000085,116.30367100000012,None,,,,,,,,,,,,,,,,,,,,,,,,,,,,,,,,,,,,,,,,,,,,,,,,,,,,,,,,,,,,,,,,,,,,,,,,,,,,,,,,,,,,,,,,,,,,,,,,,,,,,11,001,female,20,425,425,2022_Sep_05_1044,Experiment,2021.1.4,360.20848867122595,
,,,,,,,,,,,,,,,,,,,,,,,,,,,,,,,,,,,,,,,,,,,,,,,,,,,,,,,,,,,,,,,,126.65047870000035,None,num_add,13.490681600000244,,,,,,,,,,,,,,,,,,,,,,,,,,,,,,,,,,,,,,,,,,,,,,,,,,,,,,,,,,,,,,,,,,,,,,,,,,,,,,,,,,,,,,,,,,,,,,,,,11,001,female,20,425,425,2022_Sep_05_1044,Experiment,2021.1.4,360.20848867122595,
,,,,,,,,,,,,,,,,,,,,,,,,,,,,,,,,,,,,,,,,,,,,,,,,,,,,,,,,,,,,,,,,,,,,140.1546561,None,space,62.96228700000029,,,,,,,,,,,,,,,,,,,,,,,,,,,,,,,,,,,,,,,,,,,,,,,,,,,,,,,,,,,,,,,,,,,,,,,,,,,,,,,,,,,,,,,,,,,,,11,001,female,20,425,425,2022_Sep_05_1044,Experiment,2021.1.4,360.20848867122595,
images\S22_M_H_02.png,images\S22_M_H_02_scrambled.png,22,Happy,-0.2,M,0,0,practice,off,1,0.5,0.75,0.5,0.883,3,,,,,,,,,,,0,0,0,2,,,,,,,,,,,,,,,,,,,,,,,,,,,,,,,,,,,,,,,,,,,203.30182349999995,203.8017050000003,203.8017050000003,204.55429330000015,204.55429330000015,205.05967420000025,205.05967420000025,205.94549410000036,205.94549410000036,None,num_4,1.059553600000072,205.94549410000036,None,,,,,,,,,,,,,,,,,,,,,,,,,,,,,,,,,,,,,,,,,,,,,,,,,,,,,,,,,,,,,,,,,,,,,,,,,,,,,,,11,001,female,20,425,425,2022_Sep_05_1044,Experiment,2021.1.4,360.20848867122595,
images\S21_F_H_01.png,images\S21_F_H_01_scrambled.png,21,Happy,-0.1,F,0,0,practice,off,1,0.5,0.75,0.5,0.853,3,,,,,,,,,,,0,1,1,0,,,,,,,,,,,,,,,,,,,,,,,,,,,,,,,,,,,,,,,,,,,207.0895746000001,207.5950087000001,207.5950087000001,208.34473620000017,208.34473620000017,208.84738640000023,208.84738640000023,209.7054567,209.7054567,None,num_4,0.6755390999996962,209.7054567,None,,,,,,,,,,,,,,,,,,,,,,,,,,,,,,,,,,,,,,,,,,,,,,,,,,,,,,,,,,,,,,,,,,,,,,,,,,,,,,,11,001,female,20,425,425,2022_Sep_05_1044,Experiment,2021.1.4,360.20848867122595,
images\S22_M_S_03.png,images\S22_M_S_03_scrambled.png,22,Sad,0.3,M,0,0,practice,on,2,0.5,0.75,0.5,0.794,3,,,,,,,,,,,0,2,2,7,,,,,,,,,,,,,,,,,,,,,,,,,,,,,,,,,,,,,,,,,,,210.44409760000008,210.94672340000034,210.94672340000034,211.69931510000015,211.69931510000015,212.20193400000016,212.20193400000016,212.99893940000038,212.99893940000038,None,num_6,0.5740783000001102,212.99893940000038,None,,,,,,,,,,,,,,,,,,,,,,,,,,,,,,,,,,,,,,,,,,,,,,,,,,,,,,,,,,,,,,,,,,,,,,,,,,,,,,,11,001,female,20,425,425,2022_Sep_05_1044,Experiment,2021.1.4,360.20848867122595,
images\S22_M_S_03.png,images\S22_M_S_03_scrambled.png,22,Sad,0.3,M,0,0,practice,on,2,0.5,0.75,0.5,0.87,3,,,,,,,,,,,0,3,3,4,,,,,,,,,,,,,,,,,,,,,,,,,,,,,,,,,,,,,,,,,,,213.6292297,214.1290852000002,214.1290852000002,214.88444690000006,214.88444690000006,215.38982810000016,215.38982810000016,216.26456559999997,216.26456559999997,None,num_6,2.788281900000129,216.26456559999997,None,,,,,,,,,,,,,,,,,,,,,,,,,,,,,,,,,,,,,,,,,,,,,,,,,,,,,,,,,,,,,,,,,,,,,,,,,,,,,,,11,001,female,20,425,425,2022_Sep_05_1044,Experiment,2021.1.4,360.20848867122595,
images\S22_M_S_02.png,images\S22_M_S_02_scrambled.png,22,Sad,0.2,M,0,0,practice,off,1,0.5,0.75,0.5,0.751,3,,,,,,,,,,,0,4,4,3,,,,,,,,,,,,,,,,,,,,,,,,,,,,,,,,,,,,,,,,,,,219.1441944000003,219.64964099999997,219.64964099999997,220.4021362000003,220.4021362000003,220.90479360000018,220.90479360000018,221.6600738000002,221.6600738000002,None,num_4,1.2329322000000502,221.6600738000002,None,,,,,,,,,,,,,,,,,,,,,,,,,,,,,,,,,,,,,,,,,,,,,,,,,,,,,,,,,,,,,,,,,,,,,,,,,,,,,,,11,001,female,20,425,425,2022_Sep_05_1044,Experiment,2021.1.4,360.20848867122595,
images\S22_M_S_01.png,images\S22_M_S_01_scrambled.png,22,Sad,0.1,M,0,0,practice,on,2,0.5,0.75,0.5,0.867,3,,,,,,,,,,,0,5,5,5,,,,,,,,,,,,,,,,,,,,,,,,,,,,,,,,,,,,,,,,,,,222.9569134000003,223.4623047,223.4623047,224.21484469999996,224.21484469999996,224.71468640000012,224.71468640000012,225.5839801000002,225.5839801000002,None,num_4,0.37285789999987173,225.5839801000002,None,,,,,,,,,,,,,,,,,,,,,,,,,,,,,,,,,,,,,,,,,,,,,,,,,,,,,,,,,,,,,,,,,,,,,,,,,,,,,,,11,001,female,20,425,425,2022_Sep_05_1044,Experiment,2021.1.4,360.20848867122595,
images\S22_M_S_02.png,images\S22_M_S_02_scrambled.png,22,Sad,0.2,M,0,0,practice,on,2,0.5,0.75,0.5,0.783,3,,,,,,,,,,,0,6,6,6,,,,,,,,,,,,,,,,,,,,,,,,,,,,,,,,,,,,,,,,,,,226.01151750000008,226.51137110000036,226.51137110000036,227.26401740000028,227.26401740000028,227.76934270000038,227.76934270000038,228.55519249999998,228.55519249999998,None,num_4,0.3296429000001808,228.55519249999998,None,,,,,,,,,,,,,,,,,,,,,,,,,,,,,,,,,,,,,,,,,,,,,,,,,,,,,,,,,,,,,,,,,,,,,,,,,,,,,,,11,001,female,20,425,425,2022_Sep_05_1044,Experiment,2021.1.4,360.20848867122595,
images\S21_F_H_02.png,images\S21_F_H_02_scrambled.png,21,Happy,-0.2,F,0,0,practice,off,1,0.5,0.75,0.5,0.91,3,,,,,,,,,,,0,7,7,1,,,,,,,,,,,,,,,,,,,,,,,,,,,,,,,,,,,,,,,,,,,228.96615629999997,229.46885569999995,229.46885569999995,230.22416180000027,230.22416180000027,230.72394639999993,230.72394639999993,231.64036140000007,231.64036140000007,None,num_4,0.3724666999996771,231.64036140000007,None,,,,,,,,,,,,,,,,,,,,,,,,,,,,,,,,,,,,,,,,,,,,,,,,,,,,,,,,,,,,,,,,,,,,,,,,,,,,,,,11,001,female,20,425,425,2022_Sep_05_1044,Experiment,2021.1.4,360.20848867122595,
,,,,,,,,,,,,,,,,,,,,,,,,,,,,,,,,,,,,,,,,,,,,,,,,,,,,,,,,,,,,,,,,,,,,,,,,,,,,,,,,,,,,,,232.0402113,None,space,45.292551,,,,,,,,,,,,,,,,,,,,,,,,,,,,,,,,,,,,,,,,,,,,,,,,,,,,,,,,,,,,,,,,,,,,,,,,,,,11,001,female,20,425,425,2022_Sep_05_1044,Experiment,2021.1.4,360.20848867122595,
images\S2_M_S_02.png,images\S2_M_S_02_scrambled.png,2,sad,-20,male,2,,71,on,2,0.5,0.75,0.5,0.757,3,70,1,1,1,2,2,32,128,162,,,,,,0,0,0,0,,,,,,,,,,,,,,,,,,,,,,,,,,,,,,,,,,,,,,,,,,,,,,,,,,,,,,,,,277.8316560000003,278.3315103,278.3315103,279.0840983000003,279.0840983000003,279.5894967000004,279.5894967000004,280.35034640000003,280.35034640000003,None,num_6,0.5423925999998573,280.35034640000003,None,sad,1,Sad,280.90847655000016,None,None,280.90847655000016,None,,,,,,,,,,,,,,,,,,,,,,,,,,,,,,,,,,,,,,,,,,,,,,,,,,,,,11,001,female,20,425,425,2022_Sep_05_1044,Experiment,2021.1.4,360.20848867122595,
images\blank.jpg,images\blank.jpg,none,none,none,none,0,,615,on,2,0.5,0.75,0.5,0.9,0,614,2,1,1,3,3,48,192,240,,,,,,0,1,1,1,,,,,,,,,,,,,,,,,,,,,,,,,,,,,,,,,,,,,,,,,,,,,,,,,,,,,,,,,281.0172407,281.5194455000001,281.5194455000001,282.27476419999994,282.27476419999994,282.78016270000035,282.78016270000035,283.6854228000002,283.6854228000002,283.6854228000002,None,,283.6854228000002,None,miss,1,,286.68449340999996,None,None,286.68449340999996,None,,,,,,,,,,,,,,,,,,,,,,,,,,,,,,,,,,,,,,,,,,,,,,,,,,,,,11,001,female,20,425,425,2022_Sep_05_1044,Experiment,2021.1.4,360.20848867122595,
images\S2_M_S_03.png,images\S2_M_S_03_scrambled.png,2,sad,-30,male,1,,12,off,1,0.5,0.75,0.5,0.776,3,11,1,1,1,0,0,0,0,1,,,,,,0,2,2,2,,,,,,,,,,,,,,,,,,,,,,,,,,,,,,,,,,,,,,,,,,,,,,,,,,,,,,,,,286.8095464000003,287.3120576000001,287.3120576000001,288.06182560000025,288.06182560000025,288.56444660000034,288.56444660000034,289.34198689999994,289.34198689999994,None,num_6,0.38282570000001215,289.34198689999994,286.8095464000003,sad,1,Sad,289.75297138999986,None,None,289.75297138999986,None,,,,,,,,,,,,,,,,,,,,,,,,,,,,,,,,,,,,,,,,,,,,,,,,,,,,,11,001,female,20,425,425,2022_Sep_05_1044,Experiment,2021.1.4,360.20848867122595,
images\S10_M_H_01.png,images\S10_M_H_01_scrambled.png,10,happy,10,male,4,,295,off,1,0.5,0.75,0.5,0.856,3,294,2,1,1,0,0,0,0,4,,,,,,0,3,3,3,,,,,,,,,,,,,,,,,,,,,,,,,,,,,,,,,,,,,,,,,,,,,,,,,,,,,,,,,289.8251723000003,290.32501660000025,290.32501660000025,291.07768669999996,291.07768669999996,291.5774136,291.5774136,292.4327053000002,292.4327053000002,None,num_4,0.48421689999986484,292.4327053000002,None,happy,1,Happy,292.92700453999987,None,None,292.92700453999987,None,,,,,,,,,,,,,,,,,,,,,,,,,,,,,,,,,,,,,,,,,,,,,,,,,,,,,11,001,female,20,425,425,2022_Sep_05_1044,Experiment,2021.1.4,360.20848867122595,
images\S4_M_H_03.png,images\S4_M_H_03_scrambled.png,4,happy,30,male,6,,501,off,1,0.5,0.75,0.5,0.948,3,500,3,1,1,0,0,0,0,6,,,,,,0,4,4,4,,,,,,,,,,,,,,,,,,,,,,,,,,,,,,,,,,,,,,,,,,,,,,,,,,,,,,,,,292.98809530000017,293.49072990000013,293.49072990000013,294.2433669000002,294.2433669000002,294.7458895,294.7458895,295.69835809999995,295.69835809999995,None,num_4,0.24239799999986644,295.69835809999995,None,happy,1,Happy,295.96225147999985,None,None,295.96225147999985,None,,,,,,,,,,,,,,,,,,,,,,,,,,,,,,,,,,,,,,,,,,,,,,,,,,,,,11,001,female,20,425,425,2022_Sep_05_1044,Experiment,2021.1.4,360.20848867122595,
images\S3_F_H_01.png,images\S3_F_H_01_scrambled.png,3,happy,10,female,4,,433,on,2,0.5,0.75,0.5,0.865,3,432,1,1,1,2,2,32,128,164,,,,,,0,5,5,5,,,,,,,,,,,,,,,,,,,,,,,,,,,,,,,,,,,,,,,,,,,,,,,,,,,,,,,,,296.03437510000003,296.53699830000005,296.53699830000005,297.28676970000015,297.28676970000015,297.78666390000035,297.78666390000035,298.6586999000001,298.6586999000001,None,num_4,0.370351799999753,298.6586999000001,None,happy,1,Happy,299.05295798,None,None,299.05295798,None,,,,,,,,,,,,,,,,,,,,,,,,,,,,,,,,,,,,,,,,,,,,,,,,,,,,,11,001,female,20,425,425,2022_Sep_05_1044,Experiment,2021.1.4,360.20848867122595,
images\S10_M_S_01.png,images\S10_M_S_01_scrambled.png,10,sad,-10,male,3,,598,on,2,0.5,0.75,0.5,0.933,3,597,2,1,1,2,2,32,128,163,,,,,,0,6,6,6,,,,,,,,,,,,,,,,,,,,,,,,,,,,,,,,,,,,,,,,,,,,,,,,,,,,,,,,,299.1223126,299.62495720000015,299.62495720000015,300.3774776,300.3774776,300.8829899000002,300.8829899000002,301.81591730000036,301.81591730000036,None,num_4,0.2770242000001417,301.81591730000036,None,happy,1,Sad,302.1020729300003,None,None,302.1020729300003,None,,,,,,,,,,,,,,,,,,,,,,,,,,,,,,,,,,,,,,,,,,,,,,,,,,,,,11,001,female,20,425,425,2022_Sep_05_1044,Experiment,2021.1.4,360.20848867122595,
images\S5_F_H_03.png,images\S5_F_H_03_scrambled.png,5,happy,30,female,6,,387,off,1,0.5,0.75,0.5,0.925,3,386,1,1,1,0,0,0,0,6,,,,,,0,7,7,7,,,,,,,,,,,,,,,,,,,,,,,,,,,,,,,,,,,,,,,,,,,,,,,,,,,,,,,,,302.1796953000003,302.68231920000017,302.68231920000017,303.43777150000005,303.43777150000005,303.93749670000034,303.93749670000034,304.86502180000025,304.86502180000025,None,num_4,0.25172840000004726,304.86502180000025,None,happy,1,Happy,305.1315724400001,None,None,305.1315724400001,None,,,,,,,,,,,,,,,,,,,,,,,,,,,,,,,,,,,,,,,,,,,,,,,,,,,,,11,001,female,20,425,425,2022_Sep_05_1044,Experiment,2021.1.4,360.20848867122595,
images\S7_F_H_03.png,images\S7_F_H_03_scrambled.png,7,happy,30,female,6,,339,on,2,0.5,0.75,0.5,0.942,3,338,1,1,2,2,2,32,128,166,,,,,,0,8,8,8,,,,,,,,,,,,,,,,,,,,,,,,,,,,,,,,,,,,,,,,,,,,,,,,,,,,,,,,,305.19267100000025,305.69531010000037,305.69531010000037,306.44786890000023,306.44786890000023,306.9504799000001,306.9504799000001,307.89464420000013,307.89464420000013,None,num_4,0.27027240000006714,307.89464420000013,None,happy,1,Happy,308.17507564000016,None,None,308.17507564000016,None,,,,,,,,,,,,,,,,,,,,,,,,,,,,,,,,,,,,,,,,,,,,,,,,,,,,,11,001,female,20,425,425,2022_Sep_05_1044,Experiment,2021.1.4,360.20848867122595,
images\S8_M_H_03.png,images\S8_M_H_03_scrambled.png,8,happy,30,male,6,,225,on,2,0.5,0.75,0.5,0.847,3,224,2,1,3,2,2,32,128,166,,,,,,0,9,9,9,,,,,,,,,,,,,,,,,,,,,,,,,,,,,,,,,,,,,,,,,,,,,,,,,,,,,,,,,308.2333871000001,308.7360281000001,308.7360281000001,309.4886937000001,309.4886937000001,309.99117430000024,309.99117430000024,310.84093520000033,310.84093520000033,None,num_4,0.28394070000013016,310.84093520000033,None,happy,1,Happy,311.13805734000016,None,None,311.13805734000016,None,,,,,,,,,,,,,,,,,,,,,,,,,,,,,,,,,,,,,,,,,,,,,,,,,,,,,11,001,female,20,425,425,2022_Sep_05_1044,Experiment,2021.1.4,360.20848867122595,
images\S2_M_H_02.png,images\S2_M_H_02_scrambled.png,2,happy,20,male,5,,488,off,1,0.5,0.75,0.5,0.94,3,487,1,1,1,0,0,0,0,5,,,,,,0,10,10,10,,,,,,,,,,,,,,,,,,,,,,,,,,,,,,,,,,,,,,,,,,,,,,,,,,,,,,,,,311.1963770000002,311.70176630000014,311.70176630000014,312.45435210000005,312.45435210000005,312.9597533000001,312.9597533000001,313.9039461000002,313.9039461000002,None,num_4,0.5166871000001265,313.9039461000002,None,happy,1,Happy,314.4342562500001,None,None,314.4342562500001,None,,,,,,,,,,,,,,,,,,,,,,,,,,,,,,,,,,,,,,,,,,,,,,,,,,,,,11,001,female,20,425,425,2022_Sep_05_1044,Experiment,2021.1.4,360.20848867122595,
images\S9_F_S_02.png,images\S9_F_S_02_scrambled.png,9,sad,-20,female,2,,353,on,2,0.5,0.75,0.5,0.907,3,352,1,1,1,2,2,32,128,162,,,,,,0,11,11,11,,,,,,,,,,,,,,,,,,,,,,,,,,,,,,,,,,,,,,,,,,,,,,,,,,,,,,,,,314.5009064000001,315.00630450000017,315.00630450000017,315.7589637000001,315.7589637000001,316.26428699999997,316.26428699999997,317.1722995,317.1722995,None,num_6,0.2725713999998334,317.1722995,None,sad,1,Sad,317.4583251500003,None,None,317.4583251500003,None,,,,,,,,,,,,,,,,,,,,,,,,,,,,,,,,,,,,,,,,,,,,,,,,,,,,,11,001,female,20,425,425,2022_Sep_05_1044,Experiment,2021.1.4,360.20848867122595,
images\S6_M_S_01.png,images\S6_M_S_01_scrambled.png,6,sad,-10,male,3,,94,on,2,0.5,0.75,0.5,0.947,3,93,2,1,1,2,2,32,128,163,,,,,,0,12,12,12,,,,,,,,,,,,,,,,,,,,,,,,,,,,,,,,,,,,,,,,,,,,,,,,,,,,,,,,,317.5166432000001,318.01930200000015,318.01930200000015,318.77181150000024,318.77181150000024,319.27165379999997,319.27165379999997,320.2241991000001,320.2241991000001,None,num_4,1.0846880000003694,320.2241991000001,None,happy,1,Sad,321.3182429200001,None,None,321.3182429200001,None,,,,,,,,,,,,,,,,,,,,,,,,,,,,,,,,,,,,,,,,,,,,,,,,,,,,,11,001,female,20,425,425,2022_Sep_05_1044,Experiment,2021.1.4,360.20848867122595,
images\S5_F_S_01.png,images\S5_F_S_01_scrambled.png,5,sad,-10,female,3,,28,off,1,0.5,0.75,0.5,0.861,3,27,1,1,2,0,0,0,0,3,,,,,,0,13,13,13,,,,,,,,,,,,,,,,,,,,,,,,,,,,,,,,,,,,,,,,,,,,,,,,,,,,,,,,,321.3737962,321.87362970000004,321.87362970000004,322.6290006000004,322.6290006000004,323.13439530000005,323.13439530000005,324.000767,324.000767,None,num_6,1.1481182000002264,324.000767,None,sad,1,Sad,325.1615059400001,None,None,325.1615059400001,None,,,,,,,,,,,,,,,,,,,,,,,,,,,,,,,,,,,,,,,,,,,,,,,,,,,,,11,001,female,20,425,425,2022_Sep_05_1044,Experiment,2021.1.4,360.20848867122595,
images\S1_F_H_03.png,images\S1_F_H_03_scrambled.png,1,happy,30,female,6,,183,on,2,0.5,0.75,0.5,0.781,3,182,1,1,1,2,2,32,128,166,,,,,,0,14,14,14,,,,,,,,,,,,,,,,,,,,,,,,,,,,,,,,,,,,,,,,,,,,,,,,,,,,,,,,,325.2253452,325.72814130000006,325.72814130000006,326.47776569999996,326.47776569999996,326.9804130000002,326.9804130000002,327.7635974,327.7635974,None,num_4,0.5531381000000692,327.7635974,None,happy,1,Happy,328.33838547000005,None,None,328.33838547000005,None,,,,,,,,,,,,,,,,,,,,,,,,,,,,,,,,,,,,,,,,,,,,,,,,,,,,,11,001,female,20,425,425,2022_Sep_05_1044,Experiment,2021.1.4,360.20848867122595,
images\S3_F_S_03.png,images\S3_F_S_03_scrambled.png,3,sad,-30,female,1,,18,off,1,0.5,0.75,0.5,0.753,3,17,1,1,1,0,0,0,0,1,,,,,,0,15,15,15,,,,,,,,,,,,,,,,,,,,,,,,,,,,,,,,,,,,,,,,,,,,,,,,,,,,,,,,,328.3966241000003,328.89929870000014,328.89929870000014,329.65459869999995,329.65459869999995,330.1572142,330.1572142,330.9153133,330.9153133,None,num_6,0.433403399999861,330.9153133,None,sad,1,Sad,331.3680513700001,None,None,331.3680513700001,None,,,,,,,,,,,,,,,,,,,,,,,,,,,,,,,,,,,,,,,,,,,,,,,,,,,,,11,001,female,20,425,425,2022_Sep_05_1044,Experiment,2021.1.4,360.20848867122595,
images\S2_M_S_02.png,images\S2_M_S_02_scrambled.png,2,sad,-20,male,2,,431,on,2,0.5,0.75,0.5,0.775,3,430,1,1,1,2,2,32,128,162,,,,,,0,16,16,16,,,,,,,,,,,,,,,,,,,,,,,,,,,,,,,,,,,,,,,,,,,,,,,,,,,,,,,,,331.4179118000002,331.9177565,331.9177565,332.66752510000015,332.66752510000015,333.16736770000034,333.16736770000034,333.94490210000004,333.94490210000004,None,num_4,0.8518276999998307,333.94490210000004,None,happy,1,Sad,334.80298242000026,None,None,334.80298242000026,None,,,,,,,,,,,,,,,,,,,,,,,,,,,,,,,,,,,,,,,,,,,,,,,,,,,,,11,001,female,20,425,425,2022_Sep_05_1044,Experiment,2021.1.4,360.20848867122595,
images\S8_M_S_03.png,images\S8_M_S_03_scrambled.png,8,sad,-30,male,1,,228,on,2,0.5,0.75,0.5,0.751,3,227,2,1,1,2,2,32,128,161,,,,,,0,17,17,17,,,,,,,,,,,,,,,,,,,,,,,,,,,,,,,,,,,,,,,,,,,,,,,,,,,,,,,,,334.86129960000017,335.3639704000002,335.3639704000002,336.1192940000001,336.1192940000001,336.6246736000003,336.6246736000003,337.3827534000002,337.3827534000002,None,num_6,0.5419600999998693,337.3827534000002,None,sad,1,Sad,337.94927498000015,None,None,337.94927498000015,None,,,,,,,,,,,,,,,,,,,,,,,,,,,,,,,,,,,,,,,,,,,,,,,,,,,,,11,001,female,20,425,425,2022_Sep_05_1044,Experiment,2021.1.4,360.20848867122595,
images\S1_F_H_02.png,images\S1_F_H_02_scrambled.png,1,happy,20,female,5,,242,off,1,0.5,0.75,0.5,0.802,3,241,1,1,1,0,0,0,0,5,,,,,,0,18,18,18,,,,,,,,,,,,,,,,,,,,,,,,,,,,,,,,,,,,,,,,,,,,,,,,,,,,,,,,,338.015891,338.5157180000001,338.5157180000001,339.2684000000004,339.2684000000004,339.76810790000036,339.76810790000036,340.5735684000001,340.5735684000001,None,num_4,0.3351058000002922,340.5735684000001,None,happy,1,Happy,340.93446387999984,None,None,340.93446387999984,None,,,,,,,,,,,,,,,,,,,,,,,,,,,,,,,,,,,,,,,,,,,,,,,,,,,,,11,001,female,20,425,425,2022_Sep_05_1044,Experiment,2021.1.4,360.20848867122595,
images\blank.jpg,images\blank.jpg,none,none,none,none,0,,628,on,2,0.5,0.75,0.5,0.911,0,627,1,1,1,3,3,48,192,240,,,,,,0,19,19,19,,,,,,,,,,,,,,,,,,,,,,,,,,,,,,,,,,,,,,,,,,,,,,,,,,,,,,,,,341.03460740000037,341.5397912000003,341.5397912000003,342.2923731000001,342.2923731000001,342.7978803000001,342.7978803000001,343.7141590000001,343.7141590000001,343.7141590000001,None,,343.7141590000001,None,miss,1,,346.71599371,None,None,346.71599371,None,,,,,,,,,,,,,,,,,,,,,,,,,,,,,,,,,,,,,,,,,,,,,,,,,,,,,11,001,female,20,425,425,2022_Sep_05_1044,Experiment,2021.1.4,360.20848867122595,
images\S9_F_S_02.png,images\S9_F_S_02_scrambled.png,9,sad,-20,female,2,,473,on,2,0.5,0.75,0.5,0.932,3,472,2,1,1,2,2,32,128,162,,,,,,0,20,20,20,,,,,,,,,,,,,,,,,,,,,,,,,,,,,,,,,,,,,,,,,,,,,,,,,,,,,,,,,346.8300835,347.3352525,347.3352525,348.09056450000026,348.09056450000026,348.5933060000002,348.5933060000002,349.5289907000001,349.5289907000001,None,num_6,0.7236046999996688,349.5289907000001,346.8300835,sad,1,Sad,350.2648719399999,None,None,350.2648719399999,None,,,,,,,,,,,,,,,,,,,,,,,,,,,,,,,,,,,,,,,,,,,,,,,,,,,,,11,001,female,20,425,425,2022_Sep_05_1044,Experiment,2021.1.4,360.20848867122595,
images\S10_M_S_01.png,images\S10_M_S_01_scrambled.png,10,sad,-10,male,3,,478,on,2,0.5,0.75,0.5,0.925,3,477,3,1,1,2,2,32,128,163,,,,,,0,21,21,21,,,,,,,,,,,,,,,,,,,,,,,,,,,,,,,,,,,,,,,,,,,,,,,,,,,,,,,,,350.31486399999994,350.81763200000023,350.81763200000023,351.56729399999995,351.56729399999995,352.0699013000003,352.0699013000003,352.99736770000027,352.99736770000027,None,num_4,0.26333400000021356,352.99736770000027,None,happy,1,Sad,353.2750853299999,None,None,353.2750853299999,None,,,,,,,,,,,,,,,,,,,,,,,,,,,,,,,,,,,,,,,,,,,,,,,,,,,,,11,001,female,20,425,425,2022_Sep_05_1044,Experiment,2021.1.4,360.20848867122595,
images\S5_F_S_02.png,images\S5_F_S_02_scrambled.png,5,sad,-20,female,2,,569,on,2,0.5,0.75,0.5,0.903,3,568,4,1,1,2,2,32,128,162,,,,,,0,22,22,22,,,,,,,,,,,,,,,,,,,,,,,,,,,,,,,,,,,,,,,,,,,,,,,,,,,,,,,,,353.3694805,353.8749194000002,353.8749194000002,354.6302289,354.6302289,355.13005840000005,355.13005840000005,356.0353481000002,356.0353481000002,None,num_6,0.5135356999999203,356.0353481000002,None,sad,1,Sad,356.56570083999986,None,None,356.56570083999986,None,,,,,,,,,,,,,,,,,,,,,,,,,,,,,,,,,,,,,,,,,,,,,,,,,,,,,11,001,female,20,425,425,2022_Sep_05_1044,Experiment,2021.1.4,360.20848867122595,
images\S3_F_S_02.png,images\S3_F_S_02_scrambled.png,3,sad,-20,female,2,,497,off,1,0.5,0.75,0.5,0.803,3,496,1,1,2,0,0,0,0,2,,,,,,0,23,23,23,,,,,,,,,,,,,,,,,,,,,,,,,,,,,,,,,,,,,,,,,,,,,,,,,,,,,,,,,356.6268094000002,357.1266456000003,357.1266456000003,357.87918960000025,357.87918960000025,358.3846418000003,358.3846418000003,359.1899314000002,359.1899314000002,None,num_6,0.2787028999996437,359.1899314000002,None,sad,1,Sad,359.48148334000007,None,None,359.48148334000007,None,,,,,,,,,,,,,,,,,,,,,,,,,,,,,,,,,,,,,,,,,,,,,,,,,,,,,11,001,female,20,425,425,2022_Sep_05_1044,Experiment,2021.1.4,360.20848867122595,
images\S7_F_H_01.png,images\S7_F_H_01_scrambled.png,7,happy,10,female,4,,397,off,1,0.5,0.75,0.5,0.769,3,396,2,1,1,0,0,0,0,4,,,,,,0,24,24,24,,,,,,,,,,,,,,,,,,,,,,,,,,,,,,,,,,,,,,,,,,,,,,,,,,,,,,,,,359.5398858000003,360.04241850000017,360.04241850000017,360.79497740000033,360.79497740000033,361.29771200000005,361.29771200000005,362.06679140000006,362.06679140000006,None,num_4,0.22602490000008402,362.06679140000006,None,happy,1,Happy,362.3028361400002,None,None,362.3028361400002,None,,,,,,,,,,,,,,,,,,,,,,,,,,,,,,,,,,,,,,,,,,,,,,,,,,,,,11,001,female,20,425,425,2022_Sep_05_1044,Experiment,2021.1.4,360.20848867122595,
images\blank.jpg,images\blank.jpg,none,none,none,none,0,,635,on,2,0.5,0.75,0.5,0.766,0,634,1,1,1,3,3,48,192,240,,,,,,0,25,25,25,,,,,,,,,,,,,,,,,,,,,,,,,,,,,,,,,,,,,,,,,,,,,,,,,,,,,,,,,362.3863672000002,362.8859921000003,362.8859921000003,363.6413189,363.6413189,364.1439883000003,364.1439883000003,364.91326389999995,364.91326389999995,364.91326389999995,None,,364.91326389999995,None,miss,1,,367.9150047100002,None,None,367.9150047100002,None,,,,,,,,,,,,,,,,,,,,,,,,,,,,,,,,,,,,,,,,,,,,,,,,,,,,,11,001,female,20,425,425,2022_Sep_05_1044,Experiment,2021.1.4,360.20848867122595,
images\S5_F_S_01.png,images\S5_F_S_01_scrambled.png,5,sad,-10,female,3,,148,off,1,0.5,0.75,0.5,0.823,3,147,1,1,1,0,0,0,0,3,,,,,,0,26,26,26,,,,,,,,,,,,,,,,,,,,,,,,,,,,,,,,,,,,,,,,,,,,,,,,,,,,,,,,,368.0318701000001,368.53423969999994,368.53423969999994,369.2895668000001,369.2895668000001,369.79223070000035,369.79223070000035,370.61693190000005,370.61693190000005,None,num_6,1.0356857000001582,370.61693190000005,368.0318701000001,sad,1,Sad,371.6638406400002,None,None,371.6638406400002,None,,,,,,,,,,,,,,,,,,,,,,,,,,,,,,,,,,,,,,,,,,,,,,,,,,,,,11,001,female,20,425,425,2022_Sep_05_1044,Experiment,2021.1.4,360.20848867122595,
images\S4_M_H_01.png,images\S4_M_H_01_scrambled.png,4,happy,10,male,4,,379,off,1,0.5,0.75,0.5,0.844,3,378,2,1,1,0,0,0,0,4,,,,,,0,27,27,27,,,,,,,,,,,,,,,,,,,,,,,,,,,,,,,,,,,,,,,,,,,,,,,,,,,,,,,,,371.74714300000005,372.2497636000003,372.2497636000003,373.00235090000024,373.00235090000024,373.50496360000034,373.50496360000034,374.35471180000013,374.35471180000013,None,num_6,0.3220025999999052,374.35471180000013,None,sad,1,Happy,374.6851624300002,None,None,374.6851624300002,None,,,,,,,,,,,,,,,,,,,,,,,,,,,,,,,,,,,,,,,,,,,,,,,,,,,,,11,001,female,20,425,425,2022_Sep_05_1044,Experiment,2021.1.4,360.20848867122595,
images\S2_M_H_01.png,images\S2_M_H_01_scrambled.png,2,happy,10,male,4,,127,off,1,0.5,0.75,0.5,0.751,3,126,3,1,2,0,0,0,0,4,,,,,,0,28,28,28,,,,,,,,,,,,,,,,,,,,,,,,,,,,,,,,,,,,,,,,,,,,,,,,,,,,,,,,,374.7546504000002,375.2543991000002,375.2543991000002,376.00416840000025,376.00416840000025,376.50401060000013,376.50401060000013,377.2593885000001,377.2593885000001,None,num_6,0.2812448999998196,377.2593885000001,None,sad,1,Happy,377.5481297199999,None,None,377.5481297199999,None,,,,,,,,,,,,,,,,,,,,,,,,,,,,,,,,,,,,,,,,,,,,,,,,,,,,,11,001,female,20,425,425,2022_Sep_05_1044,Experiment,2021.1.4,360.20848867122595,
images\S2_M_S_03.png,images\S2_M_S_03_scrambled.png,2,sad,-30,male,1,,252,off,1,0.5,0.75,0.5,0.921,3,251,4,2,1,0,0,0,0,1,,,,,,0,29,29,29,,,,,,,,,,,,,,,,,,,,,,,,,,,,,,,,,,,,,,,,,,,,,,,,,,,,,,,,,377.6204166000002,378.1257505000003,378.1257505000003,378.8754979,378.8754979,379.3782604000003,379.3782604000003,380.30298089999997,380.30298089999997,None,num_6,0.573621600000024,380.30298089999997,None,sad,1,Sad,380.8915491400003,None,None,380.8915491400003,None,,,,,,,,,,,,,,,,,,,,,,,,,,,,,,,,,,,,,,,,,,,,,,,,,,,,,11,001,female,20,425,425,2022_Sep_05_1044,Experiment,2021.1.4,360.20848867122595,
images\S9_F_S_01.png,images\S9_F_S_01_scrambled.png,9,sad,-10,female,3,,112,on,2,0.5,0.75,0.5,0.906,3,111,1,1,1,2,2,32,128,163,,,,,,0,30,30,30,,,,,,,,,,,,,,,,,,,,,,,,,,,,,,,,,,,,,,,,,,,,,,,,,,,,,,,,,380.94997650000005,381.4497031000001,381.4497031000001,382.2022505,382.2022505,382.7077878,382.7077878,383.6186095000003,383.6186095000003,None,num_4,0.4819801999997253,383.6186095000003,None,happy,1,Sad,384.1072264200002,None,None,384.1072264200002,None,,,,,,,,,,,,,,,,,,,,,,,,,,,,,,,,,,,,,,,,,,,,,,,,,,,,,11,001,female,20,425,425,2022_Sep_05_1044,Experiment,2021.1.4,360.20848867122595,
images\S2_M_H_01.png,images\S2_M_H_01_scrambled.png,2,happy,10,male,4,,307,on,2,0.5,0.75,0.5,0.856,3,306,2,1,1,2,2,32,128,164,,,,,,0,31,31,31,,,,,,,,,,,,,,,,,,,,,,,,,,,,,,,,,,,,,,,,,,,,,,,,,,,,,,,,,384.1572136,384.6598293000002,384.6598293000002,385.40959599999996,385.40959599999996,385.90944750000017,385.90944750000017,386.76473060000035,386.76473060000035,None,num_4,0.4881806000003053,386.76473060000035,None,happy,1,Happy,387.2701305400001,None,None,387.2701305400001,None,,,,,,,,,,,,,,,,,,,,,,,,,,,,,,,,,,,,,,,,,,,,,,,,,,,,,11,001,female,20,425,425,2022_Sep_05_1044,Experiment,2021.1.4,360.20848867122595,
images\S8_M_S_03.png,images\S8_M_S_03_scrambled.png,8,sad,-30,male,1,,348,on,2,0.5,0.75,0.5,0.79,3,347,3,1,1,2,2,32,128,161,,,,,,0,32,32,32,,,,,,,,,,,,,,,,,,,,,,,,,,,,,,,,,,,,,,,,,,,,,,,,,,,,,,,,,387.31735630000003,387.8199909,387.8199909,388.5697408000001,388.5697408000001,389.0723567,389.0723567,389.86656489999996,389.86656489999996,None,num_6,0.26619490000030055,389.86656489999996,None,sad,1,Sad,390.15824096999995,None,None,390.15824096999995,None,,,,,,,,,,,,,,,,,,,,,,,,,,,,,,,,,,,,,,,,,,,,,,,,,,,,,11,001,female,20,425,425,2022_Sep_05_1044,Experiment,2021.1.4,360.20848867122595,
images\S1_F_S_02.png,images\S1_F_S_02_scrambled.png,1,sad,-20,female,2,,365,off,1,0.5,0.75,0.5,0.81,3,364,1,1,1,0,0,0,0,2,,,,,,0,33,33,33,,,,,,,,,,,,,,,,,,,,,,,,,,,,,,,,,,,,,,,,,,,,,,,,,,,,,,,,,390.2664528,390.7691200000004,390.7691200000004,391.52443330000006,391.52443330000006,392.0298122000004,392.0298122000004,392.8435364000002,392.8435364000002,None,num_4,0.41711850000001505,392.8435364000002,None,happy,1,Sad,393.2739499300001,None,None,393.2739499300001,None,,,,,,,,,,,,,,,,,,,,,,,,,,,,,,,,,,,,,,,,,,,,,,,,,,,,,11,001,female,20,425,425,2022_Sep_05_1044,Experiment,2021.1.4,360.20848867122595,
images\S9_F_H_01.png,images\S9_F_H_01_scrambled.png,9,happy,10,female,4,,109,on,2,0.5,0.75,0.5,0.916,3,108,1,1,1,2,2,32,128,164,,,,,,0,34,34,34,,,,,,,,,,,,,,,,,,,,,,,,,,,,,,,,,,,,,,,,,,,,,,,,,,,,,,,,,393.34882050000033,393.8542529000001,393.8542529000001,394.60398680000026,394.60398680000026,395.10942220000015,395.10942220000015,396.02576510000017,396.02576510000017,None,num_4,0.28296729999965464,396.02576510000017,None,happy,1,Happy,396.33404968000013,None,None,396.33404968000013,None,,,,,,,,,,,,,,,,,,,,,,,,,,,,,,,,,,,,,,,,,,,,,,,,,,,,,11,001,female,20,425,425,2022_Sep_05_1044,Experiment,2021.1.4,360.20848867122595,
images\S9_F_H_03.png,images\S9_F_H_03_scrambled.png,9,happy,30,female,6,,231,on,2,0.5,0.75,0.5,0.763,3,230,2,2,1,2,2,32,128,166,,,,,,0,35,35,35,,,,,,,,,,,,,,,,,,,,,,,,,,,,,,,,,,,,,,,,,,,,,,,,,,,,,,,,,396.4089874000001,396.91442159999997,396.91442159999997,397.6641576000002,397.6641576000002,398.16958999999997,398.16958999999997,398.9388320000003,398.9388320000003,None,num_4,0.3297765000002073,398.9388320000003,None,happy,1,Happy,399.29423748,None,None,399.29423748,None,,,,,,,,,,,,,,,,,,,,,,,,,,,,,,,,,,,,,,,,,,,,,,,,,,,,,11,001,female,20,425,425,2022_Sep_05_1044,Experiment,2021.1.4,360.20848867122595,
images\S4_M_H_01.png,images\S4_M_H_01_scrambled.png,4,happy,10,male,4,,139,off,1,0.5,0.75,0.5,0.91,3,138,1,1,1,0,0,0,0,4,,,,,,0,36,36,36,,,,,,,,,,,,,,,,,,,,,,,,,,,,,,,,,,,,,,,,,,,,,,,,,,,,,,,,,399.3580812,399.8579173000003,399.8579173000003,400.6077163,400.6077163,401.1132427000002,401.1132427000002,402.0267414,402.0267414,None,num_6,0.7620366999999533,402.0267414,None,sad,1,Happy,402.79877363000014,None,None,402.79877363000014,None,,,,,,,,,,,,,,,,,,,,,,,,,,,,,,,,,,,,,,,,,,,,,,,,,,,,,11,001,female,20,425,425,2022_Sep_05_1044,Experiment,2021.1.4,360.20848867122595,
images\S10_M_S_02.png,images\S10_M_S_02_scrambled.png,10,sad,-20,male,2,,119,on,2,0.5,0.75,0.5,0.901,3,118,1,1,1,2,2,32,128,162,,,,,,0,37,37,37,,,,,,,,,,,,,,,,,,,,,,,,,,,,,,,,,,,,,,,,,,,,,,,,,,,,,,,,,402.8681114000001,403.3735965000001,403.3735965000001,404.12328960000013,404.12328960000013,404.62870710000016,404.62870710000016,405.5339925000003,405.5339925000003,None,num_4,0.3185902999998689,405.5339925000003,None,happy,1,Sad,405.86448952,None,None,405.86448952,None,,,,,,,,,,,,,,,,,,,,,,,,,,,,,,,,,,,,,,,,,,,,,,,,,,,,,11,001,female,20,425,425,2022_Sep_05_1044,Experiment,2021.1.4,360.20848867122595,
images\S2_M_S_01.png,images\S2_M_S_01_scrambled.png,2,sad,-10,male,3,,70,on,2,0.5,0.75,0.5,0.758,3,69,2,1,1,2,2,32,128,163,,,,,,0,38,38,38,,,,,,,,,,,,,,,,,,,,,,,,,,,,,,,,,,,,,,,,,,,,,,,,,,,,,,,,,405.94215950000034,406.44200520000004,406.44200520000004,407.19458010000017,407.19458010000017,407.6999657000001,407.6999657000001,408.46368570000004,408.46368570000004,None,num_4,0.9248958000002858,408.46368570000004,None,happy,1,Sad,409.39387822000026,None,None,409.39387822000026,None,,,,,,,,,,,,,,,,,,,,,,,,,,,,,,,,,,,,,,,,,,,,,,,,,,,,,11,001,female,20,425,425,2022_Sep_05_1044,Experiment,2021.1.4,360.20848867122595,
images\S10_M_H_01.png,images\S10_M_H_01_scrambled.png,10,happy,10,male,4,,475,on,2,0.5,0.75,0.5,0.796,3,474,3,1,1,2,2,32,128,164,,,,,,0,39,39,39,,,,,,,,,,,,,,,,,,,,,,,,,,,,,,,,,,,,,,,,,,,,,,,,,,,,,,,,,409.4410839000002,409.9437879000002,409.9437879000002,410.69907330000024,410.69907330000024,411.2044625000003,411.2044625000003,412.0042125,412.0042125,None,num_4,0.47238400000014735,412.0042125,None,happy,1,Happy,412.4873611400003,None,None,412.4873611400003,None,,,,,,,,,,,,,,,,,,,,,,,,,,,,,,,,,,,,,,,,,,,,,,,,,,,,,11,001,female,20,425,425,2022_Sep_05_1044,Experiment,2021.1.4,360.20848867122595,
images\S7_F_S_01.png,images\S7_F_S_01_scrambled.png,7,sad,-10,female,3,,100,on,2,0.5,0.75,0.5,0.86,3,99,4,1,1,2,2,32,128,163,,,,,,0,40,40,40,,,,,,,,,,,,,,,,,,,,,,,,,,,,,,,,,,,,,,,,,,,,,,,,,,,,,,,,,412.5456822000001,413.0510846000002,413.0510846000002,413.8037535000003,413.8037535000003,414.30346260000033,414.30346260000033,415.1670887000005,415.1670887000005,None,num_4,0.4613954000005833,415.1670887000005,None,happy,1,Sad,415.6336135200004,None,None,415.6336135200004,None,,,,,,,,,,,,,,,,,,,,,,,,,,,,,,,,,,,,,,,,,,,,,,,,,,,,,11,001,female,20,425,425,2022_Sep_05_1044,Experiment,2021.1.4,360.20848867122595,
images\S1_F_S_03.png,images\S1_F_S_03_scrambled.png,1,sad,-30,female,1,,186,on,2,0.5,0.75,0.5,0.882,3,185,5,1,1,2,2,32,128,161,,,,,,0,41,41,41,,,,,,,,,,,,,,,,,,,,,,,,,,,,,,,,,,,,,,,,,,,,,,,,,,,,,,,,,415.6891548999997,416.1917795000004,416.1917795000004,416.94154370000024,416.94154370000024,417.44138859999975,417.44138859999975,418.3300328999999,418.3300328999999,None,num_6,0.3866040000002613,418.3300328999999,None,sad,1,Sad,418.7326601499999,None,None,418.7326601499999,None,,,,,,,,,,,,,,,,,,,,,,,,,,,,,,,,,,,,,,,,,,,,,,,,,,,,,11,001,female,20,425,425,2022_Sep_05_1044,Experiment,2021.1.4,360.20848867122595,
images\S5_F_S_01.png,images\S5_F_S_01_scrambled.png,5,sad,-10,female,3,,568,on,2,0.5,0.75,0.5,0.801,3,567,6,1,1,2,2,32,128,163,,,,,,0,42,42,42,,,,,,,,,,,,,,,,,,,,,,,,,,,,,,,,,,,,,,,,,,,,,,,,,,,,,,,,,418.7798754999999,419.28261020000036,419.28261020000036,420.0322605000006,420.0322605000006,420.53779150000037,420.53779150000037,421.34574530000054,421.34574530000054,None,num_4,0.2269458000000668,421.34574530000054,None,happy,1,Sad,421.58459183000014,None,None,421.58459183000014,None,,,,,,,,,,,,,,,,,,,,,,,,,,,,,,,,,,,,,,,,,,,,,,,,,,,,,11,001,female,20,425,425,2022_Sep_05_1044,Experiment,2021.1.4,360.20848867122595,
images\S9_F_S_03.png,images\S9_F_S_03_scrambled.png,9,sad,-30,female,1,,414,off,1,0.5,0.75,0.5,0.81,3,413,1,1,1,0,0,0,0,1,,,,,,0,43,43,43,,,,,,,,,,,,,,,,,,,,,,,,,,,,,,,,,,,,,,,,,,,,,,,,,,,,,,,,,421.65121690000024,422.1566065000002,422.1566065000002,422.9092033000002,422.9092033000002,423.4117749000002,423.4117749000002,424.22540010000057,424.22540010000057,None,num_6,0.4752581000002465,424.22540010000057,None,sad,1,Sad,424.72529757999973,None,None,424.72529757999973,None,,,,,,,,,,,,,,,,,,,,,,,,,,,,,,,,,,,,,,,,,,,,,,,,,,,,,11,001,female,20,425,425,2022_Sep_05_1044,Experiment,2021.1.4,360.20848867122595,
images\S3_F_H_01.png,images\S3_F_H_01_scrambled.png,3,happy,10,female,4,,193,on,2,0.5,0.75,0.5,0.766,3,192,1,1,1,2,2,32,128,164,,,,,,0,44,44,44,,,,,,,,,,,,,,,,,,,,,,,,,,,,,,,,,,,,,,,,,,,,,,,,,,,,,,,,,424.78913430000057,425.2945672999999,425.2945672999999,426.0498738000001,426.0498738000001,426.5552739,426.5552739,427.3244915,427.3244915,None,num_4,0.5442376999999397,427.3244915,None,happy,1,Happy,427.89372067999966,None,None,427.89372067999966,None,,,,,,,,,,,,,,,,,,,,,,,,,,,,,,,,,,,,,,,,,,,,,,,,,,,,,11,001,female,20,425,425,2022_Sep_05_1044,Experiment,2021.1.4,360.20848867122595,
images\S7_F_H_02.png,images\S7_F_H_02_scrambled.png,7,happy,20,female,5,,578,on,2,0.5,0.75,0.5,0.905,3,577,2,1,1,2,2,32,128,165,,,,,,0,45,45,45,,,,,,,,,,,,,,,,,,,,,,,,,,,,,,,,,,,,,,,,,,,,,,,,,,,,,,,,,427.96315189999996,428.4657834000004,428.4657834000004,429.21844629999987,429.21844629999987,429.72380120000025,429.72380120000025,430.6345849000004,430.6345849000004,None,num_4,0.3060650999996142,430.6345849000004,None,happy,1,Happy,430.95389574000046,None,None,430.95389574000046,None,,,,,,,,,,,,,,,,,,,,,,,,,,,,,,,,,,,,,,,,,,,,,,,,,,,,,11,001,female,20,425,425,2022_Sep_05_1044,Experiment,2021.1.4,360.20848867122595,
images\S4_M_H_03.png,images\S4_M_H_03_scrambled.png,4,happy,30,male,6,,21,off,1,0.5,0.75,0.5,0.832,3,20,1,1,1,0,0,0,0,6,,,,,,0,46,46,46,,,,,,,,,,,,,,,,,,,,,,,,,,,,,,,,,,,,,,,,,,,,,,,,,,,,,,,,,431.0039843999998,431.5093297999997,431.5093297999997,432.25904760000003,432.25904760000003,432.7644814999999,432.7644814999999,433.60032640000054,433.60032640000054,None,num_4,0.1963040999999066,433.60032640000054,None,happy,1,Happy,433.81413084999986,None,None,433.81413084999986,None,,,,,,,,,,,,,,,,,,,,,,,,,,,,,,,,,,,,,,,,,,,,,,,,,,,,,11,001,female,20,425,425,2022_Sep_05_1044,Experiment,2021.1.4,360.20848867122595,
images\S5_F_H_03.png,images\S5_F_H_03_scrambled.png,5,happy,30,female,6,,87,on,2,0.5,0.75,0.5,0.887,3,86,1,1,2,2,2,32,128,166,,,,,,0,47,47,47,,,,,,,,,,,,,,,,,,,,,,,,,,,,,,,,,,,,,,,,,,,,,,,,,,,,,,,,,433.8613304000005,434.36401160000014,434.36401160000014,435.1137233000004,435.1137233000004,435.6191598999999,435.6191598999999,436.5161413000001,436.5161413000001,None,num_4,0.31239349999941624,436.5161413000001,None,happy,1,Happy,436.8437440399998,None,None,436.8437440399998,None,,,,,,,,,,,,,,,,,,,,,,,,,,,,,,,,,,,,,,,,,,,,,,,,,,,,,11,001,female,20,425,425,2022_Sep_05_1044,Experiment,2021.1.4,360.20848867122595,
images\S9_F_H_01.png,images\S9_F_H_01_scrambled.png,9,happy,10,female,4,,49,off,1,0.5,0.75,0.5,0.879,3,48,1,1,1,0,0,0,0,4,,,,,,0,48,48,48,,,,,,,,,,,,,,,,,,,,,,,,,,,,,,,,,,,,,,,,,,,,,,,,,,,,,,,,,436.8938509000004,437.3991848999999,437.3991848999999,438.1488976000005,438.1488976000005,438.6487355000004,438.6487355000004,439.53462030000037,439.53462030000037,None,num_4,0.2780477999995128,439.53462030000037,None,happy,1,Happy,439.82616985000004,None,None,439.82616985000004,None,,,,,,,,,,,,,,,,,,,,,,,,,,,,,,,,,,,,,,,,,,,,,,,,,,,,,11,001,female,20,425,425,2022_Sep_05_1044,Experiment,2021.1.4,360.20848867122595,
images\S2_M_S_02.png,images\S2_M_S_02_scrambled.png,2,sad,-20,male,2,,11,off,1,0.5,0.75,0.5,0.827,3,10,2,1,1,0,0,0,0,2,,,,,,0,49,49,49,,,,,,,,,,,,,,,,,,,,,,,,,,,,,,,,,,,,,,,,,,,,,,,,,,,,,,,,,439.87336710000045,440.37884410000015,440.37884410000015,441.13131829999975,441.13131829999975,441.6339873000002,441.6339873000002,442.46426829999973,442.46426829999973,None,num_6,0.30832620000001043,442.46426829999973,None,sad,1,Sad,442.7975271800001,None,None,442.7975271800001,None,,,,,,,,,,,,,,,,,,,,,,,,,,,,,,,,,,,,,,,,,,,,,,,,,,,,,11,001,female,20,425,425,2022_Sep_05_1044,Experiment,2021.1.4,360.20848867122595,
images\S6_M_S_01.png,images\S6_M_S_01_scrambled.png,6,sad,-10,male,3,,514,off,1,0.5,0.75,0.5,0.803,3,513,3,1,1,0,0,0,0,3,,,,,,0,50,50,50,,,,,,,,,,,,,,,,,,,,,,,,,,,,,,,,,,,,,,,,,,,,,,,,,,,,,,,,,442.8530464999999,443.3585112000005,443.3585112000005,444.1082011000003,444.1082011000003,444.6136542999998,444.6136542999998,445.4189056,445.4189056,None,num_6,0.8335868999993181,445.4189056,None,sad,1,Sad,446.27419687999964,None,None,446.27419687999964,None,,,,,,,,,,,,,,,,,,,,,,,,,,,,,,,,,,,,,,,,,,,,,,,,,,,,,11,001,female,20,425,425,2022_Sep_05_1044,Experiment,2021.1.4,360.20848867122595,
images\S4_M_S_01.png,images\S4_M_S_01_scrambled.png,4,sad,-10,male,3,,22,off,1,0.5,0.75,0.5,0.79,3,21,4,1,2,0,0,0,0,3,,,,,,0,51,51,51,,,,,,,,,,,,,,,,,,,,,,,,,,,,,,,,,,,,,,,,,,,,,,,,,,,,,,,,,446.3852492000001,446.88800330000004,446.88800330000004,447.6404408000003,447.6404408000003,448.1458279000003,448.1458279000003,448.9400066000003,448.9400066000003,None,num_6,0.8647090000004027,448.9400066000003,None,sad,1,Sad,449.82040175999964,None,None,449.82040175999964,None,,,,,,,,,,,,,,,,,,,,,,,,,,,,,,,,,,,,,,,,,,,,,,,,,,,,,11,001,female,20,425,425,2022_Sep_05_1044,Experiment,2021.1.4,360.20848867122595,
images\S4_M_S_03.png,images\S4_M_S_03_scrambled.png,4,sad,-30,male,1,,384,off,1,0.5,0.75,0.5,0.844,3,383,5,2,1,0,0,0,0,1,,,,,,0,52,52,52,,,,,,,,,,,,,,,,,,,,,,,,,,,,,,,,,,,,,,,,,,,,,,,,,,,,,,,,,449.8952753999997,450.39800830000013,450.39800830000013,451.14769110000043,451.14769110000043,451.6475488000001,451.6475488000001,452.49451460000046,452.49451460000046,None,num_6,0.5020064999998795,452.49451460000046,None,sad,1,Sad,453.00820694000004,None,None,453.00820694000004,None,,,,,,,,,,,,,,,,,,,,,,,,,,,,,,,,,,,,,,,,,,,,,,,,,,,,,11,001,female,20,425,425,2022_Sep_05_1044,Experiment,2021.1.4,360.20848867122595,
images\S7_F_S_02.png,images\S7_F_S_02_scrambled.png,7,sad,-20,female,2,,401,off,1,0.5,0.75,0.5,0.874,3,400,6,1,1,0,0,0,0,2,,,,,,0,53,53,53,,,,,,,,,,,,,,,,,,,,,,,,,,,,,,,,,,,,,,,,,,,,,,,,,,,,,,,,,453.06374840000035,453.56636930000013,453.56636930000013,454.3189048999998,454.3189048999998,454.82434990000047,454.82434990000047,455.70463510000036,455.70463510000036,None,num_6,0.21187139999983629,455.70463510000036,None,sad,1,Sad,455.9295259500004,None,None,455.9295259500004,None,,,,,,,,,,,,,,,,,,,,,,,,,,,,,,,,,,,,,,,,,,,,,,,,,,,,,11,001,female,20,425,425,2022_Sep_05_1044,Experiment,2021.1.4,360.20848867122595,
images\S8_M_S_03.png,images\S8_M_S_03_scrambled.png,8,sad,-30,male,1,,588,on,2,0.5,0.75,0.5,0.851,3,587,1,1,1,2,2,32,128,161,,,,,,0,54,54,54,,,,,,,,,,,,,,,,,,,,,,,,,,,,,,,,,,,,,,,,,,,,,,,,,,,,,,,,,455.9767345000005,456.47658619999993,456.47658619999993,457.2291785000002,457.2291785000002,457.73456300000043,457.73456300000043,458.5898559000002,458.5898559000002,None,num_6,0.29471620000003895,458.5898559000002,None,sad,1,Sad,458.9092860799997,None,None,458.9092860799997,None,,,,,,,,,,,,,,,,,,,,,,,,,,,,,,,,,,,,,,,,,,,,,,,,,,,,,11,001,female,20,425,425,2022_Sep_05_1044,Experiment,2021.1.4,360.20848867122595,
images\S5_F_H_02.png,images\S5_F_H_02_scrambled.png,5,happy,20,female,5,,446,on,2,0.5,0.75,0.5,0.843,3,445,2,1,1,2,2,32,128,165,,,,,,0,55,55,55,,,,,,,,,,,,,,,,,,,,,,,,,,,,,,,,,,,,,,,,,,,,,,,,,,,,,,,,,458.97580960000005,459.48121480000054,459.48121480000054,460.2337637000005,460.2337637000005,460.7392077999998,460.7392077999998,461.58612070000027,461.58612070000027,None,num_4,0.3064561999999569,461.58612070000027,None,happy,1,Happy,461.90268744000014,None,None,461.90268744000014,None,,,,,,,,,,,,,,,,,,,,,,,,,,,,,,,,,,,,,,,,,,,,,,,,,,,,,11,001,female,20,425,425,2022_Sep_05_1044,Experiment,2021.1.4,360.20848867122595,
images\blank.jpg,images\blank.jpg,none,none,none,none,0,,650,on,2,0.5,0.75,0.5,0.941,0,649,3,1,1,3,3,48,192,240,,,,,,0,56,56,56,,,,,,,,,,,,,,,,,,,,,,,,,,,,,,,,,,,,,,,,,,,,,,,,,,,,,,,,,461.9863613000002,462.4886216,462.4886216,463.24400019999985,463.24400019999985,463.7493970999999,463.7493970999999,464.6935569000002,464.6935569000002,464.6935569000002,None,,464.6935569000002,None,miss,1,,467.69258831000025,None,None,467.69258831000025,None,,,,,,,,,,,,,,,,,,,,,,,,,,,,,,,,,,,,,,,,,,,,,,,,,,,,,11,001,female,20,425,425,2022_Sep_05_1044,Experiment,2021.1.4,360.20848867122595,
images\S7_F_S_01.png,images\S7_F_S_01_scrambled.png,7,sad,-10,female,3,,400,off,1,0.5,0.75,0.5,0.92,3,399,1,1,1,0,0,0,0,3,,,,,,0,57,57,57,,,,,,,,,,,,,,,,,,,,,,,,,,,,,,,,,,,,,,,,,,,,,,,,,,,,,,,,,467.80657999999994,468.3090414000003,468.3090414000003,469.0588165000004,469.0588165000004,469.5642493999999,469.5642493999999,470.4861428999998,470.4861428999998,None,num_6,0.2706103999998959,470.4861428999998,467.80657999999994,sad,1,Sad,470.77785097000015,None,None,470.77785097000015,None,,,,,,,,,,,,,,,,,,,,,,,,,,,,,,,,,,,,,,,,,,,,,,,,,,,,,11,001,female,20,425,425,2022_Sep_05_1044,Experiment,2021.1.4,360.20848867122595,
images\S1_F_H_02.png,images\S1_F_H_02_scrambled.png,1,happy,20,female,5,,302,on,2,0.5,0.75,0.5,0.946,3,301,1,1,1,2,2,32,128,165,,,,,,0,58,58,58,,,,,,,,,,,,,,,,,,,,,,,,,,,,,,,,,,,,,,,,,,,,,,,,,,,,,,,,,470.8277149999999,471.3303544000005,471.3303544000005,472.0856657999998,472.0856657999998,472.5884243000005,472.5884243000005,473.5380557000003,473.5380557000003,None,num_4,0.45054220000019995,473.5380557000003,None,happy,1,Happy,474.00452055000005,None,None,474.00452055000005,None,,,,,,,,,,,,,,,,,,,,,,,,,,,,,,,,,,,,,,,,,,,,,,,,,,,,,11,001,female,20,425,425,2022_Sep_05_1044,Experiment,2021.1.4,360.20848867122595,
images\S6_M_H_01.png,images\S6_M_H_01_scrambled.png,6,happy,10,male,4,,271,off,1,0.5,0.75,0.5,0.947,3,270,1,1,1,0,0,0,0,4,,,,,,0,59,59,59,,,,,,,,,,,,,,,,,,,,,,,,,,,,,,,,,,,,,,,,,,,,,,,,,,,,,,,,,474.0878276999997,474.5904551999997,474.5904551999997,475.34300180000037,475.34300180000037,475.84852309999997,475.84852309999997,476.80088410000053,476.80088410000053,None,num_4,0.2998401999993803,476.80088410000053,None,happy,1,Happy,477.1174402399997,None,None,477.1174402399997,None,,,,,,,,,,,,,,,,,,,,,,,,,,,,,,,,,,,,,,,,,,,,,,,,,,,,,11,001,female,20,425,425,2022_Sep_05_1044,Experiment,2021.1.4,360.20848867122595,
images\blank.jpg,images\blank.jpg,none,none,none,none,0,,619,on,2,0.5,0.75,0.5,0.922,0,618,1,1,1,3,3,48,192,240,,,,,,0,60,60,60,,,,,,,,,,,,,,,,,,,,,,,,,,,,,,,,,,,,,,,,,,,,,,,,,,,,,,,,,477.201004,477.7061558999999,477.7061558999999,478.4587561000003,478.4587561000003,478.9641439000002,478.9641439000002,479.8888081,479.8888081,479.8888081,None,,479.8888081,None,miss,1,,482.8879239099997,None,None,482.8879239099997,None,,,,,,,,,,,,,,,,,,,,,,,,,,,,,,,,,,,,,,,,,,,,,,,,,,,,,11,001,female,20,425,425,2022_Sep_05_1044,Experiment,2021.1.4,360.20848867122595,
images\S5_F_H_01.png,images\S5_F_H_01_scrambled.png,5,happy,10,female,4,,265,off,1,0.5,0.75,0.5,0.803,3,264,1,1,1,0,0,0,0,4,,,,,,0,61,61,61,,,,,,,,,,,,,,,,,,,,,,,,,,,,,,,,,,,,,,,,,,,,,,,,,,,,,,,,,483.0381075999999,483.54047409999976,483.54047409999976,484.29578830000037,484.29578830000037,484.79853950000006,484.79853950000006,485.6037057999997,485.6037057999997,None,num_4,0.22483509999983653,485.6037057999997,483.0381075999999,happy,1,Happy,485.8482095700001,None,None,485.8482095700001,None,,,,,,,,,,,,,,,,,,,,,,,,,,,,,,,,,,,,,,,,,,,,,,,,,,,,,11,001,female,20,425,425,2022_Sep_05_1044,Experiment,2021.1.4,360.20848867122595,
images\S3_F_H_03.png,images\S3_F_H_03_scrambled.png,3,happy,30,female,6,,195,on,2,0.5,0.75,0.5,0.802,3,194,1,1,1,2,2,32,128,166,,,,,,0,62,62,62,,,,,,,,,,,,,,,,,,,,,,,,,,,,,,,,,,,,,,,,,,,,,,,,,,,,,,,,,485.9202844000006,486.4229099999998,486.4229099999998,487.17267370000036,487.17267370000036,487.67250980000017,487.67250980000017,488.4779549,488.4779549,None,num_4,0.5186328999998295,488.4779549,None,happy,1,Happy,489.0109943399998,None,None,489.0109943399998,None,,,,,,,,,,,,,,,,,,,,,,,,,,,,,,,,,,,,,,,,,,,,,,,,,,,,,11,001,female,20,425,425,2022_Sep_05_1044,Experiment,2021.1.4,360.20848867122595,
images\S6_M_S_03.png,images\S6_M_S_03_scrambled.png,6,sad,-30,male,1,,96,on,2,0.5,0.75,0.5,0.876,3,95,2,1,1,2,2,32,128,161,,,,,,0,63,63,63,,,,,,,,,,,,,,,,,,,,,,,,,,,,,,,,,,,,,,,,,,,,,,,,,,,,,,,,,489.06653460000007,489.56919549999975,489.56919549999975,490.32170520000045,490.32170520000045,490.8216017,490.8216017,491.70464630000015,491.70464630000015,None,num_6,0.4999119000003702,491.70464630000015,None,sad,1,Sad,492.2322785800002,None,None,492.2322785800002,None,,,,,,,,,,,,,,,,,,,,,,,,,,,,,,,,,,,,,,,,,,,,,,,,,,,,,11,001,female,20,425,425,2022_Sep_05_1044,Experiment,2021.1.4,360.20848867122595,
images\blank.jpg,images\blank.jpg,none,none,none,none,0,,636,on,2,0.5,0.75,0.5,0.804,0,635,3,1,1,3,3,48,192,240,,,,,,0,64,64,64,,,,,,,,,,,,,,,,,,,,,,,,,,,,,,,,,,,,,,,,,,,,,,,,,,,,,,,,,492.3212956000002,492.82378800000015,492.82378800000015,493.57347919999984,493.57347919999984,494.07892540000057,494.07892540000057,494.8869841999999,494.8869841999999,494.8869841999999,None,,494.8869841999999,None,miss,1,,497.88882680999996,None,None,497.88882680999996,None,,,,,,,,,,,,,,,,,,,,,,,,,,,,,,,,,,,,,,,,,,,,,,,,,,,,,11,001,female,20,425,425,2022_Sep_05_1044,Experiment,2021.1.4,360.20848867122595,
images\S3_F_S_03.png,images\S3_F_S_03_scrambled.png,3,sad,-30,female,1,,78,on,2,0.5,0.75,0.5,0.878,3,77,4,1,1,2,2,32,128,161,,,,,,0,65,65,65,,,,,,,,,,,,,,,,,,,,,,,,,,,,,,,,,,,,,,,,,,,,,,,,,,,,,,,,,498.0029489000003,498.5053023000005,498.5053023000005,499.25796579999997,499.25796579999997,499.7633529999998,499.7633529999998,500.6435955000002,500.6435955000002,None,num_6,0.2489514999997482,500.6435955000002,498.0029489000003,sad,1,Sad,500.9073523500001,None,None,500.9073523500001,None,,,,,,,,,,,,,,,,,,,,,,,,,,,,,,,,,,,,,,,,,,,,,,,,,,,,,11,001,female,20,425,425,2022_Sep_05_1044,Experiment,2021.1.4,360.20848867122595,
images\S2_M_H_03.png,images\S2_M_H_03_scrambled.png,2,happy,30,male,6,,189,on,2,0.5,0.75,0.5,0.914,3,188,5,1,1,2,2,32,128,166,,,,,,0,66,66,66,,,,,,,,,,,,,,,,,,,,,,,,,,,,,,,,,,,,,,,,,,,,,,,,,,,,,,,,,501.0239311999999,501.5293864999999,501.5293864999999,502.28470510000034,502.28470510000034,502.7901026000004,502.7901026000004,503.7092926999999,503.7092926999999,None,num_4,0.24714140000014595,503.7092926999999,None,happy,1,Happy,503.9702759400002,None,None,503.9702759400002,None,,,,,,,,,,,,,,,,,,,,,,,,,,,,,,,,,,,,,,,,,,,,,,,,,,,,,11,001,female,20,425,425,2022_Sep_05_1044,Experiment,2021.1.4,360.20848867122595,
images\S4_M_H_03.png,images\S4_M_H_03_scrambled.png,4,happy,30,male,6,,561,on,2,0.5,0.75,0.5,0.82,3,560,6,1,2,2,2,32,128,166,,,,,,0,67,67,67,,,,,,,,,,,,,,,,,,,,,,,,,,,,,,,,,,,,,,,,,,,,,,,,,,,,,,,,,504.0174791000004,504.52009990000033,504.52009990000033,505.2726636000002,505.2726636000002,505.77812719999974,505.77812719999974,506.6000117999997,506.6000117999997,None,num_4,0.3404272999996465,506.6000117999997,None,happy,1,Happy,506.9554675500003,None,None,506.9554675500003,None,,,,,,,,,,,,,,,,,,,,,,,,,,,,,,,,,,,,,,,,,,,,,,,,,,,,,11,001,female,20,425,425,2022_Sep_05_1044,Experiment,2021.1.4,360.20848867122595,
images\S3_F_H_02.png,images\S3_F_H_02_scrambled.png,3,happy,20,female,5,,14,off,1,0.5,0.75,0.5,0.766,3,13,1,1,1,0,0,0,0,5,,,,,,0,68,68,68,,,,,,,,,,,,,,,,,,,,,,,,,,,,,,,,,,,,,,,,,,,,,,,,,,,,,,,,,507.01100220000035,507.51370220000035,507.51370220000035,508.26617209999995,508.26617209999995,508.7688447000005,508.7688447000005,509.5407928999998,509.5407928999998,None,num_4,0.279608100000587,509.5407928999998,None,happy,1,Happy,509.83235253999965,None,None,509.83235253999965,None,,,,,,,,,,,,,,,,,,,,,,,,,,,,,,,,,,,,,,,,,,,,,,,,,,,,,11,001,female,20,425,425,2022_Sep_05_1044,Experiment,2021.1.4,360.20848867122595,
images\S2_M_S_01.png,images\S2_M_S_01_scrambled.png,2,sad,-10,male,3,,190,on,2,0.5,0.75,0.5,0.799,3,189,1,1,1,2,2,32,128,163,,,,,,0,69,69,69,,,,,,,,,,,,,,,,,,,,,,,,,,,,,,,,,,,,,,,,,,,,,,,,,,,,,,,,,509.88233590000027,510.3849862000002,510.3849862000002,511.1376559000005,511.1376559000005,511.6373470000003,511.6373470000003,512.4428115000005,512.4428115000005,None,num_4,0.7538521999995282,512.4428115000005,None,happy,1,Sad,513.2007621200005,None,None,513.2007621200005,None,,,,,,,,,,,,,,,,,,,,,,,,,,,,,,,,,,,,,,,,,,,,,,,,,,,,,11,001,female,20,425,425,2022_Sep_05_1044,Experiment,2021.1.4,360.20848867122595,
images\S2_M_S_03.png,images\S2_M_S_03_scrambled.png,2,sad,-30,male,1,,372,off,1,0.5,0.75,0.5,0.786,3,371,1,2,1,0,0,0,0,1,,,,,,0,70,70,70,,,,,,,,,,,,,,,,,,,,,,,,,,,,,,,,,,,,,,,,,,,,,,,,,,,,,,,,,513.2507473000001,513.7534951000002,513.7534951000002,514.5087731999997,514.5087731999997,515.0085321000001,515.0085321000001,515.7999849000003,515.7999849000003,None,num_6,0.2764772999998968,515.7999849000003,None,sad,1,Sad,516.0887639400003,None,None,516.0887639400003,None,,,,,,,,,,,,,,,,,,,,,,,,,,,,,,,,,,,,,,,,,,,,,,,,,,,,,11,001,female,20,425,425,2022_Sep_05_1044,Experiment,2021.1.4,360.20848867122595,
images\S8_M_H_03.png,images\S8_M_H_03_scrambled.png,8,happy,30,male,6,,105,on,2,0.5,0.75,0.5,0.948,3,104,1,1,1,2,2,32,128,166,,,,,,0,71,71,71,,,,,,,,,,,,,,,,,,,,,,,,,,,,,,,,,,,,,,,,,,,,,,,,,,,,,,,,,516.1387452000004,516.6442097000004,516.6442097000004,517.3966805000005,517.3966805000005,517.8993476,517.8993476,518.8517968000001,518.8517968000001,None,num_4,0.43264040000030946,518.8517968000001,None,happy,1,Happy,519.2961099400004,None,None,519.2961099400004,None,,,,,,,,,,,,,,,,,,,,,,,,,,,,,,,,,,,,,,,,,,,,,,,,,,,,,11,001,female,20,425,425,2022_Sep_05_1044,Experiment,2021.1.4,360.20848867122595,
images\S1_F_S_02.png,images\S1_F_S_02_scrambled.png,1,sad,-20,female,2,,245,off,1,0.5,0.75,0.5,0.869,3,244,1,1,1,0,0,0,0,2,,,,,,0,72,72,72,,,,,,,,,,,,,,,,,,,,,,,,,,,,,,,,,,,,,,,,,,,,,,,,,,,,,,,,,519.3460832000005,519.8487663000001,519.8487663000001,520.6040695000006,520.6040695000006,521.1094716000002,521.1094716000002,521.9842051999999,521.9842051999999,None,num_6,0.2922374999998283,521.9842051999999,None,sad,1,Sad,522.2896249400005,None,None,522.2896249400005,None,,,,,,,,,,,,,,,,,,,,,,,,,,,,,,,,,,,,,,,,,,,,,,,,,,,,,11,001,female,20,425,425,2022_Sep_05_1044,Experiment,2021.1.4,360.20848867122595,
images\S6_M_S_01.png,images\S6_M_S_01_scrambled.png,6,sad,-10,male,3,,394,off,1,0.5,0.75,0.5,0.767,3,393,2,1,1,0,0,0,0,3,,,,,,0,73,73,73,,,,,,,,,,,,,,,,,,,,,,,,,,,,,,,,,,,,,,,,,,,,,,,,,,,,,,,,,522.3396097999998,522.8450249000002,522.8450249000002,523.5947707,523.5947707,524.0946500000005,524.0946500000005,524.8638869000001,524.8638869000001,None,num_6,1.1325635000002876,524.8638869000001,None,sad,1,Sad,526.0190642800003,None,None,526.0190642800003,None,,,,,,,,,,,,,,,,,,,,,,,,,,,,,,,,,,,,,,,,,,,,,,,,,,,,,11,001,female,20,425,425,2022_Sep_05_1044,Experiment,2021.1.4,360.20848867122595,
images\S2_M_H_02.png,images\S2_M_H_02_scrambled.png,2,happy,20,male,5,,368,off,1,0.5,0.75,0.5,0.775,3,367,3,1,1,0,0,0,0,5,,,,,,0,74,74,74,,,,,,,,,,,,,,,,,,,,,,,,,,,,,,,,,,,,,,,,,,,,,,,,,,,,,,,,,526.0829014000005,526.5855391999999,526.5855391999999,527.3380849999999,527.3380849999999,527.8435642999998,527.8435642999998,528.6238405999998,528.6238405999998,None,num_4,0.29290729999956966,528.6238405999998,None,happy,1,Happy,528.93770227,None,None,528.93770227,None,,,,,,,,,,,,,,,,,,,,,,,,,,,,,,,,,,,,,,,,,,,,,,,,,,,,,11,001,female,20,425,425,2022_Sep_05_1044,Experiment,2021.1.4,360.20848867122595,
images\S1_F_H_01.png,images\S1_F_H_01_scrambled.png,1,happy,10,female,4,,421,on,2,0.5,0.75,0.5,0.85,3,420,1,1,1,2,2,32,128,164,,,,,,0,75,75,75,,,,,,,,,,,,,,,,,,,,,,,,,,,,,,,,,,,,,,,,,,,,,,,,,,,,,,,,,529.0458749000004,529.5485058999998,529.5485058999998,530.3010546999999,530.3010546999999,530.8037090000003,530.8037090000003,531.6589997000005,531.6589997000005,None,num_4,0.7296207999997932,531.6589997000005,None,happy,1,Happy,532.4031695400004,None,None,532.4031695400004,None,,,,,,,,,,,,,,,,,,,,,,,,,,,,,,,,,,,,,,,,,,,,,,,,,,,,,11,001,female,20,425,425,2022_Sep_05_1044,Experiment,2021.1.4,360.20848867122595,
images\S5_F_H_01.png,images\S5_F_H_01_scrambled.png,5,happy,10,female,4,,325,on,2,0.5,0.75,0.5,0.897,3,324,2,1,2,2,2,32,128,164,,,,,,0,76,76,76,,,,,,,,,,,,,,,,,,,,,,,,,,,,,,,,,,,,,,,,,,,,,,,,,,,,,,,,,532.4531579,532.9530125000006,532.9530125000006,533.7083953000006,533.7083953000006,534.2109474000004,534.2109474000004,535.1106855000003,535.1106855000003,None,num_4,0.5899360999992496,535.1106855000003,None,happy,1,Happy,535.7132638400003,None,None,535.7132638400003,None,,,,,,,,,,,,,,,,,,,,,,,,,,,,,,,,,,,,,,,,,,,,,,,,,,,,,11,001,female,20,425,425,2022_Sep_05_1044,Experiment,2021.1.4,360.20848867122595,
images\S4_M_S_01.png,images\S4_M_S_01_scrambled.png,4,sad,-10,male,3,,562,on,2,0.5,0.75,0.5,0.754,3,561,3,1,1,2,2,32,128,163,,,,,,0,77,77,77,,,,,,,,,,,,,,,,,,,,,,,,,,,,,,,,,,,,,,,,,,,,,,,,,,,,,,,,,535.7604795000002,536.2631082000003,536.2631082000003,537.012894,537.012894,537.5183938000005,537.5183938000005,538.2791835000003,538.2791835000003,None,num_6,0.5893536000003223,538.2791835000003,None,sad,1,Sad,538.8817340400005,None,None,538.8817340400005,None,,,,,,,,,,,,,,,,,,,,,,,,,,,,,,,,,,,,,,,,,,,,,,,,,,,,,11,001,female,20,425,425,2022_Sep_05_1044,Experiment,2021.1.4,360.20848867122595,
images\S6_M_S_03.png,images\S6_M_S_03_scrambled.png,6,sad,-30,male,1,,336,on,2,0.5,0.75,0.5,0.866,3,335,4,1,1,2,2,32,128,161,,,,,,0,78,78,78,,,,,,,,,,,,,,,,,,,,,,,,,,,,,,,,,,,,,,,,,,,,,,,,,,,,,,,,,538.9317240000005,539.4343758999998,539.4343758999998,540.1896974000006,540.1896974000006,540.6950872000002,540.6950872000002,541.5642279999997,541.5642279999997,None,num_6,0.3124393999996755,541.5642279999997,None,sad,1,Sad,541.8919050400004,None,None,541.8919050400004,None,,,,,,,,,,,,,,,,,,,,,,,,,,,,,,,,,,,,,,,,,,,,,,,,,,,,,11,001,female,20,425,425,2022_Sep_05_1044,Experiment,2021.1.4,360.20848867122595,
images\S4_M_S_02.png,images\S4_M_S_02_scrambled.png,4,sad,-20,male,2,,443,on,2,0.5,0.75,0.5,0.894,3,442,5,1,1,2,2,32,128,162,,,,,,0,79,79,79,,,,,,,,,,,,,,,,,,,,,,,,,,,,,,,,,,,,,,,,,,,,,,,,,,,,,,,,,541.9724548999998,542.4750928999997,542.4750928999997,543.2304120000003,543.2304120000003,543.7331637000002,543.7331637000002,544.6299873000003,544.6299873000003,None,num_6,0.37438919999931386,544.6299873000003,None,sad,1,Sad,545.0270637799999,None,None,545.0270637799999,None,,,,,,,,,,,,,,,,,,,,,,,,,,,,,,,,,,,,,,,,,,,,,,,,,,,,,11,001,female,20,425,425,2022_Sep_05_1044,Experiment,2021.1.4,360.20848867122595,
images\S1_F_H_02.png,images\S1_F_H_02_scrambled.png,1,happy,20,female,5,,62,on,2,0.5,0.75,0.5,0.788,3,61,6,1,1,2,2,32,128,165,,,,,,0,80,80,80,,,,,,,,,,,,,,,,,,,,,,,,,,,,,,,,,,,,,,,,,,,,,,,,,,,,,,,,,545.0826056000001,545.5852473,545.5852473,546.3379101000005,546.3379101000005,546.8433150000005,546.8433150000005,547.6346226000001,547.6346226000001,None,num_4,0.45772949999991397,547.6346226000001,None,happy,1,Happy,548.10389274,None,None,548.10389274,None,,,,,,,,,,,,,,,,,,,,,,,,,,,,,,,,,,,,,,,,,,,,,,,,,,,,,11,001,female,20,425,425,2022_Sep_05_1044,Experiment,2021.1.4,360.20848867122595,
images\S8_M_S_01.png,images\S8_M_S_01_scrambled.png,8,sad,-10,male,3,,406,off,1,0.5,0.75,0.5,0.848,3,405,1,1,1,0,0,0,0,3,,,,,,0,81,81,81,,,,,,,,,,,,,,,,,,,,,,,,,,,,,,,,,,,,,,,,,,,,,,,,,,,,,,,,,548.1649861000001,548.6703985999998,548.6703985999998,549.4230486000001,549.4230486000001,549.9284162999998,549.9284162999998,550.7836831999998,550.7836831999998,None,num_6,0.39680239999961486,550.7836831999998,None,sad,1,Sad,551.1974125500001,None,None,551.1974125500001,None,,,,,,,,,,,,,,,,,,,,,,,,,,,,,,,,,,,,,,,,,,,,,,,,,,,,,11,001,female,20,425,425,2022_Sep_05_1044,Experiment,2021.1.4,360.20848867122595,
images\S6_M_H_03.png,images\S6_M_H_03_scrambled.png,6,happy,30,male,6,,33,off,1,0.5,0.75,0.5,0.788,3,32,2,1,1,0,0,0,0,6,,,,,,0,82,82,82,,,,,,,,,,,,,,,,,,,,,,,,,,,,,,,,,,,,,,,,,,,,,,,,,,,,,,,,,551.2530609,551.7584497000003,551.7584497000003,552.5108568,552.5108568,553.0135681000006,553.0135681000006,553.8049390000001,553.8049390000001,None,num_4,0.5433941000001141,553.8049390000001,None,happy,1,Happy,554.3602944400004,None,None,554.3602944400004,None,,,,,,,,,,,,,,,,,,,,,,,,,,,,,,,,,,,,,,,,,,,,,,,,,,,,,11,001,female,20,425,425,2022_Sep_05_1044,Experiment,2021.1.4,360.20848867122595,
images\S1_F_S_03.png,images\S1_F_S_03_scrambled.png,1,sad,-30,female,1,,66,on,2,0.5,0.75,0.5,0.802,3,65,1,1,1,2,2,32,128,161,,,,,,0,83,83,83,,,,,,,,,,,,,,,,,,,,,,,,,,,,,,,,,,,,,,,,,,,,,,,,,,,,,,,,,554.4102726000006,554.9129752000003,554.9129752000003,555.6654609000002,555.6654609000002,556.1680866000002,556.1680866000002,556.9735366,556.9735366,None,num_6,0.6229975999995077,556.9735366,None,sad,1,Sad,557.6064927399998,None,None,557.6064927399998,None,,,,,,,,,,,,,,,,,,,,,,,,,,,,,,,,,,,,,,,,,,,,,,,,,,,,,11,001,female,20,425,425,2022_Sep_05_1044,Experiment,2021.1.4,360.20848867122595,
images\S5_F_S_03.png,images\S5_F_S_03_scrambled.png,5,sad,-30,female,1,,330,on,2,0.5,0.75,0.5,0.788,3,329,2,1,2,2,2,32,128,161,,,,,,0,84,84,84,,,,,,,,,,,,,,,,,,,,,,,,,,,,,,,,,,,,,,,,,,,,,,,,,,,,,,,,,557.6648264,558.1646692999998,558.1646692999998,558.9144435000003,558.9144435000003,559.4143273000004,559.4143273000004,560.2085496000004,560.2085496000004,None,num_6,0.41181570000026113,560.2085496000004,None,sad,1,Sad,560.6361298499996,None,None,560.6361298499996,None,,,,,,,,,,,,,,,,,,,,,,,,,,,,,,,,,,,,,,,,,,,,,,,,,,,,,11,001,female,20,425,425,2022_Sep_05_1044,Experiment,2021.1.4,360.20848867122595,
images\S2_M_S_03.png,images\S2_M_S_03_scrambled.png,2,sad,-30,male,1,,132,off,1,0.5,0.75,0.5,0.817,3,131,1,1,3,0,0,0,0,1,,,,,,0,85,85,85,,,,,,,,,,,,,,,,,,,,,,,,,,,,,,,,,,,,,,,,,,,,,,,,,,,,,,,,,560.6833510000001,561.1888042000005,561.1888042000005,561.9441179,561.9441179,562.4494982000001,562.4494982000001,563.2687085000002,563.2687085000002,None,num_6,0.29568559999916033,563.2687085000002,None,sad,1,Sad,563.5769047499998,None,None,563.5769047499998,None,,,,,,,,,,,,,,,,,,,,,,,,,,,,,,,,,,,,,,,,,,,,,,,,,,,,,11,001,female,20,425,425,2022_Sep_05_1044,Experiment,2021.1.4,360.20848867122595,
images\S9_F_S_02.png,images\S9_F_S_02_scrambled.png,9,sad,-20,female,2,,293,off,1,0.5,0.75,0.5,0.855,3,292,2,1,1,0,0,0,0,2,,,,,,0,86,86,86,,,,,,,,,,,,,,,,,,,,,,,,,,,,,,,,,,,,,,,,,,,,,,,,,,,,,,,,,563.6241069000002,564.1267219000006,564.1267219000006,564.8821675000004,564.8821675000004,565.3819540999998,565.3819540999998,566.2399909999999,566.2399909999999,None,num_4,0.9645493000007264,566.2399909999999,None,happy,1,Sad,567.2092310200001,None,None,567.2092310200001,None,,,,,,,,,,,,,,,,,,,,,,,,,,,,,,,,,,,,,,,,,,,,,,,,,,,,,11,001,female,20,425,425,2022_Sep_05_1044,Experiment,2021.1.4,360.20848867122595,
images\S2_M_H_01.png,images\S2_M_H_01_scrambled.png,2,happy,10,male,4,,187,on,2,0.5,0.75,0.5,0.927,3,186,1,1,1,2,2,32,128,164,,,,,,0,87,87,87,,,,,,,,,,,,,,,,,,,,,,,,,,,,,,,,,,,,,,,,,,,,,,,,,,,,,,,,,567.2674280000006,567.7672726000005,567.7672726000005,568.5170374000004,568.5170374000004,569.0225526999998,569.0225526999998,569.9555018000005,569.9555018000005,None,num_4,0.23298940000040602,569.9555018000005,None,happy,1,Happy,570.2053959400005,None,None,570.2053959400005,None,,,,,,,,,,,,,,,,,,,,,,,,,,,,,,,,,,,,,,,,,,,,,,,,,,,,,11,001,female,20,425,425,2022_Sep_05_1044,Experiment,2021.1.4,360.20848867122595,
images\S1_F_S_01.png,images\S1_F_S_01_scrambled.png,1,sad,-10,female,3,,244,off,1,0.5,0.75,0.5,0.818,3,243,1,1,1,0,0,0,0,3,,,,,,0,88,88,88,,,,,,,,,,,,,,,,,,,,,,,,,,,,,,,,,,,,,,,,,,,,,,,,,,,,,,,,,570.2887207999997,570.7941716,570.7941716,571.5466882000005,571.5466882000005,572.0465108000003,572.0465108000003,572.8685513000005,572.8685513000005,None,num_4,0.43183610000050976,572.8685513000005,None,happy,1,Sad,573.3072389200001,None,None,573.3072389200001,None,,,,,,,,,,,,,,,,,,,,,,,,,,,,,,,,,,,,,,,,,,,,,,,,,,,,,11,001,female,20,425,425,2022_Sep_05_1044,Experiment,2021.1.4,360.20848867122595,
images\S9_F_S_02.png,images\S9_F_S_02_scrambled.png,9,sad,-20,female,2,,533,off,1,0.5,0.75,0.5,0.793,3,532,2,1,1,0,0,0,0,2,,,,,,0,89,89,89,,,,,,,,,,,,,,,,,,,,,,,,,,,,,,,,,,,,,,,,,,,,,,,,,,,,,,,,,573.3572362999998,573.8598281,573.8598281,574.6124100000002,574.6124100000002,575.1149955000005,575.1149955000005,575.9147632999998,575.9147632999998,None,num_4,0.2416192000000592,575.9147632999998,None,happy,1,Sad,576.1646839199998,None,None,576.1646839199998,None,,,,,,,,,,,,,,,,,,,,,,,,,,,,,,,,,,,,,,,,,,,,,,,,,,,,,11,001,female,20,425,425,2022_Sep_05_1044,Experiment,2021.1.4,360.20848867122595,
images\S2_M_H_03.png,images\S2_M_H_03_scrambled.png,2,happy,30,male,6,,69,on,2,0.5,0.75,0.5,0.846,3,68,1,1,1,2,2,32,128,166,,,,,,0,90,90,90,,,,,,,,,,,,,,,,,,,,,,,,,,,,,,,,,,,,,,,,,,,,,,,,,,,,,,,,,576.2146690000004,576.7174255000004,576.7174255000004,577.4698331000004,577.4698331000004,577.9726046000001,577.9726046000001,578.8249995000001,578.8249995000001,None,num_4,0.3393974000000526,578.8249995000001,None,happy,1,Happy,579.1804247500004,None,None,579.1804247500004,None,,,,,,,,,,,,,,,,,,,,,,,,,,,,,,,,,,,,,,,,,,,,,,,,,,,,,11,001,female,20,425,425,2022_Sep_05_1044,Experiment,2021.1.4,360.20848867122595,
images\S10_M_S_01.png,images\S10_M_S_01_scrambled.png,10,sad,-10,male,3,,238,on,2,0.5,0.75,0.5,0.811,3,237,2,1,1,2,2,32,128,163,,,,,,0,91,91,91,,,,,,,,,,,,,,,,,,,,,,,,,,,,,,,,,,,,,,,,,,,,,,,,,,,,,,,,,579.2277759000003,579.7331663,579.7331663,580.4855873000001,580.4855873000001,580.9883243999998,580.9883243999998,581.8018268000001,581.8018268000001,None,num_4,0.28254179999930784,581.8018268000001,None,happy,1,Sad,582.0961844200006,None,None,582.0961844200006,None,,,,,,,,,,,,,,,,,,,,,,,,,,,,,,,,,,,,,,,,,,,,,,,,,,,,,11,001,female,20,425,425,2022_Sep_05_1044,Experiment,2021.1.4,360.20848867122595,
images\S9_F_H_02.png,images\S9_F_H_02_scrambled.png,9,happy,20,female,5,,590,on,2,0.5,0.75,0.5,0.923,3,589,3,1,1,2,2,32,128,165,,,,,,0,92,92,92,,,,,,,,,,,,,,,,,,,,,,,,,,,,,,,,,,,,,,,,,,,,,,,,,,,,,,,,,582.1767263000006,582.6765617000005,582.6765617000005,583.4263346000002,583.4263346000002,583.9289992999998,583.9289992999998,584.8536643000002,584.8536643000002,None,num_4,0.7267005999992762,584.8536643000002,None,happy,1,Happy,585.6006826600001,None,None,585.6006826600001,None,,,,,,,,,,,,,,,,,,,,,,,,,,,,,,,,,,,,,,,,,,,,,,,,,,,,,11,001,female,20,425,425,2022_Sep_05_1044,Experiment,2021.1.4,360.20848867122595,
images\S7_F_H_02.png,images\S7_F_H_02_scrambled.png,7,happy,20,female,5,,218,on,2,0.5,0.75,0.5,0.947,3,217,4,1,2,2,2,32,128,165,,,,,,0,93,93,93,,,,,,,,,,,,,,,,,,,,,,,,,,,,,,,,,,,,,,,,,,,,,,,,,,,,,,,,,585.6645315999999,586.1643760000002,586.1643760000002,586.9169610000004,586.9169610000004,587.4224519000004,587.4224519000004,588.3720282999998,588.3720282999998,None,num_4,0.504249599999639,588.3720282999998,None,happy,1,Happy,588.8913142400002,None,None,588.8913142400002,None,,,,,,,,,,,,,,,,,,,,,,,,,,,,,,,,,,,,,,,,,,,,,,,,,,,,,11,001,female,20,425,425,2022_Sep_05_1044,Experiment,2021.1.4,360.20848867122595,
images\S1_F_H_01.png,images\S1_F_H_01_scrambled.png,1,happy,10,female,4,,1,off,1,0.5,0.75,0.5,0.759,3,0,1,1,1,0,0,0,0,4,,,,,,0,94,94,94,,,,,,,,,,,,,,,,,,,,,,,,,,,,,,,,,,,,,,,,,,,,,,,,,,,,,,,,,588.9413086999998,589.4439271000006,589.4439271000006,590.1936916,590.1936916,590.6963725,590.6963725,591.4599930999998,591.4599930999998,None,num_4,0.8083150000002206,591.4599930999998,None,happy,1,Happy,592.2791608399998,None,None,592.2791608399998,None,,,,,,,,,,,,,,,,,,,,,,,,,,,,,,,,,,,,,,,,,,,,,,,,,,,,,11,001,female,20,425,425,2022_Sep_05_1044,Experiment,2021.1.4,360.20848867122595,
images\S4_M_H_02.png,images\S4_M_H_02_scrambled.png,4,happy,20,male,5,,260,off,1,0.5,0.75,0.5,0.914,3,259,2,1,1,0,0,0,0,5,,,,,,0,95,95,95,,,,,,,,,,,,,,,,,,,,,,,,,,,,,,,,,,,,,,,,,,,,,,,,,,,,,,,,,592.3596946000002,592.8624351000003,592.8624351000003,593.6177656000004,593.6177656000004,594.1231552000004,594.1231552000004,595.0394566,595.0394566,None,num_4,0.1967941000002611,595.0394566,None,happy,1,Happy,595.2587864800003,None,None,595.2587864800003,None,,,,,,,,,,,,,,,,,,,,,,,,,,,,,,,,,,,,,,,,,,,,,,,,,,,,,11,001,female,20,425,425,2022_Sep_05_1044,Experiment,2021.1.4,360.20848867122595,
images\S7_F_H_03.png,images\S7_F_H_03_scrambled.png,7,happy,30,female,6,,399,off,1,0.5,0.75,0.5,0.875,3,398,3,1,1,0,0,0,0,6,,,,,,0,96,96,96,,,,,,,,,,,,,,,,,,,,,,,,,,,,,,,,,,,,,,,,,,,,,,,,,,,,,,,,,595.3254452000006,595.8280851000004,595.8280851000004,596.5778489999998,596.5778489999998,597.0833056000006,597.0833056000006,597.9635835000004,597.9635835000004,None,num_4,0.5206925000002229,597.9635835000004,None,happy,1,Happy,598.4994638399999,None,None,598.4994638399999,None,,,,,,,,,,,,,,,,,,,,,,,,,,,,,,,,,,,,,,,,,,,,,,,,,,,,,11,001,female,20,425,425,2022_Sep_05_1044,Experiment,2021.1.4,360.20848867122595,
images\S10_M_S_03.png,images\S10_M_S_03_scrambled.png,10,sad,-30,male,1,,540,off,1,0.5,0.75,0.5,0.867,3,539,4,1,1,0,0,0,0,1,,,,,,0,97,97,97,,,,,,,,,,,,,,,,,,,,,,,,,,,,,,,,,,,,,,,,,,,,,,,,,,,,,,,,,598.5550190999998,599.0576197000005,599.0576197000005,599.8074048000003,599.8074048000003,600.3128665999998,600.3128665999998,601.1820053000006,601.1820053000006,None,num_6,0.35039450000022043,601.1820053000006,None,sad,1,Sad,601.5457731500001,None,None,601.5457731500001,None,,,,,,,,,,,,,,,,,,,,,,,,,,,,,,,,,,,,,,,,,,,,,,,,,,,,,11,001,female,20,425,425,2022_Sep_05_1044,Experiment,2021.1.4,360.20848867122595,
images\S4_M_H_02.png,images\S4_M_H_02_scrambled.png,4,happy,20,male,5,,80,on,2,0.5,0.75,0.5,0.756,3,79,1,1,1,2,2,32,128,165,,,,,,0,98,98,98,,,,,,,,,,,,,,,,,,,,,,,,,,,,,,,,,,,,,,,,,,,,,,,,,,,,,,,,,601.5985096999998,602.0983615999999,602.0983615999999,602.8537343000003,602.8537343000003,603.3535161000004,603.3535161000004,604.1116164,604.1116164,None,num_4,0.3407836000005773,604.1116164,None,happy,1,Happy,604.4754438599998,None,None,604.4754438599998,None,,,,,,,,,,,,,,,,,,,,,,,,,,,,,,,,,,,,,,,,,,,,,,,,,,,,,11,001,female,20,425,425,2022_Sep_05_1044,Experiment,2021.1.4,360.20848867122595,
images\S2_M_S_01.png,images\S2_M_S_01_scrambled.png,2,sad,-10,male,3,,10,off,1,0.5,0.75,0.5,0.947,3,9,1,1,1,0,0,0,0,3,,,,,,0,99,99,99,,,,,,,,,,,,,,,,,,,,,,,,,,,,,,,,,,,,,,,,,,,,,,,,,,,,,,,,,604.5283312000006,605.0280208999998,605.0280208999998,605.7778116000004,605.7778116000004,606.2833239000006,606.2833239000006,607.2328904000001,607.2328904000001,None,num_4,0.14761540000017703,607.2328904000001,None,happy,1,Sad,607.3884861300003,None,None,607.3884861300003,None,,,,,,,,,,,,,,,,,,,,,,,,,,,,,,,,,,,,,,,,,,,,,,,,,,,,,11,001,female,20,425,425,2022_Sep_05_1044,Experiment,2021.1.4,360.20848867122595,
images\S1_F_H_02.png,images\S1_F_H_02_scrambled.png,1,happy,20,female,5,,2,off,1,0.5,0.75,0.5,0.805,3,1,2,1,1,0,0,0,0,5,,,,,,0,100,100,100,,,,,,,,,,,,,,,,,,,,,,,,,,,,,,,,,,,,,,,,,,,,,,,,,,,,,,,,,607.4522501000006,607.9548918000005,607.9548918000005,608.7074954000004,608.7074954000004,609.2129778000003,609.2129778000003,610.023745,610.023745,None,num_4,0.21265539999967586,610.023745,None,happy,1,Happy,610.2513963400002,None,None,610.2513963400002,None,,,,,,,,,,,,,,,,,,,,,,,,,,,,,,,,,,,,,,,,,,,,,,,,,,,,,11,001,female,20,425,425,2022_Sep_05_1044,Experiment,2021.1.4,360.20848867122595,
images\S2_M_H_03.png,images\S2_M_H_03_scrambled.png,2,happy,30,male,6,,249,off,1,0.5,0.75,0.5,0.794,3,248,3,1,1,0,0,0,0,6,,,,,,0,101,101,101,,,,,,,,,,,,,,,,,,,,,,,,,,,,,,,,,,,,,,,,,,,,,,,,,,,,,,,,,610.3013900000001,610.8040013000004,610.8040013000004,611.5537755999999,611.5537755999999,612.0592118999998,612.0592118999998,612.8589643999999,612.8589643999999,None,num_4,0.20146000000022468,612.8589643999999,None,happy,1,Happy,613.0867468699998,None,None,613.0867468699998,None,,,,,,,,,,,,,,,,,,,,,,,,,,,,,,,,,,,,,,,,,,,,,,,,,,,,,11,001,female,20,425,425,2022_Sep_05_1044,Experiment,2021.1.4,360.20848867122595,
images\S7_F_S_03.png,images\S7_F_S_03_scrambled.png,7,sad,-30,female,1,,42,off,1,0.5,0.75,0.5,0.789,3,41,4,1,1,0,0,0,0,1,,,,,,0,102,102,102,,,,,,,,,,,,,,,,,,,,,,,,,,,,,,,,,,,,,,,,,,,,,,,,,,,,,,,,,613.1977112,613.7003473,613.7003473,614.4529045000004,614.4529045000004,614.9583672000003,614.9583672000003,615.7497306,615.7497306,None,num_6,0.21469640000032086,615.7497306,None,sad,1,Sad,615.9886717899999,None,None,615.9886717899999,None,,,,,,,,,,,,,,,,,,,,,,,,,,,,,,,,,,,,,,,,,,,,,,,,,,,,,11,001,female,20,425,425,2022_Sep_05_1044,Experiment,2021.1.4,360.20848867122595,
images\S6_M_S_02.png,images\S6_M_S_02_scrambled.png,6,sad,-20,male,2,,275,off,1,0.5,0.75,0.5,0.814,3,274,5,1,1,0,0,0,0,2,,,,,,0,103,103,103,,,,,,,,,,,,,,,,,,,,,,,,,,,,,,,,,,,,,,,,,,,,,,,,,,,,,,,,,616.0496100000005,616.5522565000006,616.5522565000006,617.3047686000004,617.3047686000004,617.8075289000003,617.8075289000003,618.6238221999997,618.6238221999997,None,num_4,1.2044311999998172,618.6238221999997,None,happy,1,Sad,619.8345596200002,None,None,619.8345596200002,None,,,,,,,,,,,,,,,,,,,,,,,,,,,,,,,,,,,,,,,,,,,,,,,,,,,,,11,001,female,20,425,425,2022_Sep_05_1044,Experiment,2021.1.4,360.20848867122595,
images\S8_M_H_02.png,images\S8_M_H_02_scrambled.png,8,happy,20,male,5,,224,on,2,0.5,0.75,0.5,0.765,3,223,1,1,1,2,2,32,128,165,,,,,,0,104,104,104,,,,,,,,,,,,,,,,,,,,,,,,,,,,,,,,,,,,,,,,,,,,,,,,,,,,,,,,,619.8901167999998,620.3928679000005,620.3928679000005,621.1425013000003,621.1425013000003,621.6423558000001,621.6423558000001,622.4143528999998,622.4143528999998,None,num_4,0.6860631999998077,622.4143528999998,None,happy,1,Happy,623.12250928,None,None,623.12250928,None,,,,,,,,,,,,,,,,,,,,,,,,,,,,,,,,,,,,,,,,,,,,,,,,,,,,,11,001,female,20,425,425,2022_Sep_05_1044,Experiment,2021.1.4,360.20848867122595,
images\S1_F_S_03.png,images\S1_F_S_03_scrambled.png,1,sad,-30,female,1,,246,off,1,0.5,0.75,0.5,0.837,3,245,1,1,1,0,0,0,0,1,,,,,,0,105,105,105,,,,,,,,,,,,,,,,,,,,,,,,,,,,,,,,,,,,,,,,,,,,,,,,,,,,,,,,,623.1918533000003,623.6945191999998,623.6945191999998,624.4442414,624.4442414,624.9469033999999,624.9469033999999,625.7882832,625.7882832,None,num_6,0.31198200000017096,625.7882832,None,sad,1,Sad,626.1131743399997,None,None,626.1131743399997,None,,,,,,,,,,,,,,,,,,,,,,,,,,,,,,,,,,,,,,,,,,,,,,,,,,,,,11,001,female,20,425,425,2022_Sep_05_1044,Experiment,2021.1.4,360.20848867122595,
images\blank.jpg,images\blank.jpg,none,none,none,none,0,,602,on,2,0.5,0.75,0.5,0.843,0,601,1,1,1,3,3,48,192,240,,,,,,0,106,106,106,,,,,,,,,,,,,,,,,,,,,,,,,,,,,,,,,,,,,,,,,,,,,,,,,,,,,,,,,626.1997047,626.7046860000005,626.7046860000005,627.4544218000005,627.4544218000005,627.9598441000003,627.9598441000003,628.8068405999998,628.8068405999998,628.8068405999998,None,,628.8068405999998,None,miss,1,,631.8114304200003,None,None,631.8114304200003,None,,,,,,,,,,,,,,,,,,,,,,,,,,,,,,,,,,,,,,,,,,,,,,,,,,,,,11,001,female,20,425,425,2022_Sep_05_1044,Experiment,2021.1.4,360.20848867122595,
images\S4_M_S_01.png,images\S4_M_S_01_scrambled.png,4,sad,-10,male,3,,262,off,1,0.5,0.75,0.5,0.908,3,261,1,1,1,0,0,0,0,3,,,,,,0,107,107,107,,,,,,,,,,,,,,,,,,,,,,,,,,,,,,,,,,,,,,,,,,,,,,,,,,,,,,,,,631.9226884000004,632.4223391,632.4223391,633.1721463999997,633.1721463999997,633.6747208000002,633.6747208000002,634.5884041000004,634.5884041000004,None,num_6,0.26402239999970334,634.5884041000004,631.9226884000004,sad,1,Sad,634.8632651399998,None,None,634.8632651399998,None,,,,,,,,,,,,,,,,,,,,,,,,,,,,,,,,,,,,,,,,,,,,,,,,,,,,,11,001,female,20,425,425,2022_Sep_05_1044,Experiment,2021.1.4,360.20848867122595,
images\S3_F_H_01.png,images\S3_F_H_01_scrambled.png,3,happy,10,female,4,,253,off,1,0.5,0.75,0.5,0.776,3,252,2,1,1,0,0,0,0,4,,,,,,0,108,108,108,,,,,,,,,,,,,,,,,,,,,,,,,,,,,,,,,,,,,,,,,,,,,,,,,,,,,,,,,634.9132425000003,635.4158696,635.4158696,636.1684697000005,636.1684697000005,636.6738584,636.6738584,637.4541596000004,637.4541596000004,None,num_4,0.318167700000231,637.4541596000004,None,happy,1,Happy,637.7873786500004,None,None,637.7873786500004,None,,,,,,,,,,,,,,,,,,,,,,,,,,,,,,,,,,,,,,,,,,,,,,,,,,,,,11,001,female,20,425,425,2022_Sep_05_1044,Experiment,2021.1.4,360.20848867122595,
images\S3_F_S_01.png,images\S3_F_S_01_scrambled.png,3,sad,-10,female,3,,136,off,1,0.5,0.75,0.5,0.784,3,135,3,2,1,0,0,0,0,3,,,,,,0,109,109,109,,,,,,,,,,,,,,,,,,,,,,,,,,,,,,,,,,,,,,,,,,,,,,,,,,,,,,,,,637.8734354000003,638.3788955000005,638.3788955000005,639.1341557999999,639.1341557999999,639.6340456000003,639.6340456000003,640.4198993000005,640.4198993000005,None,num_6,0.23234649999994872,640.4198993000005,None,sad,1,Sad,640.6697947499997,None,None,640.6697947499997,None,,,,,,,,,,,,,,,,,,,,,,,,,,,,,,,,,,,,,,,,,,,,,,,,,,,,,11,001,female,20,425,425,2022_Sep_05_1044,Experiment,2021.1.4,360.20848867122595,
images\S1_F_S_02.png,images\S1_F_S_02_scrambled.png,1,sad,-20,female,2,,5,off,1,0.5,0.75,0.5,0.779,3,4,4,1,1,0,0,0,0,2,,,,,,0,110,110,110,,,,,,,,,,,,,,,,,,,,,,,,,,,,,,,,,,,,,,,,,,,,,,,,,,,,,,,,,640.7336762999998,641.2362881000004,641.2362881000004,641.9888387000005,641.9888387000005,642.4942698999998,642.4942698999998,643.2801187999999,643.2801187999999,None,num_6,1.0521969000001263,643.2801187999999,None,sad,1,Sad,644.3464394400003,None,None,644.3464394400003,None,,,,,,,,,,,,,,,,,,,,,,,,,,,,,,,,,,,,,,,,,,,,,,,,,,,,,11,001,female,20,425,425,2022_Sep_05_1044,Experiment,2021.1.4,360.20848867122595,
images\S7_F_H_01.png,images\S7_F_H_01_scrambled.png,7,happy,10,female,4,,457,on,2,0.5,0.75,0.5,0.846,3,456,1,1,1,2,2,32,128,164,,,,,,0,111,111,111,,,,,,,,,,,,,,,,,,,,,,,,,,,,,,,,,,,,,,,,,,,,,,,,,,,,,,,,,644.3936570000001,644.8991013,644.8991013,645.6488215000004,645.6488215000004,646.1542549000001,646.1542549000001,647.0040111000003,647.0040111000003,None,num_4,0.6243204000002152,647.0040111000003,None,happy,1,Happy,647.6537434799998,None,None,647.6537434799998,None,,,,,,,,,,,,,,,,,,,,,,,,,,,,,,,,,,,,,,,,,,,,,,,,,,,,,11,001,female,20,425,425,2022_Sep_05_1044,Experiment,2021.1.4,360.20848867122595,
images\S7_F_H_01.png,images\S7_F_H_01_scrambled.png,7,happy,10,female,4,,37,off,1,0.5,0.75,0.5,0.851,3,36,1,2,2,0,0,0,0,4,,,,,,0,112,112,112,,,,,,,,,,,,,,,,,,,,,,,,,,,,,,,,,,,,,,,,,,,,,,,,,,,,,,,,,647.7065256000001,648.2120565999999,648.2120565999999,648.9617178000003,648.9617178000003,649.4615349000001,649.4615349000001,650.3140441,650.3140441,None,num_4,0.6663769999995566,650.3140441,None,happy,1,Happy,650.9943934400003,None,None,650.9943934400003,None,,,,,,,,,,,,,,,,,,,,,,,,,,,,,,,,,,,,,,,,,,,,,,,,,,,,,11,001,female,20,425,425,2022_Sep_05_1044,Experiment,2021.1.4,360.20848867122595,
images\S9_F_S_01.png,images\S9_F_S_01_scrambled.png,9,sad,-10,female,3,,532,off,1,0.5,0.75,0.5,0.852,3,531,2,1,1,0,0,0,0,3,,,,,,0,113,113,113,,,,,,,,,,,,,,,,,,,,,,,,,,,,,,,,,,,,,,,,,,,,,,,,,,,,,,,,,651.0416078000003,651.5442177,651.5442177,652.2995716,652.2995716,652.8022022,652.8022022,653.6575919000002,653.6575919000002,None,num_4,1.0586953000001813,653.6575919000002,None,happy,1,Sad,654.72102632,None,None,654.72102632,None,,,,,,,,,,,,,,,,,,,,,,,,,,,,,,,,,,,,,,,,,,,,,,,,,,,,,11,001,female,20,425,425,2022_Sep_05_1044,Experiment,2021.1.4,360.20848867122595,
images\S4_M_S_01.png,images\S4_M_S_01_scrambled.png,4,sad,-10,male,3,,382,off,1,0.5,0.75,0.5,0.809,3,381,3,1,2,0,0,0,0,3,,,,,,0,114,114,114,,,,,,,,,,,,,,,,,,,,,,,,,,,,,,,,,,,,,,,,,,,,,,,,,,,,,,,,,654.7710092000002,655.2736291000006,655.2736291000006,656.0234145999998,656.0234145999998,656.5288468000003,656.5288468000003,657.3396514000001,657.3396514000001,None,num_6,0.3046915999993871,657.3396514000001,None,sad,1,Sad,657.6590047500003,None,None,657.6590047500003,None,,,,,,,,,,,,,,,,,,,,,,,,,,,,,,,,,,,,,,,,,,,,,,,,,,,,,11,001,female,20,425,425,2022_Sep_05_1044,Experiment,2021.1.4,360.20848867122595,
images\blank.jpg,images\blank.jpg,none,none,none,none,0,,641,on,2,0.5,0.75,0.5,0.903,0,640,1,1,1,3,3,48,192,240,,,,,,0,115,115,115,,,,,,,,,,,,,,,,,,,,,,,,,,,,,,,,,,,,,,,,,,,,,,,,,,,,,,,,,657.7455016999997,658.2478443000005,658.2478443000005,659.0002699000001,659.0002699000001,659.5030314,659.5030314,660.4082584000002,660.4082584000002,660.4082584000002,None,,660.4082584000002,None,miss,1,,663.4100495200005,None,None,663.4100495200005,None,,,,,,,,,,,,,,,,,,,,,,,,,,,,,,,,,,,,,,,,,,,,,,,,,,,,,11,001,female,20,425,425,2022_Sep_05_1044,Experiment,2021.1.4,360.20848867122595,
images\S6_M_S_01.png,images\S6_M_S_01_scrambled.png,6,sad,-10,male,3,,34,off,1,0.5,0.75,0.5,0.812,3,33,1,1,1,0,0,0,0,3,,,,,,0,116,116,116,,,,,,,,,,,,,,,,,,,,,,,,,,,,,,,,,,,,,,,,,,,,,,,,,,,,,,,,,663.5268387000001,664.0292995000004,664.0292995000004,664.7818449000001,664.7818449000001,665.2844629000006,665.2844629000006,666.1008561000003,666.1008561000003,None,num_6,1.2716166999998677,666.1008561000003,663.5268387000001,sad,1,Sad,667.3865591400004,None,None,667.3865591400004,None,,,,,,,,,,,,,,,,,,,,,,,,,,,,,,,,,,,,,,,,,,,,,,,,,,,,,11,001,female,20,425,425,2022_Sep_05_1044,Experiment,2021.1.4,360.20848867122595,
images\S4_M_S_02.png,images\S4_M_S_02_scrambled.png,4,sad,-20,male,2,,383,off,1,0.5,0.75,0.5,0.783,3,382,2,1,1,0,0,0,0,2,,,,,,0,117,117,117,,,,,,,,,,,,,,,,,,,,,,,,,,,,,,,,,,,,,,,,,,,,,,,,,,,,,,,,,667.4365471000006,667.9363919000002,667.9363919000002,668.6889713000005,668.6889713000005,669.1943729,669.1943729,669.9831047000002,669.9831047000002,None,num_6,1.3973136999993585,669.9831047000002,None,sad,1,Sad,671.3936620400004,None,None,671.3936620400004,None,,,,,,,,,,,,,,,,,,,,,,,,,,,,,,,,,,,,,,,,,,,,,,,,,,,,,11,001,female,20,425,425,2022_Sep_05_1044,Experiment,2021.1.4,360.20848867122595,
images\S7_F_S_02.png,images\S7_F_S_02_scrambled.png,7,sad,-20,female,2,,101,on,2,0.5,0.75,0.5,0.775,3,100,1,1,2,2,2,32,128,162,,,,,,0,118,118,118,,,,,,,,,,,,,,,,,,,,,,,,,,,,,,,,,,,,,,,,,,,,,,,,,,,,,,,,,671.4436492999998,671.9434938999998,671.9434938999998,672.6988683000004,672.6988683000004,673.2014973999999,673.2014973999999,673.9789673,673.9789673,None,num_4,1.121399499999825,673.9789673,None,happy,1,Sad,675.10918782,None,None,675.10918782,None,,,,,,,,,,,,,,,,,,,,,,,,,,,,,,,,,,,,,,,,,,,,,,,,,,,,,11,001,female,20,425,425,2022_Sep_05_1044,Experiment,2021.1.4,360.20848867122595,
images\S9_F_S_03.png,images\S9_F_S_03_scrambled.png,9,sad,-30,female,1,,234,on,2,0.5,0.75,0.5,0.822,3,233,2,1,1,2,2,32,128,161,,,,,,0,119,119,119,,,,,,,,,,,,,,,,,,,,,,,,,,,,,,,,,,,,,,,,,,,,,,,,,,,,,,,,,675.1563971999999,675.6590001999998,675.6590001999998,676.4087826999998,676.4087826999998,676.914217,676.914217,677.7389233999997,677.7389233999997,None,num_6,0.3053055000000313,677.7389233999997,None,sad,1,Sad,678.0611242600003,None,None,678.0611242600003,None,,,,,,,,,,,,,,,,,,,,,,,,,,,,,,,,,,,,,,,,,,,,,,,,,,,,,11,001,female,20,425,425,2022_Sep_05_1044,Experiment,2021.1.4,360.20848867122595,
images\S8_M_H_01.png,images\S8_M_H_01_scrambled.png,8,happy,10,male,4,,223,on,2,0.5,0.75,0.5,0.864,3,222,3,1,1,2,2,32,128,164,,,,,,0,120,120,120,,,,,,,,,,,,,,,,,,,,,,,,,,,,,,,,,,,,,,,,,,,,,,,,,,,,,,,,,678.1693501000004,678.6691889999997,678.6691889999997,679.4217419000001,679.4217419000001,679.9244033,679.9244033,680.7907664999998,680.7907664999998,None,num_4,0.2375704999994923,680.7907664999998,None,happy,1,Happy,681.0435043600005,None,None,681.0435043600005,None,,,,,,,,,,,,,,,,,,,,,,,,,,,,,,,,,,,,,,,,,,,,,,,,,,,,,11,001,female,20,425,425,2022_Sep_05_1044,Experiment,2021.1.4,360.20848867122595,
images\S5_F_S_01.png,images\S5_F_S_01_scrambled.png,5,sad,-10,female,3,,268,off,1,0.5,0.75,0.5,0.792,3,267,1,1,1,0,0,0,0,3,,,,,,0,121,121,121,,,,,,,,,,,,,,,,,,,,,,,,,,,,,,,,,,,,,,,,,,,,,,,,,,,,,,,,,681.0935280999997,681.5988693000004,681.5988693000004,682.3513902,682.3513902,682.8512906999999,682.8512906999999,683.6482830999998,683.6482830999998,None,num_4,1.2999408999994557,683.6482830999998,None,happy,1,Sad,684.9533756200003,None,None,684.9533756200003,None,,,,,,,,,,,,,,,,,,,,,,,,,,,,,,,,,,,,,,,,,,,,,,,,,,,,,11,001,female,20,425,425,2022_Sep_05_1044,Experiment,2021.1.4,360.20848867122595,
images\S8_M_H_02.png,images\S8_M_H_02_scrambled.png,8,happy,20,male,5,,164,off,1,0.5,0.75,0.5,0.921,3,163,2,1,1,0,0,0,0,5,,,,,,0,122,122,122,,,,,,,,,,,,,,,,,,,,,,,,,,,,,,,,,,,,,,,,,,,,,,,,,,,,,,,,,685.0005787000005,685.5033383000005,685.5033383000005,686.2585561000001,686.2585561000001,686.7639716999997,686.7639716999997,687.6886334000005,687.6886334000005,None,num_4,0.4276116999999431,687.6886334000005,None,happy,1,Happy,688.1329457499996,None,None,688.1329457499996,None,,,,,,,,,,,,,,,,,,,,,,,,,,,,,,,,,,,,,,,,,,,,,,,,,,,,,11,001,female,20,425,425,2022_Sep_05_1044,Experiment,2021.1.4,360.20848867122595,
images\S8_M_S_03.png,images\S8_M_S_03_scrambled.png,8,sad,-30,male,1,,408,off,1,0.5,0.75,0.5,0.89,3,407,3,2,1,0,0,0,0,1,,,,,,0,123,123,123,,,,,,,,,,,,,,,,,,,,,,,,,,,,,,,,,,,,,,,,,,,,,,,,,,,,,,,,,688.1801544000004,688.6829165000004,688.6829165000004,689.4382375,689.4382375,689.9435315000005,689.9435315000005,690.8378021000003,690.8378021000003,None,num_6,0.2865275999993173,690.8378021000003,None,sad,1,Sad,691.1348002400005,None,None,691.1348002400005,None,,,,,,,,,,,,,,,,,,,,,,,,,,,,,,,,,,,,,,,,,,,,,,,,,,,,,11,001,female,20,425,425,2022_Sep_05_1044,Experiment,2021.1.4,360.20848867122595,
images\S6_M_S_01.png,images\S6_M_S_01_scrambled.png,6,sad,-10,male,3,,334,on,2,0.5,0.75,0.5,0.922,3,333,1,1,1,2,2,32,128,163,,,,,,0,124,124,124,,,,,,,,,,,,,,,,,,,,,,,,,,,,,,,,,,,,,,,,,,,,,,,,,,,,,,,,,691.1820075,691.6846519000005,691.6846519000005,692.4343935000002,692.4343935000002,692.9398194999999,692.9398194999999,693.8645084000004,693.8645084000004,None,num_4,0.7556801999999152,693.8645084000004,None,happy,1,Sad,694.6253944200002,None,None,694.6253944200002,None,,,,,,,,,,,,,,,,,,,,,,,,,,,,,,,,,,,,,,,,,,,,,,,,,,,,,11,001,female,20,425,425,2022_Sep_05_1044,Experiment,2021.1.4,360.20848867122595,
images\S8_M_S_01.png,images\S8_M_S_01_scrambled.png,8,sad,-10,male,3,,106,on,2,0.5,0.75,0.5,0.857,3,105,2,1,2,2,2,32,128,163,,,,,,0,125,125,125,,,,,,,,,,,,,,,,,,,,,,,,,,,,,,,,,,,,,,,,,,,,,,,,,,,,,,,,,694.6725982000003,695.1724352000006,695.1724352000006,695.9222039000001,695.9222039000001,696.4221008,696.4221008,697.2830391000002,697.2830391000002,None,num_6,0.34543680000024324,697.2830391000002,None,sad,1,Sad,697.65231808,None,None,697.65231808,None,,,,,,,,,,,,,,,,,,,,,,,,,,,,,,,,,,,,,,,,,,,,,,,,,,,,,11,001,female,20,425,425,2022_Sep_05_1044,Experiment,2021.1.4,360.20848867122595,
images\S3_F_S_02.png,images\S3_F_S_02_scrambled.png,3,sad,-20,female,2,,257,off,1,0.5,0.75,0.5,0.793,3,256,1,1,1,0,0,0,0,2,,,,,,0,126,126,126,,,,,,,,,,,,,,,,,,,,,,,,,,,,,,,,,,,,,,,,,,,,,,,,,,,,,,,,,697.7049972,698.2077537,698.2077537,698.9601778000001,698.9601778000001,699.4627986999999,699.4627986999999,700.2597781999998,700.2597781999998,None,num_6,1.1286003999994136,700.2597781999998,None,sad,1,Sad,701.4010734400003,None,None,701.4010734400003,None,,,,,,,,,,,,,,,,,,,,,,,,,,,,,,,,,,,,,,,,,,,,,,,,,,,,,11,001,female,20,425,425,2022_Sep_05_1044,Experiment,2021.1.4,360.20848867122595,
images\S8_M_S_03.png,images\S8_M_S_03_scrambled.png,8,sad,-30,male,1,,468,on,2,0.5,0.75,0.5,0.898,3,467,1,1,1,2,2,32,128,161,,,,,,0,127,127,127,,,,,,,,,,,,,,,,,,,,,,,,,,,,,,,,,,,,,,,,,,,,,,,,,,,,,,,,,701.4482939000004,701.9537064000001,701.9537064000001,702.7090414999998,702.7090414999998,703.2088918000004,703.2088918000004,704.1086285000006,704.1086285000006,None,num_6,0.6878014999992956,704.1086285000006,None,sad,1,Sad,704.8167840600004,None,None,704.8167840600004,None,,,,,,,,,,,,,,,,,,,,,,,,,,,,,,,,,,,,,,,,,,,,,,,,,,,,,11,001,female,20,425,425,2022_Sep_05_1044,Experiment,2021.1.4,360.20848867122595,
images\S9_F_H_02.png,images\S9_F_H_02_scrambled.png,9,happy,20,female,5,,530,off,1,0.5,0.75,0.5,0.776,3,529,1,1,1,0,0,0,0,5,,,,,,0,128,128,128,,,,,,,,,,,,,,,,,,,,,,,,,,,,,,,,,,,,,,,,,,,,,,,,,,,,,,,,,704.8694516999999,705.3721891,705.3721891,706.1218371,706.1218371,706.6217266999997,706.6217266999997,707.4048057000005,707.4048057000005,None,num_4,0.25552220000008674,707.4048057000005,None,happy,1,Happy,707.6741415399997,None,None,707.6741415399997,None,,,,,,,,,,,,,,,,,,,,,,,,,,,,,,,,,,,,,,,,,,,,,,,,,,,,,11,001,female,20,425,425,2022_Sep_05_1044,Experiment,2021.1.4,360.20848867122595,
images\S10_M_S_02.png,images\S10_M_S_02_scrambled.png,10,sad,-20,male,2,,479,on,2,0.5,0.75,0.5,0.799,3,478,1,1,1,2,2,32,128,162,,,,,,0,129,129,129,,,,,,,,,,,,,,,,,,,,,,,,,,,,,,,,,,,,,,,,,,,,,,,,,,,,,,,,,707.7241346000005,708.2267410999998,708.2267410999998,708.9765130000001,708.9765130000001,709.4791766000003,709.4791766000003,710.2816695000006,710.2816695000006,None,num_4,0.9545478000000003,710.2816695000006,None,happy,1,Sad,711.2452722200001,None,None,711.2452722200001,None,,,,,,,,,,,,,,,,,,,,,,,,,,,,,,,,,,,,,,,,,,,,,,,,,,,,,11,001,female,20,425,425,2022_Sep_05_1044,Experiment,2021.1.4,360.20848867122595,
images\S2_M_H_03.png,images\S2_M_H_03_scrambled.png,2,happy,30,male,6,,549,on,2,0.5,0.75,0.5,0.795,3,548,2,1,1,2,2,32,128,166,,,,,,0,130,130,130,,,,,,,,,,,,,,,,,,,,,,,,,,,,,,,,,,,,,,,,,,,,,,,,,,,,,,,,,711.2952479999999,711.7978981000001,711.7978981000001,712.5476321000001,712.5476321000001,713.0531295000005,713.0531295000005,713.8500252999997,713.8500252999997,None,num_4,0.33021780000035506,713.8500252999997,None,happy,1,Happy,714.2054794999999,None,space,714.2054794999999,None,80.73464090000016,,,,,,,,,,,,,,,,,,,,,,,,,,,,,,,,,,,,,,,,,,,,,,,,,,,,11,001,female,20,425,425,2022_Sep_05_1044,Experiment,2021.1.4,360.20848867122595,
images\S9_F_S_03.png,images\S9_F_S_03_scrambled.png,9,sad,-30,female,1,,294,off,1,0.5,0.75,0.5,0.85,3,293,1,1,1,0,0,0,0,1,,,,,,0,131,131,131,,,,,,,,,,,,,,,,,,,,,,,,,,,,,,,,,,,,,,,,,,,,,,,,,,,,,,,,,794.9944187000006,795.4998692000004,795.4998692000004,796.2523877999997,796.2523877999997,796.7579118999997,796.7579118999997,797.6103204000005,797.6103204000005,None,num_4,0.297765199999958,797.6103204000005,None,happy,1,Sad,797.9296992599998,None,None,797.9296992599998,None,,,,,,,,,,,,,,,,,,,,,,,,,,,,,,,,,,,,,,,,,,,,,,,,,,,,,11,001,female,20,425,425,2022_Sep_05_1044,Experiment,2021.1.4,360.20848867122595,
images\S2_M_H_02.png,images\S2_M_H_02_scrambled.png,2,happy,20,male,5,,548,on,2,0.5,0.75,0.5,0.785,3,547,1,1,1,2,2,32,128,165,,,,,,0,132,132,132,,,,,,,,,,,,,,,,,,,,,,,,,,,,,,,,,,,,,,,,,,,,,,,,,,,,,,,,,797.9935226000002,798.4989648000005,798.4989648000005,799.2514973000002,799.2514973000002,799.7541259000004,799.7541259000004,800.5428489000001,800.5428489000001,None,num_4,0.24529379999967205,800.5428489000001,None,happy,1,Happy,800.8009935500004,None,None,800.8009935500004,None,,,,,,,,,,,,,,,,,,,,,,,,,,,,,,,,,,,,,,,,,,,,,,,,,,,,,11,001,female,20,425,425,2022_Sep_05_1044,Experiment,2021.1.4,360.20848867122595,
images\blank.jpg,images\blank.jpg,none,none,none,none,0,,629,on,2,0.5,0.75,0.5,0.906,0,628,2,1,1,3,3,48,192,240,,,,,,0,133,133,133,,,,,,,,,,,,,,,,,,,,,,,,,,,,,,,,,,,,,,,,,,,,,,,,,,,,,,,,,800.8817015,801.3841838000003,801.3841838000003,802.1339051,802.1339051,802.6393399000003,802.6393399000003,803.5446957999998,803.5446957999998,803.5446957999998,None,,803.5446957999998,None,miss,1,,806.5464552100002,None,None,806.5464552100002,None,,,,,,,,,,,,,,,,,,,,,,,,,,,,,,,,,,,,,,,,,,,,,,,,,,,,,11,001,female,20,425,425,2022_Sep_05_1044,Experiment,2021.1.4,360.20848867122595,
images\S9_F_S_02.png,images\S9_F_S_02_scrambled.png,9,sad,-20,female,2,,53,off,1,0.5,0.75,0.5,0.871,3,52,1,1,1,0,0,0,0,2,,,,,,0,134,134,134,,,,,,,,,,,,,,,,,,,,,,,,,,,,,,,,,,,,,,,,,,,,,,,,,,,,,,,,,806.6605648,807.1601366999998,807.1601366999998,807.9126845000005,807.9126845000005,808.4181505000001,808.4181505000001,809.2929455999997,809.2929455999997,None,num_4,1.6152577000002566,809.2929455999997,806.6605648,happy,1,Sad,810.91731742,None,None,810.91731742,None,,,,,,,,,,,,,,,,,,,,,,,,,,,,,,,,,,,,,,,,,,,,,,,,,,,,,11,001,female,20,425,425,2022_Sep_05_1044,Experiment,2021.1.4,360.20848867122595,
images\blank.jpg,images\blank.jpg,none,none,none,none,0,,642,on,2,0.5,0.75,0.5,0.919,0,641,1,1,1,3,3,48,192,240,,,,,,0,135,135,135,,,,,,,,,,,,,,,,,,,,,,,,,,,,,,,,,,,,,,,,,,,,,,,,,,,,,,,,,811.0008542,811.5033220999999,811.5033220999999,812.2530305000005,812.2530305000005,812.7556301999998,812.7556301999998,813.6777017999998,813.6777017999998,813.6777017999998,None,,813.6777017999998,None,miss,1,,816.6794879200002,None,None,816.6794879200002,None,,,,,,,,,,,,,,,,,,,,,,,,,,,,,,,,,,,,,,,,,,,,,,,,,,,,,11,001,female,20,425,425,2022_Sep_05_1044,Experiment,2021.1.4,360.20848867122595,
images\S5_F_S_01.png,images\S5_F_S_01_scrambled.png,5,sad,-10,female,3,,208,on,2,0.5,0.75,0.5,0.95,3,207,2,1,1,2,2,32,128,163,,,,,,0,136,136,136,,,,,,,,,,,,,,,,,,,,,,,,,,,,,,,,,,,,,,,,,,,,,,,,,,,,,,,,,816.7990905000001,817.3042682,817.3042682,818.0595800000006,818.0595800000006,818.5649736999999,818.5649736999999,819.5202381000004,819.5202381000004,None,num_4,0.31591969999954017,819.5202381000004,816.7990905000001,happy,1,Sad,819.8451276199999,None,None,819.8451276199999,None,,,,,,,,,,,,,,,,,,,,,,,,,,,,,,,,,,,,,,,,,,,,,,,,,,,,,11,001,female,20,425,425,2022_Sep_05_1044,Experiment,2021.1.4,360.20848867122595,
images\S9_F_H_03.png,images\S9_F_H_03_scrambled.png,9,happy,30,female,6,,351,on,2,0.5,0.75,0.5,0.899,3,350,3,1,1,2,2,32,128,166,,,,,,0,137,137,137,,,,,,,,,,,,,,,,,,,,,,,,,,,,,,,,,,,,,,,,,,,,,,,,,,,,,,,,,819.8951117000001,820.3977433000005,820.3977433000005,821.1531416000003,821.1531416000003,821.6584996000006,821.6584996000006,822.5609442,822.5609442,None,num_4,0.267063500000404,822.5609442,None,happy,1,Happy,822.83863324,None,None,822.83863324,None,,,,,,,,,,,,,,,,,,,,,,,,,,,,,,,,,,,,,,,,,,,,,,,,,,,,,11,001,female,20,425,425,2022_Sep_05_1044,Experiment,2021.1.4,360.20848867122595,
images\S3_F_S_01.png,images\S3_F_S_01_scrambled.png,3,sad,-10,female,3,,76,on,2,0.5,0.75,0.5,0.912,3,75,4,1,1,2,2,32,128,163,,,,,,0,138,138,138,,,,,,,,,,,,,,,,,,,,,,,,,,,,,,,,,,,,,,,,,,,,,,,,,,,,,,,,,822.9052833999999,823.4106947000005,823.4106947000005,824.1632427999998,824.1632427999998,824.6686820999998,824.6686820999998,825.5822321999999,825.5822321999999,None,num_6,0.32583359999989625,825.5822321999999,None,sad,1,Sad,825.9321860799996,None,None,825.9321860799996,None,,,,,,,,,,,,,,,,,,,,,,,,,,,,,,,,,,,,,,,,,,,,,,,,,,,,,11,001,female,20,425,425,2022_Sep_05_1044,Experiment,2021.1.4,360.20848867122595,
