image_face,image_scram,avatar,emo,emotion,sex,trigeeg,dac,trial_no,NMES,stimtime,baseline,iti,face,scr_face,resp_time,index,count_NMES,count_avatar,count_emotion,dac1,dac2,dac1_output,dac2_output,trigs_out,nmes,practice_trials.thisRepN,practice_trials.thisTrialN,practice_trials.thisN,practice_trials.thisIndex,real_trials.thisRepN,real_trials.thisTrialN,real_trials.thisN,real_trials.thisIndex,trials.thisRepN,trials.thisTrialN,trials.thisN,trials.thisIndex,position,Welcome.started,Welcome.stopped,Welcome_resp.keys,Welcome_resp.rt,text_2.started,text_2.stopped,form_2.index,form_2.itemText,form_2.type,form_2.response,form_2.rt,key_resp_4.keys,key_resp_4.rt,key_resp_4.started,key_resp_4.stopped,instructions.started,instructions.stopped,end_instr.keys,end_instr.rt,instructions_2.started,instructions_2.stopped,end_instr_2.keys,end_instr_2.rt,end_instr_2.started,end_instr_2.stopped,instruct_keypress.started,instruct_keypress.stopped,end_instruct_keypress.keys,end_instruct_keypress.rt,start_practice.started,start_practice.stopped,start_practice_resp.keys,start_practice_resp.rt,prac_baseline.started,prac_baseline.stopped,prac_iti.started,prac_iti.stopped,prac_stimulus.started,prac_stimulus.stopped,prac_scram_stim.started,prac_scram_stim.stopped,prac_stimulus_resp.started,prac_stimulus_resp.stopped,prac_resp.keys,prac_resp.rt,prac_resp.started,prac_resp.stopped,transition_to_real.started,transition_to_real.stopped,end_transition_to_real.keys,end_transition_to_real.rt,fixation_cross.started,fixation_cross.stopped,tr_iti.started,tr_iti.stopped,stimulus.started,stimulus.stopped,scram_stim.started,scram_stim.stopped,response_txt.started,response_txt.stopped,response.keys,response.rt,response.started,response.stopped,participant_Resp,grouping,corAnswer,break_msg.started,break_msg.stopped,end_break.keys,end_break.started,end_break.stopped,end_break.rt,text.started,text.stopped,key_resp_3.keys,key_resp_3.rt,key_resp_3.started,key_resp_3.stopped,fix_cross_comf.started,fix_cross_comf.stopped,stimulation_comf.started,stimulation_comf.stopped,rate_instr.started,rate_instr.stopped,comfort_rating.response,comfort_rating.rt,comfort_rating.started,comfort_rating.stopped,resp_form.keys,resp_form.rt,resp_form.started,resp_form.stopped,survey_instructions.started,survey_instructions.stopped,key_resp_2.keys,key_resp_2.rt,key_resp_2.started,key_resp_2.stopped,form.index,form.itemText,form.type,form.response,form.rt,key_resp.keys,key_resp.rt,key_resp.started,key_resp.stopped,text_3.started,text_3.stopped,rate_smile.response,rate_smile.rt,rate_smile.started,rate_smile.stopped,key_resp_5.keys,key_resp_5.rt,key_resp_5.started,key_resp_5.stopped,end_msg.started,end_msg.stopped,end_resp.keys,end_resp.rt,end_resp.started,end_resp.stopped,participant,session,gender,age,LEFT,RIGHT,date,expName,psychopyVersion,frameRate,
,,,,,,,,,,,,,,,,,,,,,,,,,,,,,,,,,,,,,,S-H,27.220919500000036,None,num_add,12.799622799999725,,,,,,,,,,,,,,,,,,,,,,,,,,,,,,,,,,,,,,,,,,,,,,,,,,,,,,,,,,,,,,,,,,,,,,,,,,,,,,,,,,,,,,,,,,,,,,,,,,,,,,,,,,,,,,,,,,,,,,,,,,12,001,male,24,450,450,2022_Sep_12_1239,Experiment,2021.1.4,360.3356887261634,
,,,,,,,,,,,,,,,,,,,,,,,,,,,,,,,,,,,,,,,,,,,40.04149139999981,42.10197879999987,1,"This scale consistes of a number of words that describe different feelings and emotion. Read each item and then list the number from the scale below each word. Indicate (by clicking) to what extend you feel this way RIGHT NOW, that is, AT THE PRESENT MOMENT.",description,,,,,,,,,,,,,,,,,,,,,,,,,,,,,,,,,,,,,,,,,,,,,,,,,,,,,,,,,,,,,,,,,,,,,,,,,,,,,,,,,,,,,,,,,,,,,,,,,,,,,,,,,,,,,,,,,,,,,12,001,male,24,450,450,2022_Sep_12_1239,Experiment,2021.1.4,360.3356887261634,
,,,,,,,,,,,,,,,,,,,,,,,,,,,,,,,,,,,,,,,,,,,,,2,Interested,rating,5.0,20.793590300000233,,,,,,,,,,,,,,,,,,,,,,,,,,,,,,,,,,,,,,,,,,,,,,,,,,,,,,,,,,,,,,,,,,,,,,,,,,,,,,,,,,,,,,,,,,,,,,,,,,,,,,,,,,,,,,,,,,,12,001,male,24,450,450,2022_Sep_12_1239,Experiment,2021.1.4,360.3356887261634,
,,,,,,,,,,,,,,,,,,,,,,,,,,,,,,,,,,,,,,,,,,,,,3,Distressed,rating,1.0,23.636787299999924,,,,,,,,,,,,,,,,,,,,,,,,,,,,,,,,,,,,,,,,,,,,,,,,,,,,,,,,,,,,,,,,,,,,,,,,,,,,,,,,,,,,,,,,,,,,,,,,,,,,,,,,,,,,,,,,,,,12,001,male,24,450,450,2022_Sep_12_1239,Experiment,2021.1.4,360.3356887261634,
,,,,,,,,,,,,,,,,,,,,,,,,,,,,,,,,,,,,,,,,,,,,,4,Excited,rating,4.0,27.76031789999979,,,,,,,,,,,,,,,,,,,,,,,,,,,,,,,,,,,,,,,,,,,,,,,,,,,,,,,,,,,,,,,,,,,,,,,,,,,,,,,,,,,,,,,,,,,,,,,,,,,,,,,,,,,,,,,,,,,12,001,male,24,450,450,2022_Sep_12_1239,Experiment,2021.1.4,360.3356887261634,
,,,,,,,,,,,,,,,,,,,,,,,,,,,,,,,,,,,,,,,,,,,,,5,Upset,rating,1.0,34.1271455000001,,,,,,,,,,,,,,,,,,,,,,,,,,,,,,,,,,,,,,,,,,,,,,,,,,,,,,,,,,,,,,,,,,,,,,,,,,,,,,,,,,,,,,,,,,,,,,,,,,,,,,,,,,,,,,,,,,,12,001,male,24,450,450,2022_Sep_12_1239,Experiment,2021.1.4,360.3356887261634,
,,,,,,,,,,,,,,,,,,,,,,,,,,,,,,,,,,,,,,,,,,,,,6,Strong,rating,4.0,35.345656399999825,,,,,,,,,,,,,,,,,,,,,,,,,,,,,,,,,,,,,,,,,,,,,,,,,,,,,,,,,,,,,,,,,,,,,,,,,,,,,,,,,,,,,,,,,,,,,,,,,,,,,,,,,,,,,,,,,,,12,001,male,24,450,450,2022_Sep_12_1239,Experiment,2021.1.4,360.3356887261634,
,,,,,,,,,,,,,,,,,,,,,,,,,,,,,,,,,,,,,,,,,,,,,7,Guilty,rating,1.0,7.4567634,,,,,,,,,,,,,,,,,,,,,,,,,,,,,,,,,,,,,,,,,,,,,,,,,,,,,,,,,,,,,,,,,,,,,,,,,,,,,,,,,,,,,,,,,,,,,,,,,,,,,,,,,,,,,,,,,,,12,001,male,24,450,450,2022_Sep_12_1239,Experiment,2021.1.4,360.3356887261634,
,,,,,,,,,,,,,,,,,,,,,,,,,,,,,,,,,,,,,,,,,,,,,8,Scared,rating,1.0,8.02720139999974,,,,,,,,,,,,,,,,,,,,,,,,,,,,,,,,,,,,,,,,,,,,,,,,,,,,,,,,,,,,,,,,,,,,,,,,,,,,,,,,,,,,,,,,,,,,,,,,,,,,,,,,,,,,,,,,,,,12,001,male,24,450,450,2022_Sep_12_1239,Experiment,2021.1.4,360.3356887261634,
,,,,,,,,,,,,,,,,,,,,,,,,,,,,,,,,,,,,,,,,,,,,,9,Hostile,rating,1.0,6.117331200000081,,,,,,,,,,,,,,,,,,,,,,,,,,,,,,,,,,,,,,,,,,,,,,,,,,,,,,,,,,,,,,,,,,,,,,,,,,,,,,,,,,,,,,,,,,,,,,,,,,,,,,,,,,,,,,,,,,,12,001,male,24,450,450,2022_Sep_12_1239,Experiment,2021.1.4,360.3356887261634,
,,,,,,,,,,,,,,,,,,,,,,,,,,,,,,,,,,,,,,,,,,,,,10,Enthusiastic,rating,4.0,6.180559700000231,,,,,,,,,,,,,,,,,,,,,,,,,,,,,,,,,,,,,,,,,,,,,,,,,,,,,,,,,,,,,,,,,,,,,,,,,,,,,,,,,,,,,,,,,,,,,,,,,,,,,,,,,,,,,,,,,,,12,001,male,24,450,450,2022_Sep_12_1239,Experiment,2021.1.4,360.3356887261634,
,,,,,,,,,,,,,,,,,,,,,,,,,,,,,,,,,,,,,,,,,,,,,11,Proud,rating,3.0,7.015613300000041,,,,,,,,,,,,,,,,,,,,,,,,,,,,,,,,,,,,,,,,,,,,,,,,,,,,,,,,,,,,,,,,,,,,,,,,,,,,,,,,,,,,,,,,,,,,,,,,,,,,,,,,,,,,,,,,,,,12,001,male,24,450,450,2022_Sep_12_1239,Experiment,2021.1.4,360.3356887261634,
,,,,,,,,,,,,,,,,,,,,,,,,,,,,,,,,,,,,,,,,,,,,,12,Irritable,rating,1.0,7.655333800000335,,,,,,,,,,,,,,,,,,,,,,,,,,,,,,,,,,,,,,,,,,,,,,,,,,,,,,,,,,,,,,,,,,,,,,,,,,,,,,,,,,,,,,,,,,,,,,,,,,,,,,,,,,,,,,,,,,,12,001,male,24,450,450,2022_Sep_12_1239,Experiment,2021.1.4,360.3356887261634,
,,,,,,,,,,,,,,,,,,,,,,,,,,,,,,,,,,,,,,,,,,,,,13,Alert,rating,4.0,7.950993099999778,,,,,,,,,,,,,,,,,,,,,,,,,,,,,,,,,,,,,,,,,,,,,,,,,,,,,,,,,,,,,,,,,,,,,,,,,,,,,,,,,,,,,,,,,,,,,,,,,,,,,,,,,,,,,,,,,,,12,001,male,24,450,450,2022_Sep_12_1239,Experiment,2021.1.4,360.3356887261634,
,,,,,,,,,,,,,,,,,,,,,,,,,,,,,,,,,,,,,,,,,,,,,14,Ashamed,rating,1.0,7.518534699999691,,,,,,,,,,,,,,,,,,,,,,,,,,,,,,,,,,,,,,,,,,,,,,,,,,,,,,,,,,,,,,,,,,,,,,,,,,,,,,,,,,,,,,,,,,,,,,,,,,,,,,,,,,,,,,,,,,,12,001,male,24,450,450,2022_Sep_12_1239,Experiment,2021.1.4,360.3356887261634,
,,,,,,,,,,,,,,,,,,,,,,,,,,,,,,,,,,,,,,,,,,,,,15,Inspired,rating,3.0,9.773509199999808,,,,,,,,,,,,,,,,,,,,,,,,,,,,,,,,,,,,,,,,,,,,,,,,,,,,,,,,,,,,,,,,,,,,,,,,,,,,,,,,,,,,,,,,,,,,,,,,,,,,,,,,,,,,,,,,,,,12,001,male,24,450,450,2022_Sep_12_1239,Experiment,2021.1.4,360.3356887261634,
,,,,,,,,,,,,,,,,,,,,,,,,,,,,,,,,,,,,,,,,,,,,,16,Nervous,rating,1.0,10.22534480000013,,,,,,,,,,,,,,,,,,,,,,,,,,,,,,,,,,,,,,,,,,,,,,,,,,,,,,,,,,,,,,,,,,,,,,,,,,,,,,,,,,,,,,,,,,,,,,,,,,,,,,,,,,,,,,,,,,,12,001,male,24,450,450,2022_Sep_12_1239,Experiment,2021.1.4,360.3356887261634,
,,,,,,,,,,,,,,,,,,,,,,,,,,,,,,,,,,,,,,,,,,,,,17,Determined,rating,3.0,5.792266400000244,,,,,,,,,,,,,,,,,,,,,,,,,,,,,,,,,,,,,,,,,,,,,,,,,,,,,,,,,,,,,,,,,,,,,,,,,,,,,,,,,,,,,,,,,,,,,,,,,,,,,,,,,,,,,,,,,,,12,001,male,24,450,450,2022_Sep_12_1239,Experiment,2021.1.4,360.3356887261634,
,,,,,,,,,,,,,,,,,,,,,,,,,,,,,,,,,,,,,,,,,,,,,18,Attentive,rating,4.0,5.3171155,,,,,,,,,,,,,,,,,,,,,,,,,,,,,,,,,,,,,,,,,,,,,,,,,,,,,,,,,,,,,,,,,,,,,,,,,,,,,,,,,,,,,,,,,,,,,,,,,,,,,,,,,,,,,,,,,,,12,001,male,24,450,450,2022_Sep_12_1239,Experiment,2021.1.4,360.3356887261634,
,,,,,,,,,,,,,,,,,,,,,,,,,,,,,,,,,,,,,,,,,,,,,19,Jittery,rating,1.0,5.29931119999992,,,,,,,,,,,,,,,,,,,,,,,,,,,,,,,,,,,,,,,,,,,,,,,,,,,,,,,,,,,,,,,,,,,,,,,,,,,,,,,,,,,,,,,,,,,,,,,,,,,,,,,,,,,,,,,,,,,12,001,male,24,450,450,2022_Sep_12_1239,Experiment,2021.1.4,360.3356887261634,
,,,,,,,,,,,,,,,,,,,,,,,,,,,,,,,,,,,,,,,,,,,,,20,Active,rating,5.0,9.041340499999933,,,,,,,,,,,,,,,,,,,,,,,,,,,,,,,,,,,,,,,,,,,,,,,,,,,,,,,,,,,,,,,,,,,,,,,,,,,,,,,,,,,,,,,,,,,,,,,,,,,,,,,,,,,,,,,,,,,12,001,male,24,450,450,2022_Sep_12_1239,Experiment,2021.1.4,360.3356887261634,
,,,,,,,,,,,,,,,,,,,,,,,,,,,,,,,,,,,,,,,,,,,,,21,Afraid,rating,1.0,8.937562699999944,,,,,,,,,,,,,,,,,,,,,,,,,,,,,,,,,,,,,,,,,,,,,,,,,,,,,,,,,,,,,,,,,,,,,,,,,,,,,,,,,,,,,,,,,,,,,,,,,,,,,,,,,,,,,,,,,,,12,001,male,24,450,450,2022_Sep_12_1239,Experiment,2021.1.4,360.3356887261634,
,,,,,,,,,,,,,,,,,,,,,,,,,,,,,,,,,,,,,,,,,,,,,22,Press the + button to submit your answers,description,,,,,,,,,,,,,,,,,,,,,,,,,,,,,,,,,,,,,,,,,,,,,,,,,,,,,,,,,,,,,,,,,,,,,,,,,,,,,,,,,,,,,,,,,,,,,,,,,,,,,,,,,,,,,,,,,,,,,12,001,male,24,450,450,2022_Sep_12_1239,Experiment,2021.1.4,360.3356887261634,
,,,,,,,,,,,,,,,,,,,,,,,,,,,,,,,,,,,,,,,,,,,,,,,,,,num_add,65.55636929999991,50.080067099999724,None,,,,,,,,,,,,,,,,,,,,,,,,,,,,,,,,,,,,,,,,,,,,,,,,,,,,,,,,,,,,,,,,,,,,,,,,,,,,,,,,,,,,,,,,,,,,,,,,,,,,,,,,,,,,,,,12,001,male,24,450,450,2022_Sep_12_1239,Experiment,2021.1.4,360.3356887261634,
,,,,,,,,,,,,,,,,,,,,,,,,,,,,,,,,,,,,,,,,,,,,,,,,,,,,,,115.65153109999983,None,num_add,14.18503550000014,,,,,,,,,,,,,,,,,,,,,,,,,,,,,,,,,,,,,,,,,,,,,,,,,,,,,,,,,,,,,,,,,,,,,,,,,,,,,,,,,,,,,,,,,,,,,,,,,,,,,,,,,,,12,001,male,24,450,450,2022_Sep_12_1239,Experiment,2021.1.4,360.3356887261634,
,,,,,,,,,,,,,,,,,,,,,,,,,,,,,,,,,,,,,,,,,,,,,,,,,,,,,,,,,,129.84717599999976,None,num_add,9.81332680000014,129.84717599999976,None,,,,,,,,,,,,,,,,,,,,,,,,,,,,,,,,,,,,,,,,,,,,,,,,,,,,,,,,,,,,,,,,,,,,,,,,,,,,,,,,,,,,,,,,,,,,,,,,,,,,,12,001,male,24,450,450,2022_Sep_12_1239,Experiment,2021.1.4,360.3356887261634,
,,,,,,,,,,,,,,,,,,,,,,,,,,,,,,,,,,,,,,,,,,,,,,,,,,,,,,,,,,,,,,,,139.68023859999994,None,num_add,16.364200399999845,,,,,,,,,,,,,,,,,,,,,,,,,,,,,,,,,,,,,,,,,,,,,,,,,,,,,,,,,,,,,,,,,,,,,,,,,,,,,,,,,,,,,,,,,,,,,,,,,12,001,male,24,450,450,2022_Sep_12_1239,Experiment,2021.1.4,360.3356887261634,
,,,,,,,,,,,,,,,,,,,,,,,,,,,,,,,,,,,,,,,,,,,,,,,,,,,,,,,,,,,,,,,,,,,,156.0529858,None,space,81.13527610000028,,,,,,,,,,,,,,,,,,,,,,,,,,,,,,,,,,,,,,,,,,,,,,,,,,,,,,,,,,,,,,,,,,,,,,,,,,,,,,,,,,,,,,,,,,,,,12,001,male,24,450,450,2022_Sep_12_1239,Experiment,2021.1.4,360.3356887261634,
images\S22_M_S_02.png,images\S22_M_S_02_scrambled.png,22,Sad,0.2,M,0,0,practice,on,2,0.5,0.75,0.5,0.783,3,,,,,,,,,,,0,0,0,6,,,,,,,,,,,,,,,,,,,,,,,,,,,,,,,,,,,,,,,,,,,237.3750842999998,237.8805739999998,237.8805739999998,238.63321649999943,238.63321649999943,239.13297349999993,239.13297349999993,239.9189408000002,239.9189408000002,None,num_6,2.358015599999817,239.9189408000002,None,,,,,,,,,,,,,,,,,,,,,,,,,,,,,,,,,,,,,,,,,,,,,,,,,,,,,,,,,,,,,,,,,,,,,,,,,,,,,,,12,001,male,24,450,450,2022_Sep_12_1239,Experiment,2021.1.4,360.3356887261634,
images\S21_F_H_01.png,images\S21_F_H_01_scrambled.png,21,Happy,-0.1,F,0,0,practice,off,1,0.5,0.75,0.5,0.853,3,,,,,,,,,,,0,1,1,0,,,,,,,,,,,,,,,,,,,,,,,,,,,,,,,,,,,,,,,,,,,242.34306190000007,242.84569809999994,242.84569809999994,243.59836129999985,243.59836129999985,244.10376189999988,244.10376189999988,244.9590546999998,244.9590546999998,None,num_6,0.6937146000000212,244.9590546999998,None,,,,,,,,,,,,,,,,,,,,,,,,,,,,,,,,,,,,,,,,,,,,,,,,,,,,,,,,,,,,,,,,,,,,,,,,,,,,,,,12,001,male,24,450,450,2022_Sep_12_1239,Experiment,2021.1.4,360.3356887261634,
images\S21_F_H_02.png,images\S21_F_H_02_scrambled.png,21,Happy,-0.2,F,0,0,practice,off,1,0.5,0.75,0.5,0.91,3,,,,,,,,,,,0,2,2,1,,,,,,,,,,,,,,,,,,,,,,,,,,,,,,,,,,,,,,,,,,,245.71981059999962,246.22519680000005,246.22519680000005,246.9805451000002,246.9805451000002,247.48328169999968,247.48328169999968,248.39956749999965,248.39956749999965,None,num_6,2.445423199999823,248.39956749999965,None,,,,,,,,,,,,,,,,,,,,,,,,,,,,,,,,,,,,,,,,,,,,,,,,,,,,,,,,,,,,,,,,,,,,,,,,,,,,,,,12,001,male,24,450,450,2022_Sep_12_1239,Experiment,2021.1.4,360.3356887261634,
images\S22_M_S_03.png,images\S22_M_S_03_scrambled.png,22,Sad,0.3,M,0,0,practice,on,2,0.5,0.75,0.5,0.87,3,,,,,,,,,,,0,3,3,4,,,,,,,,,,,,,,,,,,,,,,,,,,,,,,,,,,,,,,,,,,,250.90988409999954,251.41248619999988,251.41248619999988,252.16224460000012,252.16224460000012,252.6649198999994,252.6649198999994,253.53964819999965,253.53964819999965,None,num_4,0.5373229999995601,253.53964819999965,None,,,,,,,,,,,,,,,,,,,,,,,,,,,,,,,,,,,,,,,,,,,,,,,,,,,,,,,,,,,,,,,,,,,,,,,,,,,,,,,12,001,male,24,450,450,2022_Sep_12_1239,Experiment,2021.1.4,360.3356887261634,
images\S22_M_S_01.png,images\S22_M_S_01_scrambled.png,22,Sad,0.1,M,0,0,practice,on,2,0.5,0.75,0.5,0.867,3,,,,,,,,,,,0,4,4,5,,,,,,,,,,,,,,,,,,,,,,,,,,,,,,,,,,,,,,,,,,,254.13943259999996,254.6420567999994,254.6420567999994,255.39737760000025,255.39737760000025,255.90003350000006,255.90003350000006,256.76916879999953,256.76916879999953,None,num_4,0.8518094999999448,256.76916879999953,None,,,,,,,,,,,,,,,,,,,,,,,,,,,,,,,,,,,,,,,,,,,,,,,,,,,,,,,,,,,,,,,,,,,,,,,,,,,,,,,12,001,male,24,450,450,2022_Sep_12_1239,Experiment,2021.1.4,360.3356887261634,
images\S22_M_H_02.png,images\S22_M_H_02_scrambled.png,22,Happy,-0.2,M,0,0,practice,off,1,0.5,0.75,0.5,0.883,3,,,,,,,,,,,0,5,5,2,,,,,,,,,,,,,,,,,,,,,,,,,,,,,,,,,,,,,,,,,,,257.6883444999994,258.18818399999964,258.18818399999964,258.94363259999955,258.94363259999955,259.4489751000001,259.4489751000001,260.3347796999997,260.3347796999997,None,num_4,0.6138621000000057,260.3347796999997,None,,,,,,,,,,,,,,,,,,,,,,,,,,,,,,,,,,,,,,,,,,,,,,,,,,,,,,,,,,,,,,,,,,,,,,,,,,,,,,,12,001,male,24,450,450,2022_Sep_12_1239,Experiment,2021.1.4,360.3356887261634,
images\S22_M_S_03.png,images\S22_M_S_03_scrambled.png,22,Sad,0.3,M,0,0,practice,on,2,0.5,0.75,0.5,0.794,3,,,,,,,,,,,0,6,6,7,,,,,,,,,,,,,,,,,,,,,,,,,,,,,,,,,,,,,,,,,,,261.0041046999995,261.5066109999998,261.5066109999998,262.2563861999997,262.2563861999997,262.7562264999997,262.7562264999997,263.5531825999997,263.5531825999997,None,num_4,0.3397962999997617,263.5531825999997,None,,,,,,,,,,,,,,,,,,,,,,,,,,,,,,,,,,,,,,,,,,,,,,,,,,,,,,,,,,,,,,,,,,,,,,,,,,,,,,,12,001,male,24,450,450,2022_Sep_12_1239,Experiment,2021.1.4,360.3356887261634,
images\S22_M_S_02.png,images\S22_M_S_02_scrambled.png,22,Sad,0.2,M,0,0,practice,off,1,0.5,0.75,0.5,0.751,3,,,,,,,,,,,0,7,7,3,,,,,,,,,,,,,,,,,,,,,,,,,,,,,,,,,,,,,,,,,,,263.95306999999957,264.4529445999997,264.4529445999997,265.20272449999993,265.20272449999993,265.70821479999995,265.70821479999995,266.4635346999994,266.4635346999994,None,num_4,0.9093594000005396,266.4635346999994,None,,,,,,,,,,,,,,,,,,,,,,,,,,,,,,,,,,,,,,,,,,,,,,,,,,,,,,,,,,,,,,,,,,,,,,,,,,,,,,,12,001,male,24,450,450,2022_Sep_12_1239,Experiment,2021.1.4,360.3356887261634,
,,,,,,,,,,,,,,,,,,,,,,,,,,,,,,,,,,,,,,,,,,,,,,,,,,,,,,,,,,,,,,,,,,,,,,,,,,,,,,,,,,,,,,267.4047536999997,None,space,41.22341880000022,,,,,,,,,,,,,,,,,,,,,,,,,,,,,,,,,,,,,,,,,,,,,,,,,,,,,,,,,,,,,,,,,,,,,,,,,,,12,001,male,24,450,450,2022_Sep_12_1239,Experiment,2021.1.4,360.3356887261634,
images\S5_F_H_01.png,images\S5_F_H_01_scrambled.png,5,happy,10,female,4,,445,on,2,0.5,0.75,0.5,0.815,3,444,1,1,1,2,2,32,128,164,,,,,,0,0,0,0,,,,,,,,,,,,,,,,,,,,,,,,,,,,,,,,,,,,,,,,,,,,,,,,,,,,,,,,,309.1364595999994,309.6390814999995,309.6390814999995,310.3943737999998,310.3943737999998,310.8969944999999,310.8969944999999,311.7189902,311.7189902,None,num_6,0.3498240999997506,311.7189902,None,happy,0,Happy,312.08545949999984,None,None,312.08545949999984,None,,,,,,,,,,,,,,,,,,,,,,,,,,,,,,,,,,,,,,,,,,,,,,,,,,,,,12,001,male,24,450,450,2022_Sep_12_1239,Experiment,2021.1.4,360.3356887261634,
images\S6_M_H_02.png,images\S6_M_H_02_scrambled.png,6,happy,20,male,5,,272,off,1,0.5,0.75,0.5,0.894,3,271,1,1,1,0,0,0,0,5,,,,,,0,1,1,1,,,,,,,,,,,,,,,,,,,,,,,,,,,,,,,,,,,,,,,,,,,,,,,,,,,,,,,,,312.1437758000002,312.64922959999967,312.64922959999967,313.40177889999995,313.40177889999995,313.9015829,313.9015829,314.7986566999998,314.7986566999998,None,num_4,0.07021120000081282,314.7986566999998,None,sad,0,Happy,314.87355142,None,None,314.87355142,None,,,,,,,,,,,,,,,,,,,,,,,,,,,,,,,,,,,,,,,,,,,,,,,,,,,,,12,001,male,24,450,450,2022_Sep_12_1239,Experiment,2021.1.4,360.3356887261634,
images\S4_M_H_01.png,images\S4_M_H_01_scrambled.png,4,happy,10,male,4,,439,on,2,0.5,0.75,0.5,0.913,3,438,1,1,1,2,2,32,128,164,,,,,,0,2,2,2,,,,,,,,,,,,,,,,,,,,,,,,,,,,,,,,,,,,,,,,,,,,,,,,,,,,,,,,,314.9456903,315.45110099999965,315.45110099999965,316.2008559999995,316.2008559999995,316.7034931999997,316.7034931999997,317.6198666999999,317.6198666999999,None,num_4,0.5369435999991765,317.6198666999999,None,sad,0,Happy,318.16139601999953,None,None,318.16139601999953,None,,,,,,,,,,,,,,,,,,,,,,,,,,,,,,,,,,,,,,,,,,,,,,,,,,,,,12,001,male,24,450,450,2022_Sep_12_1239,Experiment,2021.1.4,360.3356887261634,
images\S5_F_S_01.png,images\S5_F_S_01_scrambled.png,5,sad,-10,female,3,,268,off,1,0.5,0.75,0.5,0.792,3,267,1,1,1,0,0,0,0,3,,,,,,0,3,3,3,,,,,,,,,,,,,,,,,,,,,,,,,,,,,,,,,,,,,,,,,,,,,,,,,,,,,,,,,318.2392190999999,318.7389916000002,318.7389916000002,319.48875450000014,319.48875450000014,319.98860009999953,319.98860009999953,320.7855773000001,320.7855773000001,None,num_4,0.7872059999999692,320.7855773000001,None,sad,0,Sad,321.6021222199997,None,None,321.6021222199997,None,,,,,,,,,,,,,,,,,,,,,,,,,,,,,,,,,,,,,,,,,,,,,,,,,,,,,12,001,male,24,450,450,2022_Sep_12_1239,Experiment,2021.1.4,360.3356887261634,
images\S9_F_H_03.png,images\S9_F_H_03_scrambled.png,9,happy,30,female,6,,471,on,2,0.5,0.75,0.5,0.923,3,470,1,1,1,2,2,32,128,166,,,,,,0,4,4,4,,,,,,,,,,,,,,,,,,,,,,,,,,,,,,,,,,,,,,,,,,,,,,,,,,,,,,,,,321.6630626999995,322.1657064000001,322.1657064000001,322.9182251000002,322.9182251000002,323.42375959999936,323.42375959999936,324.3511440000002,324.3511440000002,None,num_6,0.24592219999976805,324.3511440000002,None,happy,0,Happy,324.61215873999987,None,None,324.61215873999987,None,,,,,,,,,,,,,,,,,,,,,,,,,,,,,,,,,,,,,,,,,,,,,,,,,,,,,12,001,male,24,450,450,2022_Sep_12_1239,Experiment,2021.1.4,360.3356887261634,
images\S10_M_H_01.png,images\S10_M_H_01_scrambled.png,10,happy,10,male,4,,595,on,2,0.5,0.75,0.5,0.92,3,594,2,1,1,2,2,32,128,164,,,,,,0,5,5,5,,,,,,,,,,,,,,,,,,,,,,,,,,,,,,,,,,,,,,,,,,,,,,,,,,,,,,,,,324.66770480000014,325.1732205999997,325.1732205999997,325.9285476999994,325.9285476999994,326.4339153000001,326.4339153000001,327.3585906999997,327.3585906999997,None,num_6,0.2863268999999491,327.3585906999997,None,happy,0,Happy,327.6586093399997,None,None,327.6586093399997,None,,,,,,,,,,,,,,,,,,,,,,,,,,,,,,,,,,,,,,,,,,,,,,,,,,,,,12,001,male,24,450,450,2022_Sep_12_1239,Experiment,2021.1.4,360.3356887261634,
images\S2_M_S_03.png,images\S2_M_S_03_scrambled.png,2,sad,-30,male,1,,252,off,1,0.5,0.75,0.5,0.921,3,251,1,1,1,0,0,0,0,1,,,,,,0,6,6,6,,,,,,,,,,,,,,,,,,,,,,,,,,,,,,,,,,,,,,,,,,,,,,,,,,,,,,,,,327.7140822000001,328.2138484999996,328.2138484999996,328.96920469999986,328.96920469999986,329.4689919000002,329.4689919000002,330.39650879999954,330.39650879999954,None,num_4,0.5601649999998699,330.39650879999954,None,sad,0,Sad,330.9851647999999,None,None,330.9851647999999,None,,,,,,,,,,,,,,,,,,,,,,,,,,,,,,,,,,,,,,,,,,,,,,,,,,,,,12,001,male,24,450,450,2022_Sep_12_1239,Experiment,2021.1.4,360.3356887261634,
images\S9_F_S_01.png,images\S9_F_S_01_scrambled.png,9,sad,-10,female,3,,232,on,2,0.5,0.75,0.5,0.849,3,231,1,1,1,2,2,32,128,163,,,,,,0,7,7,7,,,,,,,,,,,,,,,,,,,,,,,,,,,,,,,,,,,,,,,,,,,,,,,,,,,,,,,,,331.0462883,331.5516945999998,331.5516945999998,332.3042939999996,332.3042939999996,332.8068857999997,332.8068857999997,333.65941079999993,333.65941079999993,None,num_6,0.5693525000006048,333.65941079999993,None,happy,0,Sad,334.23420441999974,None,None,334.23420441999974,None,,,,,,,,,,,,,,,,,,,,,,,,,,,,,,,,,,,,,,,,,,,,,,,,,,,,,12,001,male,24,450,450,2022_Sep_12_1239,Experiment,2021.1.4,360.3356887261634,
images\S10_M_H_02.png,images\S10_M_H_02_scrambled.png,10,happy,20,male,5,,56,off,1,0.5,0.75,0.5,0.898,3,55,1,1,1,0,0,0,0,5,,,,,,0,8,8,8,,,,,,,,,,,,,,,,,,,,,,,,,,,,,,,,,,,,,,,,,,,,,,,,,,,,,,,,,334.31483519999983,334.81734589999996,334.81734589999996,335.56993449999936,335.56993449999936,336.0725520999995,336.0725520999995,336.9779232000001,336.9779232000001,None,num_6,0.7228270999994493,336.9779232000001,None,happy,0,Happy,337.7136545399995,None,None,337.7136545399995,None,,,,,,,,,,,,,,,,,,,,,,,,,,,,,,,,,,,,,,,,,,,,,,,,,,,,,12,001,male,24,450,450,2022_Sep_12_1239,Experiment,2021.1.4,360.3356887261634,
images\S7_F_S_02.png,images\S7_F_S_02_scrambled.png,7,sad,-20,female,2,,41,off,1,0.5,0.75,0.5,0.841,3,40,2,1,1,0,0,0,0,2,,,,,,0,9,9,9,,,,,,,,,,,,,,,,,,,,,,,,,,,,,,,,,,,,,,,,,,,,,,,,,,,,,,,,,337.7719970999997,338.27465759999995,338.27465759999995,339.0299716999998,339.0299716999998,339.5325994999994,339.5325994999994,340.3795650000002,340.3795650000002,None,num_6,0.3851863999998386,340.3795650000002,None,happy,0,Sad,340.7738395199997,None,None,340.7738395199997,None,,,,,,,,,,,,,,,,,,,,,,,,,,,,,,,,,,,,,,,,,,,,,,,,,,,,,12,001,male,24,450,450,2022_Sep_12_1239,Experiment,2021.1.4,360.3356887261634,
images\S5_F_H_01.png,images\S5_F_H_01_scrambled.png,5,happy,10,female,4,,205,on,2,0.5,0.75,0.5,0.9,3,204,1,1,1,2,2,32,128,164,,,,,,0,10,10,10,,,,,,,,,,,,,,,,,,,,,,,,,,,,,,,,,,,,,,,,,,,,,,,,,,,,,,,,,340.82104809999964,341.3237809000002,341.3237809000002,342.0734330999994,342.0734330999994,342.5760792000001,342.5760792000001,343.47869339999943,343.47869339999943,None,num_6,0.581978799999888,343.47869339999943,None,happy,0,Happy,344.07559884000017,None,None,344.07559884000017,None,,,,,,,,,,,,,,,,,,,,,,,,,,,,,,,,,,,,,,,,,,,,,,,,,,,,,12,001,male,24,450,450,2022_Sep_12_1239,Experiment,2021.1.4,360.3356887261634,
images\S10_M_H_02.png,images\S10_M_H_02_scrambled.png,10,happy,20,male,5,,416,off,1,0.5,0.75,0.5,0.827,3,415,1,1,1,0,0,0,0,5,,,,,,0,11,11,11,,,,,,,,,,,,,,,,,,,,,,,,,,,,,,,,,,,,,,,,,,,,,,,,,,,,,,,,,344.1228216999998,344.6226590999995,344.6226590999995,345.3751937999996,345.3751937999996,345.88062230000014,345.88062230000014,346.7138023999996,346.7138023999996,None,num_6,0.4349512999997387,346.7138023999996,None,happy,0,Happy,347.16350563999964,None,None,347.16350563999964,None,,,,,,,,,,,,,,,,,,,,,,,,,,,,,,,,,,,,,,,,,,,,,,,,,,,,,12,001,male,24,450,450,2022_Sep_12_1239,Experiment,2021.1.4,360.3356887261634,
images\S10_M_H_03.png,images\S10_M_H_03_scrambled.png,10,happy,30,male,6,,417,off,1,0.5,0.75,0.5,0.88,3,416,2,2,1,0,0,0,0,6,,,,,,0,12,12,12,,,,,,,,,,,,,,,,,,,,,,,,,,,,,,,,,,,,,,,,,,,,,,,,,,,,,,,,,347.2468579999995,347.7495283999997,347.7495283999997,348.4992425999999,348.4992425999999,349.00467879999997,349.00467879999997,349.8849264999999,349.8849264999999,None,num_6,0.4479319000001851,349.8849264999999,None,happy,0,Happy,350.34864639999955,None,None,350.34864639999955,None,,,,,,,,,,,,,,,,,,,,,,,,,,,,,,,,,,,,,,,,,,,,,,,,,,,,,12,001,male,24,450,450,2022_Sep_12_1239,Experiment,2021.1.4,360.3356887261634,
images\S1_F_H_02.png,images\S1_F_H_02_scrambled.png,1,happy,20,female,5,,482,off,1,0.5,0.75,0.5,0.886,3,481,3,1,1,0,0,0,0,5,,,,,,0,13,13,13,,,,,,,,,,,,,,,,,,,,,,,,,,,,,,,,,,,,,,,,,,,,,,,,,,,,,,,,,350.4070045999997,350.9096109000002,350.9096109000002,351.65938279999955,351.65938279999955,352.16206409999995,352.16206409999995,353.05351900000005,353.05351900000005,None,num_4,0.32729879999988043,353.05351900000005,None,sad,0,Happy,353.38936281999963,None,None,353.38936281999963,None,,,,,,,,,,,,,,,,,,,,,,,,,,,,,,,,,,,,,,,,,,,,,,,,,,,,,12,001,male,24,450,450,2022_Sep_12_1239,Experiment,2021.1.4,360.3356887261634,
images\S4_M_H_03.png,images\S4_M_H_03_scrambled.png,4,happy,30,male,6,,21,off,1,0.5,0.75,0.5,0.832,3,20,4,1,1,0,0,0,0,6,,,,,,0,14,14,14,,,,,,,,,,,,,,,,,,,,,,,,,,,,,,,,,,,,,,,,,,,,,,,,,,,,,,,,,353.4477373999998,353.9503698999997,353.9503698999997,354.70292419999987,354.70292419999987,355.2055375,355.2055375,356.0441860000001,356.0441860000001,None,num_4,0.6086669999995138,356.0441860000001,None,sad,0,Happy,356.6578715199996,None,None,356.6578715199996,None,,,,,,,,,,,,,,,,,,,,,,,,,,,,,,,,,,,,,,,,,,,,,,,,,,,,,12,001,male,24,450,450,2022_Sep_12_1239,Experiment,2021.1.4,360.3356887261634,
images\S9_F_S_02.png,images\S9_F_S_02_scrambled.png,9,sad,-20,female,2,,593,on,2,0.5,0.75,0.5,0.773,3,592,1,1,1,2,2,32,128,162,,,,,,0,15,15,15,,,,,,,,,,,,,,,,,,,,,,,,,,,,,,,,,,,,,,,,,,,,,,,,,,,,,,,,,356.7355927999997,357.2383583999999,357.2383583999999,357.99078139999983,357.99078139999983,358.4935336999997,358.4935336999997,359.2709399999994,359.2709399999994,None,num_4,0.7178523000002315,359.2709399999994,None,sad,0,Sad,359.9984933399997,None,None,359.9984933399997,None,,,,,,,,,,,,,,,,,,,,,,,,,,,,,,,,,,,,,,,,,,,,,,,,,,,,,12,001,male,24,450,450,2022_Sep_12_1239,Experiment,2021.1.4,360.3356887261634,
images\S2_M_H_02.png,images\S2_M_H_02_scrambled.png,2,happy,20,male,5,,188,on,2,0.5,0.75,0.5,0.925,3,187,2,1,1,2,2,32,128,165,,,,,,0,16,16,16,,,,,,,,,,,,,,,,,,,,,,,,,,,,,,,,,,,,,,,,,,,,,,,,,,,,,,,,,360.0567917999997,360.5594721999996,360.5594721999996,361.3091801999999,361.3091801999999,361.8090838999997,361.8090838999997,362.73934800000006,362.73934800000006,None,num_6,0.0897038999992219,362.73934800000006,None,happy,0,Happy,362.84482213999996,None,None,362.84482213999996,None,,,,,,,,,,,,,,,,,,,,,,,,,,,,,,,,,,,,,,,,,,,,,,,,,,,,,12,001,male,24,450,450,2022_Sep_12_1239,Experiment,2021.1.4,360.3356887261634,
images\S5_F_S_01.png,images\S5_F_S_01_scrambled.png,5,sad,-10,female,3,,448,on,2,0.5,0.75,0.5,0.817,3,447,3,1,1,2,2,32,128,163,,,,,,0,17,17,17,,,,,,,,,,,,,,,,,,,,,,,,,,,,,,,,,,,,,,,,,,,,,,,,,,,,,,,,,362.91702179999993,363.4196786000002,363.4196786000002,364.16941789999964,364.16941789999964,364.6748558999998,364.6748558999998,365.4940494000002,365.4940494000002,None,num_4,0.030896999999640684,365.4940494000002,None,sad,0,Sad,365.5523289799996,None,None,365.5523289799996,None,,,,,,,,,,,,,,,,,,,,,,,,,,,,,,,,,,,,,,,,,,,,,,,,,,,,,12,001,male,24,450,450,2022_Sep_12_1239,Experiment,2021.1.4,360.3356887261634,
images\S1_F_S_01.png,images\S1_F_S_01_scrambled.png,1,sad,-10,female,3,,544,on,2,0.5,0.75,0.5,0.916,3,543,4,1,2,2,2,32,128,163,,,,,,0,18,18,18,,,,,,,,,,,,,,,,,,,,,,,,,,,,,,,,,,,,,,,,,,,,,,,,,,,,,,,,,365.6244829999996,366.12714979999964,366.12714979999964,366.8769655999995,366.8769655999995,367.3768178,367.3768178,368.29879379999966,368.29879379999966,None,num_4,0.23375900000064576,368.29879379999966,None,sad,0,Sad,368.54587270000025,None,None,368.54587270000025,None,,,,,,,,,,,,,,,,,,,,,,,,,,,,,,,,,,,,,,,,,,,,,,,,,,,,,12,001,male,24,450,450,2022_Sep_12_1239,Experiment,2021.1.4,360.3356887261634,
images\S3_F_H_01.png,images\S3_F_H_01_scrambled.png,3,happy,10,female,4,,493,off,1,0.5,0.75,0.5,0.831,3,492,1,1,1,0,0,0,0,4,,,,,,0,19,19,19,,,,,,,,,,,,,,,,,,,,,,,,,,,,,,,,,,,,,,,,,,,,,,,,,,,,,,,,,368.60426949999965,369.10960030000024,369.10960030000024,369.8621487999999,369.8621487999999,370.3647721999996,370.3647721999996,371.1950181000002,371.1950181000002,None,num_4,0.44950560000052064,371.1950181000002,None,sad,0,Happy,371.65044091999994,None,None,371.65044091999994,None,,,,,,,,,,,,,,,,,,,,,,,,,,,,,,,,,,,,,,,,,,,,,,,,,,,,,12,001,male,24,450,450,2022_Sep_12_1239,Experiment,2021.1.4,360.3356887261634,
images\S1_F_H_03.png,images\S1_F_H_03_scrambled.png,1,happy,30,female,6,,363,off,1,0.5,0.75,0.5,0.766,3,362,2,1,1,0,0,0,0,6,,,,,,0,20,20,20,,,,,,,,,,,,,,,,,,,,,,,,,,,,,,,,,,,,,,,,,,,,,,,,,,,,,,,,,371.7115334,372.21694389999993,372.21694389999993,372.96948859999975,372.96948859999975,373.4749198999998,373.4749198999998,374.2441338999997,374.2441338999997,None,num_6,0.2967482000003656,374.2441338999997,None,happy,0,Happy,374.56350458000014,None,None,374.56350458000014,None,,,,,,,,,,,,,,,,,,,,,,,,,,,,,,,,,,,,,,,,,,,,,,,,,,,,,12,001,male,24,450,450,2022_Sep_12_1239,Experiment,2021.1.4,360.3356887261634,
images\S5_F_S_01.png,images\S5_F_S_01_scrambled.png,5,sad,-10,female,3,,148,off,1,0.5,0.75,0.5,0.823,3,147,3,1,1,0,0,0,0,3,,,,,,0,21,21,21,,,,,,,,,,,,,,,,,,,,,,,,,,,,,,,,,,,,,,,,,,,,,,,,,,,,,,,,,374.61619619999965,375.11891079999987,375.11891079999987,375.87418329999946,375.87418329999946,376.3768129,376.3768129,377.2043297,377.2043297,None,num_4,0.2644024000001082,377.2043297,None,sad,0,Sad,377.4792227399999,None,None,377.4792227399999,None,,,,,,,,,,,,,,,,,,,,,,,,,,,,,,,,,,,,,,,,,,,,,,,,,,,,,12,001,male,24,450,450,2022_Sep_12_1239,Experiment,2021.1.4,360.3356887261634,
images\S10_M_S_01.png,images\S10_M_S_01_scrambled.png,10,sad,-10,male,3,,538,off,1,0.5,0.75,0.5,0.823,3,537,4,1,2,0,0,0,0,3,,,,,,0,22,22,22,,,,,,,,,,,,,,,,,,,,,,,,,,,,,,,,,,,,,,,,,,,,,,,,,,,,,,,,,377.53751790000024,378.0401700000002,378.0401700000002,378.7927122000001,378.7927122000001,379.2953375999996,379.2953375999996,380.12296830000014,380.12296830000014,None,num_4,0.28997179999987566,380.12296830000014,None,sad,0,Sad,380.4311269999996,None,None,380.4311269999996,None,,,,,,,,,,,,,,,,,,,,,,,,,,,,,,,,,,,,,,,,,,,,,,,,,,,,,12,001,male,24,450,450,2022_Sep_12_1239,Experiment,2021.1.4,360.3356887261634,
images\S7_F_H_03.png,images\S7_F_H_03_scrambled.png,7,happy,30,female,6,,459,on,2,0.5,0.75,0.5,0.77,3,458,1,1,1,2,2,32,128,166,,,,,,0,23,23,23,,,,,,,,,,,,,,,,,,,,,,,,,,,,,,,,,,,,,,,,,,,,,,,,,,,,,,,,,380.4893843,380.9920136999999,380.9920136999999,381.7446001999997,381.7446001999997,382.2471807000002,382.2471807000002,383.0192030999997,383.0192030999997,None,num_6,0.4414425000004485,383.0192030999997,None,happy,0,Happy,383.47737853999985,None,None,383.47737853999985,None,,,,,,,,,,,,,,,,,,,,,,,,,,,,,,,,,,,,,,,,,,,,,,,,,,,,,12,001,male,24,450,450,2022_Sep_12_1239,Experiment,2021.1.4,360.3356887261634,
images\S9_F_S_03.png,images\S9_F_S_03_scrambled.png,9,sad,-30,female,1,,174,off,1,0.5,0.75,0.5,0.813,3,173,1,1,1,0,0,0,0,1,,,,,,0,24,24,24,,,,,,,,,,,,,,,,,,,,,,,,,,,,,,,,,,,,,,,,,,,,,,,,,,,,,,,,,383.5328955999994,384.0355376999996,384.0355376999996,384.78819310000017,384.78819310000017,385.2935970999997,385.2935970999997,386.1099125999999,386.1099125999999,None,num_4,0.41493179999997665,386.1099125999999,None,sad,0,Sad,386.54029374,None,None,386.54029374,None,,,,,,,,,,,,,,,,,,,,,,,,,,,,,,,,,,,,,,,,,,,,,,,,,,,,,12,001,male,24,450,450,2022_Sep_12_1239,Experiment,2021.1.4,360.3356887261634,
images\S10_M_S_01.png,images\S10_M_S_01_scrambled.png,10,sad,-10,male,3,,178,off,1,0.5,0.75,0.5,0.853,3,177,2,1,1,0,0,0,0,3,,,,,,0,25,25,25,,,,,,,,,,,,,,,,,,,,,,,,,,,,,,,,,,,,,,,,,,,,,,,,,,,,,,,,,386.5875218000001,387.08735160000015,387.08735160000015,387.83712319999995,387.83712319999995,388.33697440000014,388.33697440000014,389.19506589999946,389.19506589999946,None,num_4,0.27369659999931173,389.19506589999946,None,sad,0,Sad,389.49217771999975,None,None,389.49217771999975,None,,,,,,,,,,,,,,,,,,,,,,,,,,,,,,,,,,,,,,,,,,,,,,,,,,,,,12,001,male,24,450,450,2022_Sep_12_1239,Experiment,2021.1.4,360.3356887261634,
images\S4_M_H_03.png,images\S4_M_H_03_scrambled.png,4,happy,30,male,6,,561,on,2,0.5,0.75,0.5,0.82,3,560,1,1,1,2,2,32,128,166,,,,,,0,26,26,26,,,,,,,,,,,,,,,,,,,,,,,,,,,,,,,,,,,,,,,,,,,,,,,,,,,,,,,,,389.55056869999953,390.0532168999998,390.0532168999998,390.8029141999996,390.8029141999996,391.3055255999998,391.3055255999998,392.13027580000016,392.13027580000016,None,num_4,0.5303905999999188,392.13027580000016,None,sad,0,Happy,392.6661757200002,None,None,392.6661757200002,None,,,,,,,,,,,,,,,,,,,,,,,,,,,,,,,,,,,,,,,,,,,,,,,,,,,,,12,001,male,24,450,450,2022_Sep_12_1239,Experiment,2021.1.4,360.3356887261634,
images\S9_F_S_01.png,images\S9_F_S_01_scrambled.png,9,sad,-10,female,3,,592,on,2,0.5,0.75,0.5,0.804,3,591,2,1,1,2,2,32,128,163,,,,,,0,27,27,27,,,,,,,,,,,,,,,,,,,,,,,,,,,,,,,,,,,,,,,,,,,,,,,,,,,,,,,,,392.7161718999996,393.21887179999976,393.21887179999976,393.96858749999956,393.96858749999956,394.4740468,394.4740468,395.28486780000003,395.28486780000003,None,num_4,0.3999632000004567,395.28486780000003,None,sad,0,Sad,395.6958585399994,None,None,395.6958585399994,None,,,,,,,,,,,,,,,,,,,,,,,,,,,,,,,,,,,,,,,,,,,,,,,,,,,,,12,001,male,24,450,450,2022_Sep_12_1239,Experiment,2021.1.4,360.3356887261634,
images\S8_M_S_02.png,images\S8_M_S_02_scrambled.png,8,sad,-20,male,2,,347,on,2,0.5,0.75,0.5,0.884,3,346,3,1,1,2,2,32,128,162,,,,,,0,28,28,28,,,,,,,,,,,,,,,,,,,,,,,,,,,,,,,,,,,,,,,,,,,,,,,,,,,,,,,,,395.78189810000003,396.28452579999976,396.28452579999976,397.03429659999983,397.03429659999983,397.53412879999996,397.53412879999996,398.4200125999996,398.4200125999996,None,num_4,0.3286809999999605,398.4200125999996,None,sad,0,Sad,398.76430833999945,None,None,398.76430833999945,None,,,,,,,,,,,,,,,,,,,,,,,,,,,,,,,,,,,,,,,,,,,,,,,,,,,,,12,001,male,24,450,450,2022_Sep_12_1239,Experiment,2021.1.4,360.3356887261634,
images\S4_M_H_03.png,images\S4_M_H_03_scrambled.png,4,happy,30,male,6,,321,on,2,0.5,0.75,0.5,0.95,3,320,4,1,1,2,2,32,128,166,,,,,,0,29,29,29,,,,,,,,,,,,,,,,,,,,,,,,,,,,,,,,,,,,,,,,,,,,,,,,,,,,,,,,,398.8142917999994,399.3169266999994,399.3169266999994,400.0667453999995,400.0667453999995,400.5665548999996,400.5665548999996,401.51901309999994,401.51901309999994,None,num_4,0.6696324000004097,401.51901309999994,None,sad,0,Happy,402.1938235199998,None,None,402.1938235199998,None,,,,,,,,,,,,,,,,,,,,,,,,,,,,,,,,,,,,,,,,,,,,,,,,,,,,,12,001,male,24,450,450,2022_Sep_12_1239,Experiment,2021.1.4,360.3356887261634,
images\blank.jpg,images\blank.jpg,none,none,none,none,0,,641,on,2,0.5,0.75,0.5,0.903,0,640,5,1,1,3,3,48,192,240,,,,,,0,30,30,30,,,,,,,,,,,,,,,,,,,,,,,,,,,,,,,,,,,,,,,,,,,,,,,,,,,,,,,,,402.29959119999967,402.8019624999997,402.8019624999997,403.55454289999943,403.55454289999943,404.0599424000002,404.0599424000002,404.9624407000001,404.9624407000001,404.9624407000001,None,,404.9624407000001,None,miss,0,,407.9615332599998,None,None,407.9615332599998,None,,,,,,,,,,,,,,,,,,,,,,,,,,,,,,,,,,,,,,,,,,,,,,,,,,,,,12,001,male,24,450,450,2022_Sep_12_1239,Experiment,2021.1.4,360.3356887261634,
images\S7_F_S_02.png,images\S7_F_S_02_scrambled.png,7,sad,-20,female,2,,101,on,2,0.5,0.75,0.5,0.775,3,100,6,1,1,2,2,32,128,162,,,,,,0,31,31,31,,,,,,,,,,,,,,,,,,,,,,,,,,,,,,,,,,,,,,,,,,,,,,,,,,,,,,,,,408.08392860000004,408.58352599999944,408.58352599999944,409.3360504000002,409.3360504000002,409.8387695000001,409.8387695000001,410.6162104999994,410.6162104999994,None,num_4,0.2766781999998784,410.6162104999994,408.08392860000004,sad,0,Sad,410.91886747999996,None,None,410.91886747999996,None,,,,,,,,,,,,,,,,,,,,,,,,,,,,,,,,,,,,,,,,,,,,,,,,,,,,,12,001,male,24,450,450,2022_Sep_12_1239,Experiment,2021.1.4,360.3356887261634,
images\S3_F_H_02.png,images\S3_F_H_02_scrambled.png,3,happy,20,female,5,,14,off,1,0.5,0.75,0.5,0.766,3,13,1,1,1,0,0,0,0,5,,,,,,0,32,32,32,,,,,,,,,,,,,,,,,,,,,,,,,,,,,,,,,,,,,,,,,,,,,,,,,,,,,,,,,411.02719999999954,411.52985009999975,411.52985009999975,412.28517180000017,412.28517180000017,412.7878923999997,412.7878923999997,413.55980050000016,413.55980050000016,None,num_4,0.35694279999916034,413.55980050000016,None,sad,0,Happy,413.9235483199993,None,None,413.9235483199993,None,,,,,,,,,,,,,,,,,,,,,,,,,,,,,,,,,,,,,,,,,,,,,,,,,,,,,12,001,male,24,450,450,2022_Sep_12_1239,Experiment,2021.1.4,360.3356887261634,
images\S1_F_H_01.png,images\S1_F_H_01_scrambled.png,1,happy,10,female,4,,541,on,2,0.5,0.75,0.5,0.919,3,540,1,1,1,2,2,32,128,164,,,,,,0,33,33,33,,,,,,,,,,,,,,,,,,,,,,,,,,,,,,,,,,,,,,,,,,,,,,,,,,,,,,,,,413.98471789999985,414.4900676999996,414.4900676999996,415.2453395000002,415.2453395000002,415.7507612999998,415.7507612999998,416.6754861999998,416.6754861999998,None,num_4,0.4738941999994495,416.6754861999998,None,sad,0,Happy,417.16149887999967,None,None,417.16149887999967,None,,,,,,,,,,,,,,,,,,,,,,,,,,,,,,,,,,,,,,,,,,,,,,,,,,,,,12,001,male,24,450,450,2022_Sep_12_1239,Experiment,2021.1.4,360.3356887261634,
images\blank.jpg,images\blank.jpg,none,none,none,none,0,,612,on,2,0.5,0.75,0.5,0.766,0,611,2,1,1,3,3,48,192,240,,,,,,0,34,34,34,,,,,,,,,,,,,,,,,,,,,,,,,,,,,,,,,,,,,,,,,,,,,,,,,,,,,,,,,417.25909580000007,417.7640309999997,417.7640309999997,418.5137759999998,418.5137759999998,419.0164150999999,419.0164150999999,419.7828751999996,419.7828751999996,419.7828751999996,None,,419.7828751999996,None,miss,0,,422.78476051999974,None,None,422.78476051999974,None,,,,,,,,,,,,,,,,,,,,,,,,,,,,,,,,,,,,,,,,,,,,,,,,,,,,,12,001,male,24,450,450,2022_Sep_12_1239,Experiment,2021.1.4,360.3356887261634,
images\S9_F_S_02.png,images\S9_F_S_02_scrambled.png,9,sad,-20,female,2,,293,off,1,0.5,0.75,0.5,0.855,3,292,1,1,1,0,0,0,0,2,,,,,,0,35,35,35,,,,,,,,,,,,,,,,,,,,,,,,,,,,,,,,,,,,,,,,,,,,,,,,,,,,,,,,,422.9071434999996,423.4095360000001,423.4095360000001,424.1592713,424.1592713,424.66189250000025,424.66189250000025,425.5171843999997,425.5171843999997,None,num_4,0.25560140000015963,425.5171843999997,422.9071434999996,sad,0,Sad,425.7838111400002,None,None,425.7838111400002,None,,,,,,,,,,,,,,,,,,,,,,,,,,,,,,,,,,,,,,,,,,,,,,,,,,,,,12,001,male,24,450,450,2022_Sep_12_1239,Experiment,2021.1.4,360.3356887261634,
images\S5_F_S_02.png,images\S5_F_S_02_scrambled.png,5,sad,-20,female,2,,449,on,2,0.5,0.75,0.5,0.785,3,448,1,1,2,2,2,32,128,162,,,,,,0,36,36,36,,,,,,,,,,,,,,,,,,,,,,,,,,,,,,,,,,,,,,,,,,,,,,,,,,,,,,,,,425.86707190000016,426.3696951000002,426.3696951000002,427.1222824999995,427.1222824999995,427.62488889999986,427.62488889999986,428.41363699999965,428.41363699999965,None,num_4,0.5670982000001459,428.41363699999965,None,sad,0,Sad,428.99389773999934,None,None,428.99389773999934,None,,,,,,,,,,,,,,,,,,,,,,,,,,,,,,,,,,,,,,,,,,,,,,,,,,,,,12,001,male,24,450,450,2022_Sep_12_1239,Experiment,2021.1.4,360.3356887261634,
images\S1_F_S_02.png,images\S1_F_S_02_scrambled.png,1,sad,-20,female,2,,125,off,1,0.5,0.75,0.5,0.822,3,124,1,1,3,0,0,0,0,2,,,,,,0,37,37,37,,,,,,,,,,,,,,,,,,,,,,,,,,,,,,,,,,,,,,,,,,,,,,,,,,,,,,,,,429.0522169999995,429.5520448999996,429.5520448999996,430.3046392999995,430.3046392999995,430.80725600000005,430.80725600000005,431.6291906999995,431.6291906999995,None,num_4,0.5195878000004086,431.6291906999995,None,sad,0,Sad,432.15964623999986,None,None,432.15964623999986,None,,,,,,,,,,,,,,,,,,,,,,,,,,,,,,,,,,,,,,,,,,,,,,,,,,,,,12,001,male,24,450,450,2022_Sep_12_1239,Experiment,2021.1.4,360.3356887261634,
images\S6_M_S_03.png,images\S6_M_S_03_scrambled.png,6,sad,-30,male,1,,396,off,1,0.5,0.75,0.5,0.866,3,395,2,1,1,0,0,0,0,1,,,,,,0,38,38,38,,,,,,,,,,,,,,,,,,,,,,,,,,,,,,,,,,,,,,,,,,,,,,,,,,,,,,,,,432.21789499999977,432.7205396999998,432.7205396999998,433.4731525999996,433.4731525999996,433.97860070000024,433.97860070000024,434.8504361999994,434.8504361999994,None,num_4,0.3623799999995754,434.8504361999994,None,sad,0,Sad,435.22807314000016,None,None,435.22807314000016,None,,,,,,,,,,,,,,,,,,,,,,,,,,,,,,,,,,,,,,,,,,,,,,,,,,,,,12,001,male,24,450,450,2022_Sep_12_1239,Experiment,2021.1.4,360.3356887261634,
images\S10_M_S_03.png,images\S10_M_S_03_scrambled.png,10,sad,-30,male,1,,300,off,1,0.5,0.75,0.5,0.874,3,299,3,1,2,0,0,0,0,1,,,,,,0,39,39,39,,,,,,,,,,,,,,,,,,,,,,,,,,,,,,,,,,,,,,,,,,,,,,,,,,,,,,,,,435.28362089999973,435.7890619,435.7890619,436.5387800999997,436.5387800999997,437.04422929999964,437.04422929999964,437.91891209999994,437.91891209999994,None,num_4,0.26225220000014815,437.91891209999994,None,sad,0,Sad,438.21058964000014,None,None,438.21058964000014,None,,,,,,,,,,,,,,,,,,,,,,,,,,,,,,,,,,,,,,,,,,,,,,,,,,,,,12,001,male,24,450,450,2022_Sep_12_1239,Experiment,2021.1.4,360.3356887261634,
images\S7_F_S_03.png,images\S7_F_S_03_scrambled.png,7,sad,-30,female,1,,42,off,1,0.5,0.75,0.5,0.789,3,41,4,1,3,0,0,0,0,1,,,,,,0,40,40,40,,,,,,,,,,,,,,,,,,,,,,,,,,,,,,,,,,,,,,,,,,,,,,,,,,,,,,,,,438.28546579999966,438.79088499999943,438.79088499999943,439.5462007999995,439.5462007999995,440.04888909999954,440.04888909999954,440.84023400000024,440.84023400000024,None,num_4,0.32452069999999367,440.84023400000024,None,sad,0,Sad,441.17902333999933,None,None,441.17902333999933,None,,,,,,,,,,,,,,,,,,,,,,,,,,,,,,,,,,,,,,,,,,,,,,,,,,,,,12,001,male,24,450,450,2022_Sep_12_1239,Experiment,2021.1.4,360.3356887261634,
images\S10_M_H_03.png,images\S10_M_H_03_scrambled.png,10,happy,30,male,6,,537,off,1,0.5,0.75,0.5,0.852,3,536,5,1,1,0,0,0,0,6,,,,,,0,41,41,41,,,,,,,,,,,,,,,,,,,,,,,,,,,,,,,,,,,,,,,,,,,,,,,,,,,,,,,,,441.22900669999945,441.7344449000002,441.7344449000002,442.4841686999998,442.4841686999998,442.98961379999946,442.98961379999946,443.8448626999998,443.8448626999998,None,num_6,0.6317278999995324,443.8448626999998,None,happy,0,Happy,444.49190353999944,None,None,444.49190353999944,None,,,,,,,,,,,,,,,,,,,,,,,,,,,,,,,,,,,,,,,,,,,,,,,,,,,,,12,001,male,24,450,450,2022_Sep_12_1239,Experiment,2021.1.4,360.3356887261634,
images\S6_M_H_01.png,images\S6_M_H_01_scrambled.png,6,happy,10,male,4,,151,off,1,0.5,0.75,0.5,0.775,3,150,6,1,1,0,0,0,0,4,,,,,,0,42,42,42,,,,,,,,,,,,,,,,,,,,,,,,,,,,,,,,,,,,,,,,,,,,,,,,,,,,,,,,,444.5502041,445.0528280999997,445.0528280999997,445.80259279999973,445.80259279999973,446.3024826999999,446.3024826999999,447.08000790000006,447.08000790000006,None,num_4,0.2368229000003339,447.08000790000006,None,sad,0,Happy,447.32994652,None,None,447.32994652,None,,,,,,,,,,,,,,,,,,,,,,,,,,,,,,,,,,,,,,,,,,,,,,,,,,,,,12,001,male,24,450,450,2022_Sep_12_1239,Experiment,2021.1.4,360.3356887261634,
images\S3_F_H_02.png,images\S3_F_H_02_scrambled.png,3,happy,20,female,5,,434,on,2,0.5,0.75,0.5,0.897,3,433,1,1,1,2,2,32,128,165,,,,,,0,43,43,43,,,,,,,,,,,,,,,,,,,,,,,,,,,,,,,,,,,,,,,,,,,,,,,,,,,,,,,,,447.38544120000006,447.8880607000001,447.8880607000001,448.64062849999937,448.64062849999937,449.1432642999998,449.1432642999998,450.0430953999994,450.0430953999994,None,num_6,0.36202589999993506,450.0430953999994,None,happy,0,Happy,450.4290465599996,None,None,450.4290465599996,None,,,,,,,,,,,,,,,,,,,,,,,,,,,,,,,,,,,,,,,,,,,,,,,,,,,,,12,001,male,24,450,450,2022_Sep_12_1239,Experiment,2021.1.4,360.3356887261634,
images\S8_M_H_01.png,images\S8_M_H_01_scrambled.png,8,happy,10,male,4,,403,off,1,0.5,0.75,0.5,0.903,3,402,1,1,1,0,0,0,0,4,,,,,,0,44,44,44,,,,,,,,,,,,,,,,,,,,,,,,,,,,,,,,,,,,,,,,,,,,,,,,,,,,,,,,,450.4872612999998,450.9871155999999,450.9871155999999,451.73693469999944,451.73693469999944,452.23954520000007,452.23954520000007,453.1420097,453.1420097,None,num_4,0.24680239999997866,453.1420097,None,sad,0,Happy,453.40021397999993,None,None,453.40021397999993,None,,,,,,,,,,,,,,,,,,,,,,,,,,,,,,,,,,,,,,,,,,,,,,,,,,,,,12,001,male,24,450,450,2022_Sep_12_1239,Experiment,2021.1.4,360.3356887261634,
images\S4_M_S_01.png,images\S4_M_S_01_scrambled.png,4,sad,-10,male,3,,322,on,2,0.5,0.75,0.5,0.862,3,321,1,1,1,2,2,32,128,163,,,,,,0,45,45,45,,,,,,,,,,,,,,,,,,,,,,,,,,,,,,,,,,,,,,,,,,,,,,,,,,,,,,,,,453.4696778999996,453.97230279999985,453.97230279999985,454.7221105999997,454.7221105999997,455.22472949999974,455.22472949999974,456.0939436999997,456.0939436999997,None,num_4,0.5670956000003571,456.0939436999997,None,sad,0,Sad,456.67153834000015,None,None,456.67153834000015,None,,,,,,,,,,,,,,,,,,,,,,,,,,,,,,,,,,,,,,,,,,,,,,,,,,,,,12,001,male,24,450,450,2022_Sep_12_1239,Experiment,2021.1.4,360.3356887261634,
images\S7_F_H_02.png,images\S7_F_H_02_scrambled.png,7,happy,20,female,5,,98,on,2,0.5,0.75,0.5,0.868,3,97,2,1,1,2,2,32,128,165,,,,,,0,46,46,46,,,,,,,,,,,,,,,,,,,,,,,,,,,,,,,,,,,,,,,,,,,,,,,,,,,,,,,,,456.74366999999984,457.2491083999994,457.2491083999994,457.9988205999998,457.9988205999998,458.5042801999998,458.5042801999998,459.37902269999995,459.37902269999995,None,num_6,0.32972459999928105,459.37902269999995,None,happy,0,Happy,459.7233169400002,None,None,459.7233169400002,None,,,,,,,,,,,,,,,,,,,,,,,,,,,,,,,,,,,,,,,,,,,,,,,,,,,,,12,001,male,24,450,450,2022_Sep_12_1239,Experiment,2021.1.4,360.3356887261634,
images\S9_F_S_01.png,images\S9_F_S_01_scrambled.png,9,sad,-10,female,3,,292,off,1,0.5,0.75,0.5,0.821,3,291,1,1,1,0,0,0,0,3,,,,,,0,47,47,47,,,,,,,,,,,,,,,,,,,,,,,,,,,,,,,,,,,,,,,,,,,,,,,,,,,,,,,,,459.7761630999994,460.2788000999999,460.2788000999999,461.0340583999996,461.0340583999996,461.53386020000016,461.53386020000016,462.3587413999994,462.3587413999994,None,num_6,0.269942799999626,462.3587413999994,None,happy,0,Sad,462.6362665199997,None,None,462.6362665199997,None,,,,,,,,,,,,,,,,,,,,,,,,,,,,,,,,,,,,,,,,,,,,,,,,,,,,,12,001,male,24,450,450,2022_Sep_12_1239,Experiment,2021.1.4,360.3356887261634,
images\S7_F_H_01.png,images\S7_F_H_01_scrambled.png,7,happy,10,female,4,,457,on,2,0.5,0.75,0.5,0.846,3,456,1,1,1,2,2,32,128,164,,,,,,0,48,48,48,,,,,,,,,,,,,,,,,,,,,,,,,,,,,,,,,,,,,,,,,,,,,,,,,,,,,,,,,462.6947034999994,463.1944582999995,463.1944582999995,463.94422609999947,463.94422609999947,464.4468578999995,464.4468578999995,465.2994067999998,465.2994067999998,None,num_6,0.40120350000051985,465.2994067999998,None,happy,0,Happy,465.72978773999995,None,None,465.72978773999995,None,,,,,,,,,,,,,,,,,,,,,,,,,,,,,,,,,,,,,,,,,,,,,,,,,,,,,12,001,male,24,450,450,2022_Sep_12_1239,Experiment,2021.1.4,360.3356887261634,
images\S9_F_H_02.png,images\S9_F_H_02_scrambled.png,9,happy,20,female,5,,110,on,2,0.5,0.75,0.5,0.815,3,109,2,1,1,2,2,32,128,165,,,,,,0,49,49,49,,,,,,,,,,,,,,,,,,,,,,,,,,,,,,,,,,,,,,,,,,,,,,,,,,,,,,,,,465.78813509999964,466.29074500000024,466.29074500000024,467.04339249999975,467.04339249999975,467.5431466,467.5431466,468.36511509999946,468.36511509999946,None,num_6,0.25580319999971834,468.36511509999946,None,happy,0,Happy,468.63445303999976,None,None,468.63445303999976,None,,,,,,,,,,,,,,,,,,,,,,,,,,,,,,,,,,,,,,,,,,,,,,,,,,,,,12,001,male,24,450,450,2022_Sep_12_1239,Experiment,2021.1.4,360.3356887261634,
images\blank.jpg,images\blank.jpg,none,none,none,none,0,,649,on,2,0.5,0.75,0.5,0.814,0,648,3,1,1,3,3,48,192,240,,,,,,0,50,50,50,,,,,,,,,,,,,,,,,,,,,,,,,,,,,,,,,,,,,,,,,,,,,,,,,,,,,,,,,468.7207791000001,469.22315290000006,469.22315290000006,469.9729292000002,469.9729292000002,470.47846729999947,470.47846729999947,471.29474029999983,471.29474029999983,471.29474029999983,None,,471.29474029999983,None,miss,0,,474.2966140199999,None,None,474.2966140199999,None,,,,,,,,,,,,,,,,,,,,,,,,,,,,,,,,,,,,,,,,,,,,,,,,,,,,,12,001,male,24,450,450,2022_Sep_12_1239,Experiment,2021.1.4,360.3356887261634,
images\S7_F_S_03.png,images\S7_F_S_03_scrambled.png,7,sad,-30,female,1,,282,off,1,0.5,0.75,0.5,0.852,3,281,1,1,1,0,0,0,0,1,,,,,,0,51,51,51,,,,,,,,,,,,,,,,,,,,,,,,,,,,,,,,,,,,,,,,,,,,,,,,,,,,,,,,,474.41075809999984,474.91306799999984,474.91306799999984,475.6656349999994,475.6656349999994,476.16836859999967,476.16836859999967,477.02640359999987,477.02640359999987,None,num_4,0.21881789999952161,477.02640359999987,474.41075809999984,sad,0,Sad,477.26525886000024,None,None,477.26525886000024,None,,,,,,,,,,,,,,,,,,,,,,,,,,,,,,,,,,,,,,,,,,,,,,,,,,,,,12,001,male,24,450,450,2022_Sep_12_1239,Experiment,2021.1.4,360.3356887261634,
images\S7_F_S_01.png,images\S7_F_S_01_scrambled.png,7,sad,-10,female,3,,220,on,2,0.5,0.75,0.5,0.927,3,219,1,2,1,2,2,32,128,163,,,,,,0,52,52,52,,,,,,,,,,,,,,,,,,,,,,,,,,,,,,,,,,,,,,,,,,,,,,,,,,,,,,,,,477.3790504999997,477.88441559999956,477.88441559999956,478.6341225999995,478.6341225999995,479.1395877999994,479.1395877999994,480.0698533999994,480.0698533999994,None,num_4,0.34286599999995815,480.0698533999994,None,sad,0,Sad,480.4308212399997,None,None,480.4308212399997,None,,,,,,,,,,,,,,,,,,,,,,,,,,,,,,,,,,,,,,,,,,,,,,,,,,,,,12,001,male,24,450,450,2022_Sep_12_1239,Experiment,2021.1.4,360.3356887261634,
images\S4_M_S_03.png,images\S4_M_S_03_scrambled.png,4,sad,-30,male,1,,444,on,2,0.5,0.75,0.5,0.848,3,443,2,1,1,2,2,32,128,161,,,,,,0,53,53,53,,,,,,,,,,,,,,,,,,,,,,,,,,,,,,,,,,,,,,,,,,,,,,,,,,,,,,,,,480.48913230000016,480.9945682999996,480.9945682999996,481.74429859999964,481.74429859999964,482.24973749999936,482.24973749999936,483.1022533999994,483.1022533999994,None,num_4,0.318398000000343,483.1022533999994,None,sad,0,Sad,483.4354505400002,None,None,483.4354505400002,None,,,,,,,,,,,,,,,,,,,,,,,,,,,,,,,,,,,,,,,,,,,,,,,,,,,,,12,001,male,24,450,450,2022_Sep_12_1239,Experiment,2021.1.4,360.3356887261634,
images\S2_M_H_01.png,images\S2_M_H_01_scrambled.png,2,happy,10,male,4,,307,on,2,0.5,0.75,0.5,0.856,3,306,3,1,1,2,2,32,128,164,,,,,,0,54,54,54,,,,,,,,,,,,,,,,,,,,,,,,,,,,,,,,,,,,,,,,,,,,,,,,,,,,,,,,,483.4937418999998,483.9992126999996,483.9992126999996,484.7517124999995,484.7517124999995,485.25713369999994,485.25713369999994,486.1152022999995,486.1152022999995,None,num_6,0.24932360000002518,486.1152022999995,None,happy,0,Happy,486.3817709399996,None,None,486.3817709399996,None,,,,,,,,,,,,,,,,,,,,,,,,,,,,,,,,,,,,,,,,,,,,,,,,,,,,,12,001,male,24,450,450,2022_Sep_12_1239,Experiment,2021.1.4,360.3356887261634,
images\S4_M_S_03.png,images\S4_M_S_03_scrambled.png,4,sad,-30,male,1,,564,on,2,0.5,0.75,0.5,0.895,3,563,4,1,1,2,2,32,128,161,,,,,,0,55,55,55,,,,,,,,,,,,,,,,,,,,,,,,,,,,,,,,,,,,,,,,,,,,,,,,,,,,,,,,,486.4289692000002,486.93440680000003,486.93440680000003,487.68972979999944,487.68972979999944,488.19235430000026,488.19235430000026,489.08929590000025,489.08929590000025,None,num_4,0.27580659999966883,489.08929590000025,None,sad,0,Sad,489.38649455999973,None,None,489.38649455999973,None,,,,,,,,,,,,,,,,,,,,,,,,,,,,,,,,,,,,,,,,,,,,,,,,,,,,,12,001,male,24,450,450,2022_Sep_12_1239,Experiment,2021.1.4,360.3356887261634,
images\S10_M_H_01.png,images\S10_M_H_01_scrambled.png,10,happy,10,male,4,,535,off,1,0.5,0.75,0.5,0.797,3,534,1,1,1,0,0,0,0,4,,,,,,0,56,56,56,,,,,,,,,,,,,,,,,,,,,,,,,,,,,,,,,,,,,,,,,,,,,,,,,,,,,,,,,489.4391532999998,489.9389645000001,489.9389645000001,490.68879670000024,490.68879670000024,491.1942161999996,491.1942161999996,491.993974,491.993974,None,num_6,0.21897660000013275,491.993974,None,happy,0,Happy,492.23284519999993,None,None,492.23284519999993,None,,,,,,,,,,,,,,,,,,,,,,,,,,,,,,,,,,,,,,,,,,,,,,,,,,,,,12,001,male,24,450,450,2022_Sep_12_1239,Experiment,2021.1.4,360.3356887261634,
images\S3_F_H_02.png,images\S3_F_H_02_scrambled.png,3,happy,20,female,5,,494,off,1,0.5,0.75,0.5,0.936,3,493,2,1,1,0,0,0,0,5,,,,,,0,57,57,57,,,,,,,,,,,,,,,,,,,,,,,,,,,,,,,,,,,,,,,,,,,,,,,,,,,,,,,,,492.30771189999996,492.8132534999995,492.8132534999995,493.5685241000001,493.5685241000001,494.07107499999984,494.07107499999984,495.00969449999957,495.00969449999957,None,num_6,0.24299490000066726,495.00969449999957,None,happy,0,Happy,495.26800485999945,None,None,495.26800485999945,None,,,,,,,,,,,,,,,,,,,,,,,,,,,,,,,,,,,,,,,,,,,,,,,,,,,,,12,001,male,24,450,450,2022_Sep_12_1239,Experiment,2021.1.4,360.3356887261634,
images\S1_F_H_01.png,images\S1_F_H_01_scrambled.png,1,happy,10,female,4,,181,on,2,0.5,0.75,0.5,0.861,3,180,1,1,1,2,2,32,128,164,,,,,,0,58,58,58,,,,,,,,,,,,,,,,,,,,,,,,,,,,,,,,,,,,,,,,,,,,,,,,,,,,,,,,,495.3206709999995,495.82343519999995,495.82343519999995,496.57307669999955,496.57307669999955,497.0785969999997,497.0785969999997,497.94212700000026,497.94212700000026,None,num_6,0.43912840000029973,497.94212700000026,None,happy,0,Happy,498.40042936,None,None,498.40042936,None,,,,,,,,,,,,,,,,,,,,,,,,,,,,,,,,,,,,,,,,,,,,,,,,,,,,,12,001,male,24,450,450,2022_Sep_12_1239,Experiment,2021.1.4,360.3356887261634,
images\S10_M_H_03.png,images\S10_M_H_03_scrambled.png,10,happy,30,male,6,,297,off,1,0.5,0.75,0.5,0.753,3,296,1,1,1,0,0,0,0,6,,,,,,0,59,59,59,,,,,,,,,,,,,,,,,,,,,,,,,,,,,,,,,,,,,,,,,,,,,,,,,,,,,,,,,498.45304829999986,498.9556845999996,498.9556845999996,499.70822659999976,499.70822659999976,500.21369119999963,500.21369119999963,500.9689379000001,500.9689379000001,None,num_6,0.3000388999998904,500.9689379000001,None,happy,0,Happy,501.2938002799994,None,None,501.2938002799994,None,,,,,,,,,,,,,,,,,,,,,,,,,,,,,,,,,,,,,,,,,,,,,,,,,,,,,12,001,male,24,450,450,2022_Sep_12_1239,Experiment,2021.1.4,360.3356887261634,
images\S6_M_S_01.png,images\S6_M_S_01_scrambled.png,6,sad,-10,male,3,,454,on,2,0.5,0.75,0.5,0.874,3,453,1,1,1,2,2,32,128,163,,,,,,0,60,60,60,,,,,,,,,,,,,,,,,,,,,,,,,,,,,,,,,,,,,,,,,,,,,,,,,,,,,,,,,501.4021286999996,501.90475629999946,501.90475629999946,502.6601058999995,502.6601058999995,503.1654950000002,503.1654950000002,504.0429806000002,504.0429806000002,None,num_4,0.23372760000074777,504.0429806000002,None,sad,0,Sad,504.3040712799995,None,None,504.3040712799995,None,,,,,,,,,,,,,,,,,,,,,,,,,,,,,,,,,,,,,,,,,,,,,,,,,,,,,12,001,male,24,450,450,2022_Sep_12_1239,Experiment,2021.1.4,360.3356887261634,
images\S2_M_H_03.png,images\S2_M_H_03_scrambled.png,2,happy,30,male,6,,369,off,1,0.5,0.75,0.5,0.85,3,368,1,1,1,0,0,0,0,6,,,,,,0,61,61,61,,,,,,,,,,,,,,,,,,,,,,,,,,,,,,,,,,,,,,,,,,,,,,,,,,,,,,,,,504.37899579999976,504.8844328999994,504.8844328999994,505.63697630000024,505.63697630000024,506.13960189999943,506.13960189999943,506.99211469999955,506.99211469999955,None,num_6,0.284603000000061,506.99211469999955,None,happy,0,Happy,507.29198244000014,None,None,507.29198244000014,None,,,,,,,,,,,,,,,,,,,,,,,,,,,,,,,,,,,,,,,,,,,,,,,,,,,,,12,001,male,24,450,450,2022_Sep_12_1239,Experiment,2021.1.4,360.3356887261634,
images\S1_F_H_01.png,images\S1_F_H_01_scrambled.png,1,happy,10,female,4,,61,on,2,0.5,0.75,0.5,0.779,3,60,1,1,1,2,2,32,128,164,,,,,,0,62,62,62,,,,,,,,,,,,,,,,,,,,,,,,,,,,,,,,,,,,,,,,,,,,,,,,,,,,,,,,,507.3475036,507.85018579999996,507.85018579999996,508.60550929999954,508.60550929999954,509.10813679999956,509.10813679999956,509.89121109999996,509.89121109999996,None,num_6,0.47346029999971506,509.89121109999996,None,happy,0,Happy,510.3827019400001,None,None,510.3827019400001,None,,,,,,,,,,,,,,,,,,,,,,,,,,,,,,,,,,,,,,,,,,,,,,,,,,,,,12,001,male,24,450,450,2022_Sep_12_1239,Experiment,2021.1.4,360.3356887261634,
images\S2_M_S_02.png,images\S2_M_S_02_scrambled.png,2,sad,-20,male,2,,11,off,1,0.5,0.75,0.5,0.827,3,10,1,1,1,0,0,0,0,2,,,,,,0,63,63,63,,,,,,,,,,,,,,,,,,,,,,,,,,,,,,,,,,,,,,,,,,,,,,,,,,,,,,,,,510.4410184999997,510.9437965999996,510.9437965999996,511.6961795999996,511.6961795999996,512.1989254,512.1989254,513.0292349000001,513.0292349000001,None,num_4,0.23949309999989055,513.0292349000001,None,sad,0,Sad,513.27909324,None,None,513.27909324,None,,,,,,,,,,,,,,,,,,,,,,,,,,,,,,,,,,,,,,,,,,,,,,,,,,,,,12,001,male,24,450,450,2022_Sep_12_1239,Experiment,2021.1.4,360.3356887261634,
images\S8_M_S_01.png,images\S8_M_S_01_scrambled.png,8,sad,-10,male,3,,46,off,1,0.5,0.75,0.5,0.798,3,45,2,1,1,0,0,0,0,3,,,,,,0,64,64,64,,,,,,,,,,,,,,,,,,,,,,,,,,,,,,,,,,,,,,,,,,,,,,,,,,,,,,,,,513.3540326000002,513.8566450999997,513.8566450999997,514.6092926000001,514.6092926000001,515.1146720999996,515.1146720999996,515.91446,515.91446,None,num_6,0.24215370000001712,515.91446,None,happy,0,Sad,516.1670462799997,None,None,516.1670462799997,None,,,,,,,,,,,,,,,,,,,,,,,,,,,,,,,,,,,,,,,,,,,,,,,,,,,,,12,001,male,24,450,450,2022_Sep_12_1239,Experiment,2021.1.4,360.3356887261634,
images\S4_M_S_02.png,images\S4_M_S_02_scrambled.png,4,sad,-20,male,2,,23,off,1,0.5,0.75,0.5,0.753,3,22,3,1,1,0,0,0,0,2,,,,,,0,65,65,65,,,,,,,,,,,,,,,,,,,,,,,,,,,,,,,,,,,,,,,,,,,,,,,,,,,,,,,,,516.2447805000002,516.7502238999996,516.7502238999996,517.5055483999995,517.5055483999995,518.0081221,518.0081221,518.7662542999997,518.7662542999997,None,num_4,0.27035350000005565,518.7662542999997,None,sad,0,Sad,519.0522563399996,None,None,519.0522563399996,None,,,,,,,,,,,,,,,,,,,,,,,,,,,,,,,,,,,,,,,,,,,,,,,,,,,,,12,001,male,24,450,450,2022_Sep_12_1239,Experiment,2021.1.4,360.3356887261634,
images\S8_M_S_03.png,images\S8_M_S_03_scrambled.png,8,sad,-30,male,1,,168,off,1,0.5,0.75,0.5,0.89,3,167,4,1,1,0,0,0,0,1,,,,,,0,66,66,66,,,,,,,,,,,,,,,,,,,,,,,,,,,,,,,,,,,,,,,,,,,,,,,,,,,,,,,,,519.1133752999995,519.6159621999996,519.6159621999996,520.3686410999999,520.3686410999999,520.8711624999996,520.8711624999996,521.7653100999996,521.7653100999996,None,num_4,0.35927300000003015,521.7653100999996,None,sad,0,Sad,522.1402117999994,None,None,522.1402117999994,None,,,,,,,,,,,,,,,,,,,,,,,,,,,,,,,,,,,,,,,,,,,,,,,,,,,,,12,001,male,24,450,450,2022_Sep_12_1239,Experiment,2021.1.4,360.3356887261634,
images\S10_M_S_01.png,images\S10_M_S_01_scrambled.png,10,sad,-10,male,3,,238,on,2,0.5,0.75,0.5,0.811,3,237,1,1,1,2,2,32,128,163,,,,,,0,67,67,67,,,,,,,,,,,,,,,,,,,,,,,,,,,,,,,,,,,,,,,,,,,,,,,,,,,,,,,,,522.2068309999995,522.7122447000002,522.7122447000002,523.4648115999998,523.4648115999998,523.9646204999999,523.9646204999999,524.7810659999996,524.7810659999996,None,num_6,0.5115406999993866,524.7810659999996,None,happy,0,Sad,525.2975584199996,None,None,525.2975584199996,None,,,,,,,,,,,,,,,,,,,,,,,,,,,,,,,,,,,,,,,,,,,,,,,,,,,,,12,001,male,24,450,450,2022_Sep_12_1239,Experiment,2021.1.4,360.3356887261634,
images\S10_M_S_02.png,images\S10_M_S_02_scrambled.png,10,sad,-20,male,2,,359,on,2,0.5,0.75,0.5,0.835,3,358,2,2,1,2,2,32,128,162,,,,,,0,68,68,68,,,,,,,,,,,,,,,,,,,,,,,,,,,,,,,,,,,,,,,,,,,,,,,,,,,,,,,,,525.3586383000002,525.8584881999996,525.8584881999996,526.6110294,526.6110294,527.1136793999995,527.1136793999995,527.9551145999994,527.9551145999994,None,num_4,0.2580649999999878,527.9551145999994,None,sad,0,Sad,528.2328579599997,None,None,528.2328579599997,None,,,,,,,,,,,,,,,,,,,,,,,,,,,,,,,,,,,,,,,,,,,,,,,,,,,,,12,001,male,24,450,450,2022_Sep_12_1239,Experiment,2021.1.4,360.3356887261634,
images\S8_M_S_03.png,images\S8_M_S_03_scrambled.png,8,sad,-30,male,1,,348,on,2,0.5,0.75,0.5,0.79,3,347,3,1,1,2,2,32,128,161,,,,,,0,69,69,69,,,,,,,,,,,,,,,,,,,,,,,,,,,,,,,,,,,,,,,,,,,,,,,,,,,,,,,,,528.2855148999997,528.7909426999995,528.7909426999995,529.5406778999995,529.5406778999995,530.0461088000002,530.0461088000002,530.8402830999994,530.8402830999994,None,num_4,0.42016870000043127,530.8402830999994,None,sad,0,Sad,531.2707304399997,None,None,531.2707304399997,None,,,,,,,,,,,,,,,,,,,,,,,,,,,,,,,,,,,,,,,,,,,,,,,,,,,,,12,001,male,24,450,450,2022_Sep_12_1239,Experiment,2021.1.4,360.3356887261634,
images\S5_F_H_03.png,images\S5_F_H_03_scrambled.png,5,happy,30,female,6,,27,off,1,0.5,0.75,0.5,0.825,3,26,1,1,1,0,0,0,0,6,,,,,,0,70,70,70,,,,,,,,,,,,,,,,,,,,,,,,,,,,,,,,,,,,,,,,,,,,,,,,,,,,,,,,,531.3512415999994,531.8538555999994,531.8538555999994,532.6036244999996,532.6036244999996,533.1090557999996,533.1090557999996,533.9394223999998,533.9394223999998,None,num_6,0.2093947000003027,533.9394223999998,None,happy,0,Happy,534.1615140399996,None,None,534.1615140399996,None,,,,,,,,,,,,,,,,,,,,,,,,,,,,,,,,,,,,,,,,,,,,,,,,,,,,,12,001,male,24,450,450,2022_Sep_12_1239,Experiment,2021.1.4,360.3356887261634,
images\S8_M_H_03.png,images\S8_M_H_03_scrambled.png,8,happy,30,male,6,,525,off,1,0.5,0.75,0.5,0.786,3,524,2,1,2,0,0,0,0,6,,,,,,0,71,71,71,,,,,,,,,,,,,,,,,,,,,,,,,,,,,,,,,,,,,,,,,,,,,,,,,,,,,,,,,534.2170381999995,534.7197320999994,534.7197320999994,535.4750096999996,535.4750096999996,535.9804051000001,535.9804051000001,536.7691435999996,536.7691435999996,None,num_6,0.2355891999995947,536.7691435999996,None,happy,0,Happy,537.0300932800002,None,None,537.0300932800002,None,,,,,,,,,,,,,,,,,,,,,,,,,,,,,,,,,,,,,,,,,,,,,,,,,,,,,12,001,male,24,450,450,2022_Sep_12_1239,Experiment,2021.1.4,360.3356887261634,
images\S4_M_H_03.png,images\S4_M_H_03_scrambled.png,4,happy,30,male,6,,501,off,1,0.5,0.75,0.5,0.948,3,500,3,1,3,0,0,0,0,6,,,,,,0,72,72,72,,,,,,,,,,,,,,,,,,,,,,,,,,,,,,,,,,,,,,,,,,,,,,,,,,,,,,,,,537.0828057999997,537.5854674000002,537.5854674000002,538.3351707000002,538.3351707000002,538.8406318999996,538.8406318999996,539.7958834000001,539.7958834000001,None,num_6,0.17724710000038613,539.7958834000001,None,happy,0,Happy,539.9931233599999,None,None,539.9931233599999,None,,,,,,,,,,,,,,,,,,,,,,,,,,,,,,,,,,,,,,,,,,,,,,,,,,,,,12,001,male,24,450,450,2022_Sep_12_1239,Experiment,2021.1.4,360.3356887261634,
images\S3_F_S_02.png,images\S3_F_S_02_scrambled.png,3,sad,-20,female,2,,437,on,2,0.5,0.75,0.5,0.816,3,436,1,1,1,2,2,32,128,162,,,,,,0,73,73,73,,,,,,,,,,,,,,,,,,,,,,,,,,,,,,,,,,,,,,,,,,,,,,,,,,,,,,,,,540.0763752000003,540.5790774999996,540.5790774999996,541.3343143000002,541.3343143000002,541.8369336999995,541.8369336999995,542.6561142999999,542.6561142999999,None,num_4,0.48457280000002356,542.6561142999999,None,sad,0,Sad,543.1503940399995,None,None,543.1503940399995,None,,,,,,,,,,,,,,,,,,,,,,,,,,,,,,,,,,,,,,,,,,,,,,,,,,,,,12,001,male,24,450,450,2022_Sep_12_1239,Experiment,2021.1.4,360.3356887261634,
images\S7_F_S_03.png,images\S7_F_S_03_scrambled.png,7,sad,-30,female,1,,582,on,2,0.5,0.75,0.5,0.888,3,581,2,1,1,2,2,32,128,161,,,,,,0,74,74,74,,,,,,,,,,,,,,,,,,,,,,,,,,,,,,,,,,,,,,,,,,,,,,,,,,,,,,,,,543.2003552999995,543.7029775000001,543.7029775000001,544.4555312000002,544.4555312000002,544.9581957999999,544.9581957999999,545.8467605999995,545.8467605999995,None,num_4,0.4856096000003163,545.8467605999995,None,sad,0,Sad,546.3438503399999,None,None,546.3438503399999,None,,,,,,,,,,,,,,,,,,,,,,,,,,,,,,,,,,,,,,,,,,,,,,,,,,,,,12,001,male,24,450,450,2022_Sep_12_1239,Experiment,2021.1.4,360.3356887261634,
images\S2_M_S_02.png,images\S2_M_S_02_scrambled.png,2,sad,-20,male,2,,431,on,2,0.5,0.75,0.5,0.775,3,430,3,1,1,2,2,32,128,162,,,,,,0,75,75,75,,,,,,,,,,,,,,,,,,,,,,,,,,,,,,,,,,,,,,,,,,,,,,,,,,,,,,,,,546.3910429999996,546.8964802999999,546.8964802999999,547.6490290000002,547.6490290000002,548.1545269999997,548.1545269999997,548.9347846999999,548.9347846999999,None,num_4,0.5817923000004157,548.9347846999999,None,sad,0,Sad,549.5401317799998,None,None,549.5401317799998,None,,,,,,,,,,,,,,,,,,,,,,,,,,,,,,,,,,,,,,,,,,,,,,,,,,,,,12,001,male,24,450,450,2022_Sep_12_1239,Experiment,2021.1.4,360.3356887261634,
images\S1_F_H_02.png,images\S1_F_H_02_scrambled.png,1,happy,20,female,5,,362,off,1,0.5,0.75,0.5,0.888,3,361,1,1,1,0,0,0,0,5,,,,,,0,76,76,76,,,,,,,,,,,,,,,,,,,,,,,,,,,,,,,,,,,,,,,,,,,,,,,,,,,,,,,,,549.5928507999997,550.0983629000002,550.0983629000002,550.8536973,550.8536973,551.3562099000001,551.3562099000001,552.2503932,552.2503932,None,num_6,0.2341777000001457,552.2503932,None,happy,0,Happy,552.4974681399996,None,None,552.4974681399996,None,,,,,,,,,,,,,,,,,,,,,,,,,,,,,,,,,,,,,,,,,,,,,,,,,,,,,12,001,male,24,450,450,2022_Sep_12_1239,Experiment,2021.1.4,360.3356887261634,
images\S2_M_H_03.png,images\S2_M_H_03_scrambled.png,2,happy,30,male,6,,249,off,1,0.5,0.75,0.5,0.794,3,248,2,1,1,0,0,0,0,6,,,,,,0,77,77,77,,,,,,,,,,,,,,,,,,,,,,,,,,,,,,,,,,,,,,,,,,,,,,,,,,,,,,,,,552.5474818000002,553.0501136000003,553.0501136000003,553.8054328999997,553.8054328999997,554.3080945000002,554.3080945000002,555.1050184999995,555.1050184999995,None,num_4,0.4435681000004479,555.1050184999995,None,sad,0,Happy,555.5576661199996,None,None,555.5576661199996,None,,,,,,,,,,,,,,,,,,,,,,,,,,,,,,,,,,,,,,,,,,,,,,,,,,,,,12,001,male,24,450,450,2022_Sep_12_1239,Experiment,2021.1.4,360.3356887261634,
images\S6_M_S_02.png,images\S6_M_S_02_scrambled.png,6,sad,-20,male,2,,395,off,1,0.5,0.75,0.5,0.874,3,394,3,1,1,0,0,0,0,2,,,,,,0,78,78,78,,,,,,,,,,,,,,,,,,,,,,,,,,,,,,,,,,,,,,,,,,,,,,,,,,,,,,,,,555.6409788000001,556.1437372,556.1437372,556.8933654000002,556.8933654000002,557.3989162999997,557.3989162999997,558.2762697999997,558.2762697999997,None,num_4,0.36023110000041925,558.2762697999997,None,sad,0,Sad,558.6511594399996,None,None,558.6511594399996,None,,,,,,,,,,,,,,,,,,,,,,,,,,,,,,,,,,,,,,,,,,,,,,,,,,,,,12,001,male,24,450,450,2022_Sep_12_1239,Experiment,2021.1.4,360.3356887261634,
images\S1_F_S_01.png,images\S1_F_S_01_scrambled.png,1,sad,-10,female,3,,484,off,1,0.5,0.75,0.5,0.846,3,483,4,1,1,0,0,0,0,3,,,,,,0,79,79,79,,,,,,,,,,,,,,,,,,,,,,,,,,,,,,,,,,,,,,,,,,,,,,,,,,,,,,,,,558.6983909,559.1982158999999,559.1982158999999,559.9507838,559.9507838,560.4561857999997,560.4561857999997,561.3059250999995,561.3059250999995,None,num_6,0.21071459999984654,561.3059250999995,None,happy,0,Sad,561.5252781199999,None,None,561.5252781199999,None,,,,,,,,,,,,,,,,,,,,,,,,,,,,,,,,,,,,,,,,,,,,,,,,,,,,,12,001,male,24,450,450,2022_Sep_12_1239,Experiment,2021.1.4,360.3356887261634,
images\S9_F_H_01.png,images\S9_F_H_01_scrambled.png,9,happy,10,female,4,,229,on,2,0.5,0.75,0.5,0.914,3,228,1,1,1,2,2,32,128,164,,,,,,0,80,80,80,,,,,,,,,,,,,,,,,,,,,,,,,,,,,,,,,,,,,,,,,,,,,,,,,,,,,,,,,561.5808065000001,562.0835755999997,562.0835755999997,562.8332486999998,562.8332486999998,563.3358274000002,563.3358274000002,564.2550298999995,564.2550298999995,None,num_6,0.3340491999997539,564.2550298999995,None,happy,0,Happy,564.5993830399999,None,None,564.5993830399999,None,,,,,,,,,,,,,,,,,,,,,,,,,,,,,,,,,,,,,,,,,,,,,,,,,,,,,12,001,male,24,450,450,2022_Sep_12_1239,Experiment,2021.1.4,360.3356887261634,
images\S6_M_H_03.png,images\S6_M_H_03_scrambled.png,6,happy,30,male,6,,393,off,1,0.5,0.75,0.5,0.796,3,392,1,1,1,0,0,0,0,6,,,,,,0,81,81,81,,,,,,,,,,,,,,,,,,,,,,,,,,,,,,,,,,,,,,,,,,,,,,,,,,,,,,,,,564.6548623999997,565.1547363999998,565.1547363999998,565.9100850999994,565.9100850999994,566.4154730999999,566.4154730999999,567.2152311999998,567.2152311999998,None,num_6,0.3736594000001787,567.2152311999998,None,happy,0,Happy,567.6151022799996,None,None,567.6151022799996,None,,,,,,,,,,,,,,,,,,,,,,,,,,,,,,,,,,,,,,,,,,,,,,,,,,,,,12,001,male,24,450,450,2022_Sep_12_1239,Experiment,2021.1.4,360.3356887261634,
images\S3_F_S_02.png,images\S3_F_S_02_scrambled.png,3,sad,-20,female,2,,137,off,1,0.5,0.75,0.5,0.917,3,136,2,1,1,0,0,0,0,2,,,,,,0,82,82,82,,,,,,,,,,,,,,,,,,,,,,,,,,,,,,,,,,,,,,,,,,,,,,,,,,,,,,,,,567.6678284,568.1704783999994,568.1704783999994,568.9229838000001,568.9229838000001,569.4228410999995,569.4228410999995,570.3448532000002,570.3448532000002,None,num_4,0.2760120000002644,570.3448532000002,None,sad,0,Sad,570.6447598599997,None,None,570.6447598599997,None,,,,,,,,,,,,,,,,,,,,,,,,,,,,,,,,,,,,,,,,,,,,,,,,,,,,,12,001,male,24,450,450,2022_Sep_12_1239,Experiment,2021.1.4,360.3356887261634,
images\S1_F_H_02.png,images\S1_F_H_02_scrambled.png,1,happy,20,female,5,,62,on,2,0.5,0.75,0.5,0.788,3,61,1,1,1,2,2,32,128,165,,,,,,0,83,83,83,,,,,,,,,,,,,,,,,,,,,,,,,,,,,,,,,,,,,,,,,,,,,,,,,,,,,,,,,570.6946720999995,571.2001055999999,571.2001055999999,571.9498585000001,571.9498585000001,572.4552861000002,572.4552861000002,573.2466921999994,573.2466921999994,None,num_6,0.3740909999996802,573.2466921999994,None,happy,0,Happy,573.6353972399999,None,None,573.6353972399999,None,,,,,,,,,,,,,,,,,,,,,,,,,,,,,,,,,,,,,,,,,,,,,,,,,,,,,12,001,male,24,450,450,2022_Sep_12_1239,Experiment,2021.1.4,360.3356887261634,
images\S1_F_S_02.png,images\S1_F_S_02_scrambled.png,1,sad,-20,female,2,,485,off,1,0.5,0.75,0.5,0.819,3,484,1,2,1,0,0,0,0,2,,,,,,0,84,84,84,,,,,,,,,,,,,,,,,,,,,,,,,,,,,,,,,,,,,,,,,,,,,,,,,,,,,,,,,573.6855083,574.1880346999997,574.1880346999997,574.9378066999998,574.9378066999998,575.4376605999996,575.4376605999996,576.2597627999994,576.2597627999994,None,num_6,0.26476520000051096,576.2597627999994,None,happy,0,Sad,576.5373065799998,None,None,576.5373065799998,None,,,,,,,,,,,,,,,,,,,,,,,,,,,,,,,,,,,,,,,,,,,,,,,,,,,,,12,001,male,24,450,450,2022_Sep_12_1239,Experiment,2021.1.4,360.3356887261634,
images\S5_F_H_02.png,images\S5_F_H_02_scrambled.png,5,happy,20,female,5,,266,off,1,0.5,0.75,0.5,0.828,3,265,2,1,1,0,0,0,0,5,,,,,,0,85,85,85,,,,,,,,,,,,,,,,,,,,,,,,,,,,,,,,,,,,,,,,,,,,,,,,,,,,,,,,,576.6456235999995,577.1510410000001,577.1510410000001,577.9007901999994,577.9007901999994,578.4006743999998,578.4006743999998,579.2309599999999,579.2309599999999,None,num_6,0.19758770000044024,579.2309599999999,None,happy,0,Happy,579.4392275400002,None,None,579.4392275400002,None,,,,,,,,,,,,,,,,,,,,,,,,,,,,,,,,,,,,,,,,,,,,,,,,,,,,,12,001,male,24,450,450,2022_Sep_12_1239,Experiment,2021.1.4,360.3356887261634,
images\S4_M_H_03.png,images\S4_M_H_03_scrambled.png,4,happy,30,male,6,,261,off,1,0.5,0.75,0.5,0.819,3,260,3,1,1,0,0,0,0,6,,,,,,0,86,86,86,,,,,,,,,,,,,,,,,,,,,,,,,,,,,,,,,,,,,,,,,,,,,,,,,,,,,,,,,579.5058455999997,580.0112718,580.0112718,580.7639314999997,580.7639314999997,581.2692791,581.2692791,582.0911568000001,582.0911568000001,None,num_6,0.30560069999955886,582.0911568000001,None,happy,0,Happy,582.4104836399998,None,None,582.4104836399998,None,,,,,,,,,,,,,,,,,,,,,,,,,,,,,,,,,,,,,,,,,,,,,,,,,,,,,12,001,male,24,450,450,2022_Sep_12_1239,Experiment,2021.1.4,360.3356887261634,
images\S5_F_H_01.png,images\S5_F_H_01_scrambled.png,5,happy,10,female,4,,505,off,1,0.5,0.75,0.5,0.815,3,504,4,1,1,0,0,0,0,4,,,,,,0,87,87,87,,,,,,,,,,,,,,,,,,,,,,,,,,,,,,,,,,,,,,,,,,,,,,,,,,,,,,,,,582.4604921999999,582.9659209000001,582.9659209000001,583.7156633999994,583.7156633999994,584.215502,584.215502,585.0347872000002,585.0347872000002,None,num_6,0.20196850000047561,585.0347872000002,None,happy,0,Happy,585.2512935399997,None,None,585.2512935399997,None,,,,,,,,,,,,,,,,,,,,,,,,,,,,,,,,,,,,,,,,,,,,,,,,,,,,,12,001,male,24,450,450,2022_Sep_12_1239,Experiment,2021.1.4,360.3356887261634,
images\S3_F_H_03.png,images\S3_F_H_03_scrambled.png,3,happy,30,female,6,,135,off,1,0.5,0.75,0.5,0.764,3,134,5,1,1,0,0,0,0,6,,,,,,0,88,88,88,,,,,,,,,,,,,,,,,,,,,,,,,,,,,,,,,,,,,,,,,,,,,,,,,,,,,,,,,585.3096060999997,585.8122240000002,585.8122240000002,586.5648225999994,586.5648225999994,587.0702271999999,587.0702271999999,587.8395074999999,587.8395074999999,None,num_6,0.3168204000003243,587.8395074999999,None,happy,0,Happy,588.1698356399999,None,None,588.1698356399999,None,,,,,,,,,,,,,,,,,,,,,,,,,,,,,,,,,,,,,,,,,,,,,,,,,,,,,12,001,male,24,450,450,2022_Sep_12_1239,Experiment,2021.1.4,360.3356887261634,
images\S8_M_H_03.png,images\S8_M_H_03_scrambled.png,8,happy,30,male,6,,285,off,1,0.5,0.75,0.5,0.905,3,284,6,1,2,0,0,0,0,6,,,,,,0,89,89,89,,,,,,,,,,,,,,,,,,,,,,,,,,,,,,,,,,,,,,,,,,,,,,,,,,,,,,,,,588.2226099999998,588.7252637000001,588.7252637000001,589.4805904999994,589.4805904999994,589.9804260999999,589.9804260999999,590.8912496000003,590.8912496000003,None,num_6,0.1932263000007879,590.8912496000003,None,happy,0,Happy,591.0994663400003,None,None,591.0994663400003,None,,,,,,,,,,,,,,,,,,,,,,,,,,,,,,,,,,,,,,,,,,,,,,,,,,,,,12,001,male,24,450,450,2022_Sep_12_1239,Experiment,2021.1.4,360.3356887261634,
images\S8_M_H_03.png,images\S8_M_H_03_scrambled.png,8,happy,30,male,6,,105,on,2,0.5,0.75,0.5,0.948,3,104,1,2,3,2,2,32,128,166,,,,,,0,90,90,90,,,,,,,,,,,,,,,,,,,,,,,,,,,,,,,,,,,,,,,,,,,,,,,,,,,,,,,,,591.1494794999999,591.6521120999996,591.6521120999996,592.4018686,592.4018686,592.9045887000002,592.9045887000002,593.8598209000002,593.8598209000002,None,num_6,0.20886089999930846,593.8598209000002,None,happy,0,Happy,594.0819041399997,None,None,594.0819041399997,None,,,,,,,,,,,,,,,,,,,,,,,,,,,,,,,,,,,,,,,,,,,,,,,,,,,,,12,001,male,24,450,450,2022_Sep_12_1239,Experiment,2021.1.4,360.3356887261634,
images\blank.jpg,images\blank.jpg,none,none,none,none,0,,606,on,2,0.5,0.75,0.5,0.84,0,605,2,1,1,3,3,48,192,240,,,,,,0,91,91,91,,,,,,,,,,,,,,,,,,,,,,,,,,,,,,,,,,,,,,,,,,,,,,,,,,,,,,,,,594.1683142000002,594.6706568999998,594.6706568999998,595.4259555999997,595.4259555999997,595.9285903999998,595.9285903999998,596.7727908999996,596.7727908999996,596.7727908999996,None,,596.7727908999996,None,miss,0,,599.7718403599994,None,None,599.7718403599994,None,,,,,,,,,,,,,,,,,,,,,,,,,,,,,,,,,,,,,,,,,,,,,,,,,,,,,12,001,male,24,450,450,2022_Sep_12_1239,Experiment,2021.1.4,360.3356887261634,
images\S7_F_S_02.png,images\S7_F_S_02_scrambled.png,7,sad,-20,female,2,,401,off,1,0.5,0.75,0.5,0.874,3,400,1,1,1,0,0,0,0,2,,,,,,0,92,92,92,,,,,,,,,,,,,,,,,,,,,,,,,,,,,,,,,,,,,,,,,,,,,,,,,,,,,,,,,599.8859440999995,600.3911066999999,600.3911066999999,601.1464166999995,601.1464166999995,601.6518332999995,601.6518332999995,602.5320947999999,602.5320947999999,None,num_4,0.22424399999999878,602.5320947999999,599.8859440999995,sad,0,Sad,602.7708706399995,None,None,602.7708706399995,None,,,,,,,,,,,,,,,,,,,,,,,,,,,,,,,,,,,,,,,,,,,,,,,,,,,,,12,001,male,24,450,450,2022_Sep_12_1239,Experiment,2021.1.4,360.3356887261634,
images\S1_F_H_02.png,images\S1_F_H_02_scrambled.png,1,happy,20,female,5,,302,on,2,0.5,0.75,0.5,0.946,3,301,1,1,1,2,2,32,128,165,,,,,,0,93,93,93,,,,,,,,,,,,,,,,,,,,,,,,,,,,,,,,,,,,,,,,,,,,,,,,,,,,,,,,,602.8181092999994,603.3179576000002,603.3179576000002,604.0677295999994,604.0677295999994,604.5676101999998,604.5676101999998,605.5200986,605.5200986,None,num_6,0.19629119999990507,605.5200986,None,happy,0,Happy,605.7310656400001,None,None,605.7310656400001,None,,,,,,,,,,,,,,,,,,,,,,,,,,,,,,,,,,,,,,,,,,,,,,,,,,,,,12,001,male,24,450,450,2022_Sep_12_1239,Experiment,2021.1.4,360.3356887261634,
images\S3_F_H_02.png,images\S3_F_H_02_scrambled.png,3,happy,20,female,5,,254,off,1,0.5,0.75,0.5,0.772,3,253,1,1,2,0,0,0,0,5,,,,,,0,94,94,94,,,,,,,,,,,,,,,,,,,,,,,,,,,,,,,,,,,,,,,,,,,,,,,,,,,,,,,,,605.7810949999994,606.2865002999997,606.2865002999997,607.0390564999998,607.0390564999998,607.5388699999994,607.5388699999994,608.3137564999997,608.3137564999997,None,num_6,0.18656129999999393,608.3137564999997,None,happy,0,Happy,608.5108342399996,None,None,608.5108342399996,None,,,,,,,,,,,,,,,,,,,,,,,,,,,,,,,,,,,,,,,,,,,,,,,,,,,,,12,001,male,24,450,450,2022_Sep_12_1239,Experiment,2021.1.4,360.3356887261634,
images\S6_M_H_01.png,images\S6_M_H_01_scrambled.png,6,happy,10,male,4,,571,on,2,0.5,0.75,0.5,0.849,3,570,1,1,1,2,2,32,128,164,,,,,,0,95,95,95,,,,,,,,,,,,,,,,,,,,,,,,,,,,,,,,,,,,,,,,,,,,,,,,,,,,,,,,,608.5607781999997,609.0635315,609.0635315,609.8132120999999,609.8132120999999,610.3187127000001,610.3187127000001,611.1711176999997,611.1711176999997,None,num_4,0.33008479999989504,611.1711176999997,None,sad,0,Happy,611.5100058199998,None,None,611.5100058199998,None,,,,,,,,,,,,,,,,,,,,,,,,,,,,,,,,,,,,,,,,,,,,,,,,,,,,,12,001,male,24,450,450,2022_Sep_12_1239,Experiment,2021.1.4,360.3356887261634,
images\S9_F_S_03.png,images\S9_F_S_03_scrambled.png,9,sad,-30,female,1,,294,off,1,0.5,0.75,0.5,0.85,3,293,1,1,1,0,0,0,0,1,,,,,,0,96,96,96,,,,,,,,,,,,,,,,,,,,,,,,,,,,,,,,,,,,,,,,,,,,,,,,,,,,,,,,,611.5681911000001,612.0708344999994,612.0708344999994,612.8233577999999,612.8233577999999,613.3259487999994,613.3259487999994,614.1812976000001,614.1812976000001,None,num_4,0.3272776999992857,614.1812976000001,None,sad,0,Sad,614.5228344399999,None,None,614.5228344399999,None,,,,,,,,,,,,,,,,,,,,,,,,,,,,,,,,,,,,,,,,,,,,,,,,,,,,,12,001,male,24,450,450,2022_Sep_12_1239,Experiment,2021.1.4,360.3356887261634,
images\S5_F_H_01.png,images\S5_F_H_01_scrambled.png,5,happy,10,female,4,,385,off,1,0.5,0.75,0.5,0.851,3,384,2,1,1,0,0,0,0,4,,,,,,0,97,97,97,,,,,,,,,,,,,,,,,,,,,,,,,,,,,,,,,,,,,,,,,,,,,,,,,,,,,,,,,614.5700492999995,615.0754803,615.0754803,615.8307913999997,615.8307913999997,616.3361939999995,616.3361939999995,617.1914640999994,617.1914640999994,None,num_6,0.19705819999944651,617.1914640999994,None,happy,0,Happy,617.3997538399996,None,None,617.3997538399996,None,,,,,,,,,,,,,,,,,,,,,,,,,,,,,,,,,,,,,,,,,,,,,,,,,,,,,12,001,male,24,450,450,2022_Sep_12_1239,Experiment,2021.1.4,360.3356887261634,
images\S3_F_S_03.png,images\S3_F_S_03_scrambled.png,3,sad,-30,female,1,,198,on,2,0.5,0.75,0.5,0.932,3,197,1,1,1,2,2,32,128,161,,,,,,0,98,98,98,,,,,,,,,,,,,,,,,,,,,,,,,,,,,,,,,,,,,,,,,,,,,,,,,,,,,,,,,617.4830400999999,617.9828751999994,617.9828751999994,618.7326439999997,618.7326439999997,619.2353125999998,619.2353125999998,620.1711200999998,620.1711200999998,None,num_4,0.20957670000007056,620.1711200999998,None,sad,0,Sad,620.40445268,None,None,620.40445268,None,,,,,,,,,,,,,,,,,,,,,,,,,,,,,,,,,,,,,,,,,,,,,,,,,,,,,12,001,male,24,450,450,2022_Sep_12_1239,Experiment,2021.1.4,360.3356887261634,
images\S10_M_S_03.png,images\S10_M_S_03_scrambled.png,10,sad,-30,male,1,,540,off,1,0.5,0.75,0.5,0.867,3,539,1,1,2,0,0,0,0,1,,,,,,0,99,99,99,,,,,,,,,,,,,,,,,,,,,,,,,,,,,,,,,,,,,,,,,,,,,,,,,,,,,,,,,620.4627572999998,620.9652928999994,620.9652928999994,621.7178641999999,621.7178641999999,622.2205048999995,622.2205048999995,623.0897147999995,623.0897147999995,None,num_4,0.21067419999963022,623.0897147999995,None,sad,0,Sad,623.3145683399995,None,None,623.3145683399995,None,,,,,,,,,,,,,,,,,,,,,,,,,,,,,,,,,,,,,,,,,,,,,,,,,,,,,12,001,male,24,450,450,2022_Sep_12_1239,Experiment,2021.1.4,360.3356887261634,
images\S10_M_S_03.png,images\S10_M_S_03_scrambled.png,10,sad,-30,male,1,,120,on,2,0.5,0.75,0.5,0.829,3,119,1,2,3,2,2,32,128,161,,,,,,0,100,100,100,,,,,,,,,,,,,,,,,,,,,,,,,,,,,,,,,,,,,,,,,,,,,,,,,,,,,,,,,623.364681,623.8671868000001,623.8671868000001,624.6198399999994,624.6198399999994,625.1251806999999,625.1251806999999,625.9610026999999,625.9610026999999,None,num_4,0.25951700000041455,625.9610026999999,None,sad,0,Sad,626.2470393400002,None,None,626.2470393400002,None,,,,,,,,,,,,,,,,,,,,,,,,,,,,,,,,,,,,,,,,,,,,,,,,,,,,,12,001,male,24,450,450,2022_Sep_12_1239,Experiment,2021.1.4,360.3356887261634,
images\S3_F_S_01.png,images\S3_F_S_01_scrambled.png,3,sad,-10,female,3,,556,on,2,0.5,0.75,0.5,0.909,3,555,2,1,1,2,2,32,128,163,,,,,,0,101,101,101,,,,,,,,,,,,,,,,,,,,,,,,,,,,,,,,,,,,,,,,,,,,,,,,,,,,,,,,,626.3552947999997,626.8607326000001,626.8607326000001,627.6104647000002,627.6104647000002,628.1103510000003,628.1103510000003,629.0211416000002,629.0211416000002,None,num_4,0.23182689999975992,629.0211416000002,None,sad,0,Sad,629.2739144599999,None,None,629.2739144599999,None,,,,,,,,,,,,,,,,,,,,,,,,,,,,,,,,,,,,,,,,,,,,,,,,,,,,,12,001,male,24,450,450,2022_Sep_12_1239,Experiment,2021.1.4,360.3356887261634,
images\S7_F_H_02.png,images\S7_F_H_02_scrambled.png,7,happy,20,female,5,,578,on,2,0.5,0.75,0.5,0.905,3,577,3,1,1,2,2,32,128,165,,,,,,0,102,102,102,,,,,,,,,,,,,,,,,,,,,,,,,,,,,,,,,,,,,,,,,,,,,,,,,,,,,,,,,629.326615,629.8264475999995,629.8264475999995,630.5789936000001,630.5789936000001,631.0816392999996,631.0816392999996,631.9896781999996,631.9896781999996,None,num_6,0.3029026000003796,631.9896781999996,None,happy,0,Happy,632.3035182399996,None,None,632.3035182399996,None,,,,,,,,,,,,,,,,,,,,,,,,,,,,,,,,,,,,,,,,,,,,,,,,,,,,,12,001,male,24,450,450,2022_Sep_12_1239,Experiment,2021.1.4,360.3356887261634,
images\S1_F_S_03.png,images\S1_F_S_03_scrambled.png,1,sad,-30,female,1,,6,off,1,0.5,0.75,0.5,0.871,3,5,1,1,1,0,0,0,0,1,,,,,,0,103,103,103,,,,,,,,,,,,,,,,,,,,,,,,,,,,,,,,,,,,,,,,,,,,,,,,,,,,,,,,,632.3783859999994,632.8839627999996,632.8839627999996,633.6336092000001,633.6336092000001,634.1362517999996,634.1362517999996,635.0109940000002,635.0109940000002,None,num_4,0.20974710000064078,635.0109940000002,None,sad,0,Sad,635.2387099999994,None,None,635.2387099999994,None,,,,,,,,,,,,,,,,,,,,,,,,,,,,,,,,,,,,,,,,,,,,,,,,,,,,,12,001,male,24,450,450,2022_Sep_12_1239,Experiment,2021.1.4,360.3356887261634,
images\S1_F_H_02.png,images\S1_F_H_02_scrambled.png,1,happy,20,female,5,,242,off,1,0.5,0.75,0.5,0.802,3,241,2,2,1,0,0,0,0,5,,,,,,0,104,104,104,,,,,,,,,,,,,,,,,,,,,,,,,,,,,,,,,,,,,,,,,,,,,,,,,,,,,,,,,635.2886644999999,635.7885056999994,635.7885056999994,636.5382718000001,636.5382718000001,637.0381591999994,637.0381591999994,637.8462300000001,637.8462300000001,None,num_6,0.2781908000006297,637.8462300000001,None,happy,0,Happy,638.1405942999997,None,None,638.1405942999997,None,,,,,,,,,,,,,,,,,,,,,,,,,,,,,,,,,,,,,,,,,,,,,,,,,,,,,12,001,male,24,450,450,2022_Sep_12_1239,Experiment,2021.1.4,360.3356887261634,
images\S7_F_H_01.png,images\S7_F_H_01_scrambled.png,7,happy,10,female,4,,97,on,2,0.5,0.75,0.5,0.786,3,96,1,1,1,2,2,32,128,164,,,,,,0,105,105,105,,,,,,,,,,,,,,,,,,,,,,,,,,,,,,,,,,,,,,,,,,,,,,,,,,,,,,,,,638.1933147999998,638.6931644999995,638.6931644999995,639.4429401999996,639.4429401999996,639.9455958999997,639.9455958999997,640.7343321999997,640.7343321999997,None,num_6,0.2540904000006776,640.7343321999997,None,happy,0,Happy,641.0008124399998,None,None,641.0008124399998,None,,,,,,,,,,,,,,,,,,,,,,,,,,,,,,,,,,,,,,,,,,,,,,,,,,,,,12,001,male,24,450,450,2022_Sep_12_1239,Experiment,2021.1.4,360.3356887261634,
images\S7_F_S_03.png,images\S7_F_S_03_scrambled.png,7,sad,-30,female,1,,342,on,2,0.5,0.75,0.5,0.867,3,341,2,2,1,2,2,32,128,161,,,,,,0,106,106,106,,,,,,,,,,,,,,,,,,,,,,,,,,,,,,,,,,,,,,,,,,,,,,,,,,,,,,,,,641.0535466000001,641.5561707999996,641.5561707999996,642.3088394999995,642.3088394999995,642.8142556000003,642.8142556000003,643.6860980000001,643.6860980000001,None,num_4,0.3025095000002693,643.6860980000001,None,sad,0,Sad,644.0026394399998,None,None,644.0026394399998,None,,,,,,,,,,,,,,,,,,,,,,,,,,,,,,,,,,,,,,,,,,,,,,,,,,,,,12,001,male,24,450,450,2022_Sep_12_1239,Experiment,2021.1.4,360.3356887261634,
images\S10_M_S_02.png,images\S10_M_S_02_scrambled.png,10,sad,-20,male,2,,59,off,1,0.5,0.75,0.5,0.81,3,58,1,1,1,0,0,0,0,2,,,,,,0,107,107,107,,,,,,,,,,,,,,,,,,,,,,,,,,,,,,,,,,,,,,,,,,,,,,,,,,,,,,,,,644.0526294000001,644.5552951,644.5552951,645.3050171999994,645.3050171999994,645.8076455,645.8076455,646.6212878999995,646.6212878999995,None,num_4,0.3353179000005184,646.6212878999995,None,sad,0,Sad,646.9711692400002,None,None,646.9711692400002,None,,,,,,,,,,,,,,,,,,,,,,,,,,,,,,,,,,,,,,,,,,,,,,,,,,,,,12,001,male,24,450,450,2022_Sep_12_1239,Experiment,2021.1.4,360.3356887261634,
images\S3_F_S_01.png,images\S3_F_S_01_scrambled.png,3,sad,-10,female,3,,256,off,1,0.5,0.75,0.5,0.909,3,255,2,1,1,0,0,0,0,3,,,,,,0,108,108,108,,,,,,,,,,,,,,,,,,,,,,,,,,,,,,,,,,,,,,,,,,,,,,,,,,,,,,,,,647.0211497999999,647.5265712,647.5265712,648.2792049,648.2792049,648.7789424000002,648.7789424000002,649.6898167999998,649.6898167999998,None,num_4,0.18660559999989346,649.6898167999998,None,sad,0,Sad,649.8897395000001,None,None,649.8897395000001,None,,,,,,,,,,,,,,,,,,,,,,,,,,,,,,,,,,,,,,,,,,,,,,,,,,,,,12,001,male,24,450,450,2022_Sep_12_1239,Experiment,2021.1.4,360.3356887261634,
images\S6_M_H_03.png,images\S6_M_H_03_scrambled.png,6,happy,30,male,6,,153,off,1,0.5,0.75,0.5,0.894,3,152,3,1,1,0,0,0,0,6,,,,,,0,109,109,109,,,,,,,,,,,,,,,,,,,,,,,,,,,,,,,,,,,,,,,,,,,,,,,,,,,,,,,,,649.939703,650.4451423,650.4451423,651.1948745,651.1948745,651.6975353999997,651.6975353999997,652.5945305999994,652.5945305999994,None,num_6,0.20987609999974666,652.5945305999994,None,happy,0,Happy,652.8360441399994,None,None,652.8360441399994,None,,,,,,,,,,,,,,,,,,,,,,,,,,,,,,,,,,,,,,,,,,,,,,,,,,,,,12,001,male,24,450,450,2022_Sep_12_1239,Experiment,2021.1.4,360.3356887261634,
images\S1_F_H_03.png,images\S1_F_H_03_scrambled.png,1,happy,30,female,6,,543,on,2,0.5,0.75,0.5,0.848,3,542,1,1,2,2,2,32,128,166,,,,,,0,110,110,110,,,,,,,,,,,,,,,,,,,,,,,,,,,,,,,,,,,,,,,,,,,,,,,,,,,,,,,,,652.8944924999996,653.3997909,653.3997909,654.1550729,654.1550729,654.6605070999994,654.6605070999994,655.5129822999997,655.5129822999997,None,num_6,0.3394739000004847,655.5129822999997,None,happy,0,Happy,655.8684163999994,None,None,655.8684163999994,None,,,,,,,,,,,,,,,,,,,,,,,,,,,,,,,,,,,,,,,,,,,,,,,,,,,,,12,001,male,24,450,450,2022_Sep_12_1239,Experiment,2021.1.4,360.3356887261634,
images\S2_M_H_01.png,images\S2_M_H_01_scrambled.png,2,happy,10,male,4,,367,off,1,0.5,0.75,0.5,0.882,3,366,1,1,1,0,0,0,0,4,,,,,,0,111,111,111,,,,,,,,,,,,,,,,,,,,,,,,,,,,,,,,,,,,,,,,,,,,,,,,,,,,,,,,,655.9212941999995,656.4239332999996,656.4239332999996,657.1735518999994,657.1735518999994,657.6734765000001,657.6734765000001,658.5593978999996,658.5593978999996,None,num_6,0.21302379999997356,658.5593978999996,None,happy,0,Happy,658.7869393400002,None,None,658.7869393400002,None,,,,,,,,,,,,,,,,,,,,,,,,,,,,,,,,,,,,,,,,,,,,,,,,,,,,,12,001,male,24,450,450,2022_Sep_12_1239,Experiment,2021.1.4,360.3356887261634,
images\S5_F_H_02.png,images\S5_F_H_02_scrambled.png,5,happy,20,female,5,,86,on,2,0.5,0.75,0.5,0.882,3,85,1,1,1,2,2,32,128,165,,,,,,0,112,112,112,,,,,,,,,,,,,,,,,,,,,,,,,,,,,,,,,,,,,,,,,,,,,,,,,,,,,,,,,658.8341854,659.3340240999996,659.3340240999996,660.0838293999996,660.0838293999996,660.5836682999998,660.5836682999998,661.4695651000002,661.4695651000002,None,num_6,0.5510314000002836,661.4695651000002,None,happy,0,Happy,662.03597864,None,None,662.03597864,None,,,,,,,,,,,,,,,,,,,,,,,,,,,,,,,,,,,,,,,,,,,,,,,,,,,,,12,001,male,24,450,450,2022_Sep_12_1239,Experiment,2021.1.4,360.3356887261634,
images\S8_M_S_03.png,images\S8_M_S_03_scrambled.png,8,sad,-30,male,1,,48,off,1,0.5,0.75,0.5,0.753,3,47,1,1,1,0,0,0,0,1,,,,,,0,113,113,113,,,,,,,,,,,,,,,,,,,,,,,,,,,,,,,,,,,,,,,,,,,,,,,,,,,,,,,,,662.0831822,662.5858017999999,662.5858017999999,663.3411545999998,663.3411545999998,663.8439026999995,663.8439026999995,664.5992077000001,664.5992077000001,None,num_4,0.309360100000049,664.5992077000001,None,sad,0,Sad,664.9239703399995,None,None,664.9239703399995,None,,,,,,,,,,,,,,,,,,,,,,,,,,,,,,,,,,,,,,,,,,,,,,,,,,,,,12,001,male,24,450,450,2022_Sep_12_1239,Experiment,2021.1.4,360.3356887261634,
images\S5_F_S_01.png,images\S5_F_S_01_scrambled.png,5,sad,-10,female,3,,568,on,2,0.5,0.75,0.5,0.801,3,567,1,1,1,2,2,32,128,163,,,,,,0,114,114,114,,,,,,,,,,,,,,,,,,,,,,,,,,,,,,,,,,,,,,,,,,,,,,,,,,,,,,,,,664.9711828,665.4766002999995,665.4766002999995,666.2292336999999,666.2292336999999,666.7290009999997,666.7290009999997,667.5343924999997,667.5343924999997,None,num_6,0.21392740000010235,667.5343924999997,None,happy,0,Sad,667.7536266199997,None,None,667.7536266199997,None,,,,,,,,,,,,,,,,,,,,,,,,,,,,,,,,,,,,,,,,,,,,,,,,,,,,,12,001,male,24,450,450,2022_Sep_12_1239,Experiment,2021.1.4,360.3356887261634,
images\S2_M_H_03.png,images\S2_M_H_03_scrambled.png,2,happy,30,male,6,,9,off,1,0.5,0.75,0.5,0.834,3,8,1,1,1,0,0,0,0,6,,,,,,0,115,115,115,,,,,,,,,,,,,,,,,,,,,,,,,,,,,,,,,,,,,,,,,,,,,,,,,,,,,,,,,667.8008588000002,668.3007091999998,668.3007091999998,669.0504768999999,669.0504768999999,669.5531402999995,669.5531402999995,670.3917503000002,670.3917503000002,None,num_6,0.23670379999930447,670.3917503000002,None,happy,0,Happy,670.63890744,None,None,670.63890744,None,,,,,,,,,,,,,,,,,,,,,,,,,,,,,,,,,,,,,,,,,,,,,,,,,,,,,12,001,male,24,450,450,2022_Sep_12_1239,Experiment,2021.1.4,360.3356887261634,
images\S8_M_S_03.png,images\S8_M_S_03_scrambled.png,8,sad,-30,male,1,,408,off,1,0.5,0.75,0.5,0.89,3,407,2,1,1,0,0,0,0,1,,,,,,0,116,116,116,,,,,,,,,,,,,,,,,,,,,,,,,,,,,,,,,,,,,,,,,,,,,,,,,,,,,,,,,670.6917271000002,671.1943855,671.1943855,671.9440438000001,671.9440438000001,672.4466784999995,672.4466784999995,673.3437263999995,673.3437263999995,None,num_4,0.2684841999998753,673.3437263999995,None,sad,0,Sad,673.6268145399996,None,None,673.6268145399996,None,,,,,,,,,,,,,,,,,,,,,,,,,,,,,,,,,,,,,,,,,,,,,,,,,,,,,12,001,male,24,450,450,2022_Sep_12_1239,Experiment,2021.1.4,360.3356887261634,
images\S4_M_H_01.png,images\S4_M_H_01_scrambled.png,4,happy,10,male,4,,559,on,2,0.5,0.75,0.5,0.95,3,558,1,1,1,2,2,32,128,164,,,,,,0,117,117,117,,,,,,,,,,,,,,,,,,,,,,,,,,,,,,,,,,,,,,,,,,,,,,,,,,,,,,,,,673.6768295000002,674.1796011999995,674.1796011999995,674.9348171000001,674.9348171000001,675.4402178999999,675.4402178999999,676.3954819999999,676.3954819999999,None,num_4,0.2650812000001679,676.3954819999999,None,sad,0,Happy,676.66492442,None,None,676.66492442,None,,,,,,,,,,,,,,,,,,,,,,,,,,,,,,,,,,,,,,,,,,,,,,,,,,,,,12,001,male,24,450,450,2022_Sep_12_1239,Experiment,2021.1.4,360.3356887261634,
images\S8_M_S_01.png,images\S8_M_S_01_scrambled.png,8,sad,-10,male,3,,166,off,1,0.5,0.75,0.5,0.872,3,165,1,1,1,0,0,0,0,3,,,,,,0,118,118,118,,,,,,,,,,,,,,,,,,,,,,,,,,,,,,,,,,,,,,,,,,,,,,,,,,,,,,,,,676.7147814,677.2174125000001,677.2174125000001,677.9699493999997,677.9699493999997,678.4753939000002,678.4753939000002,679.3500807,679.3500807,None,num_4,0.2948971999994683,679.3500807,None,sad,0,Sad,679.6556360399996,None,None,679.6556360399996,None,,,,,,,,,,,,,,,,,,,,,,,,,,,,,,,,,,,,,,,,,,,,,,,,,,,,,12,001,male,24,450,450,2022_Sep_12_1239,Experiment,2021.1.4,360.3356887261634,
images\S10_M_H_03.png,images\S10_M_H_03_scrambled.png,10,happy,30,male,6,,57,off,1,0.5,0.75,0.5,0.854,3,56,2,1,1,0,0,0,0,6,,,,,,0,119,119,119,,,,,,,,,,,,,,,,,,,,,,,,,,,,,,,,,,,,,,,,,,,,,,,,,,,,,,,,,679.7055332999998,680.2109531999995,680.2109531999995,680.9635001999995,680.9635001999995,681.4661232999997,681.4661232999997,682.3241779,682.3241779,None,num_6,0.22446229999968637,682.3241779,None,happy,0,Happy,682.5740904799997,None,None,682.5740904799997,None,,,,,,,,,,,,,,,,,,,,,,,,,,,,,,,,,,,,,,,,,,,,,,,,,,,,,12,001,male,24,450,450,2022_Sep_12_1239,Experiment,2021.1.4,360.3356887261634,
images\S7_F_H_03.png,images\S7_F_H_03_scrambled.png,7,happy,30,female,6,,219,on,2,0.5,0.75,0.5,0.931,3,218,1,1,2,2,2,32,128,166,,,,,,0,120,120,120,,,,,,,,,,,,,,,,,,,,,,,,,,,,,,,,,,,,,,,,,,,,,,,,,,,,,,,,,682.6297605,683.1294671999995,683.1294671999995,683.8792598,683.8792598,684.3818643999994,684.3818643999994,685.3149613999994,685.3149613999994,None,num_6,0.48930769999969925,685.3149613999994,None,happy,0,Happy,685.8147806399999,None,None,685.8147806399999,None,,,,,,,,,,,,,,,,,,,,,,,,,,,,,,,,,,,,,,,,,,,,,,,,,,,,,12,001,male,24,450,450,2022_Sep_12_1239,Experiment,2021.1.4,360.3356887261634,
images\S9_F_H_01.png,images\S9_F_H_01_scrambled.png,9,happy,10,female,4,,589,on,2,0.5,0.75,0.5,0.833,3,588,2,1,1,2,2,32,128,164,,,,,,0,121,121,121,,,,,,,,,,,,,,,,,,,,,,,,,,,,,,,,,,,,,,,,,,,,,,,,,,,,,,,,,685.8647661999994,686.3673675999999,686.3673675999999,687.1199526,687.1199526,687.6197597,687.6197597,688.4528297999996,688.4528297999996,None,num_6,0.24762989999999263,688.4528297999996,None,happy,0,Happy,688.72495008,None,None,688.72495008,None,,,,,,,,,,,,,,,,,,,,,,,,,,,,,,,,,,,,,,,,,,,,,,,,,,,,,12,001,male,24,450,450,2022_Sep_12_1239,Experiment,2021.1.4,360.3356887261634,
images\S5_F_S_02.png,images\S5_F_S_02_scrambled.png,5,sad,-20,female,2,,569,on,2,0.5,0.75,0.5,0.903,3,568,3,1,1,2,2,32,128,162,,,,,,0,122,122,122,,,,,,,,,,,,,,,,,,,,,,,,,,,,,,,,,,,,,,,,,,,,,,,,,,,,,,,,,688.7805981000001,689.2803548000002,689.2803548000002,690.0357156,690.0357156,690.5411048999995,690.5411048999995,691.4463748999997,691.4463748999997,None,num_6,0.22221429999990505,691.4463748999997,None,happy,0,Sad,691.6741076199999,None,None,691.6741076199999,None,,,,,,,,,,,,,,,,,,,,,,,,,,,,,,,,,,,,,,,,,,,,,,,,,,,,,12,001,male,24,450,450,2022_Sep_12_1239,Experiment,2021.1.4,360.3356887261634,
images\S3_F_S_01.png,images\S3_F_S_01_scrambled.png,3,sad,-10,female,3,,136,off,1,0.5,0.75,0.5,0.784,3,135,1,1,1,0,0,0,0,3,,,,,,0,123,123,123,,,,,,,,,,,,,,,,,,,,,,,,,,,,,,,,,,,,,,,,,,,,,,,,,,,,,,,,,691.7407155000001,692.2434613999994,692.2434613999994,692.9931378000001,692.9931378000001,693.4957635000001,693.4957635000001,694.2816129000003,694.2816129000003,None,num_4,0.7227579999998852,694.2816129000003,None,sad,0,Sad,695.01745094,None,None,695.01745094,None,,,,,,,,,,,,,,,,,,,,,,,,,,,,,,,,,,,,,,,,,,,,,,,,,,,,,12,001,male,24,450,450,2022_Sep_12_1239,Experiment,2021.1.4,360.3356887261634,
images\S10_M_H_03.png,images\S10_M_H_03_scrambled.png,10,happy,30,male,6,,597,on,2,0.5,0.75,0.5,0.855,3,596,1,1,1,2,2,32,128,166,,,,,,0,124,124,124,,,,,,,,,,,,,,,,,,,,,,,,,,,,,,,,,,,,,,,,,,,,,,,,,,,,,,,,,695.0674767,695.5700800999994,695.5700800999994,696.3198671999999,696.3198671999999,696.8224844999995,696.8224844999995,697.6805846999996,697.6805846999996,None,num_6,0.3478086000004623,697.6805846999996,None,happy,0,Happy,698.0415151399999,None,None,698.0415151399999,None,,,,,,,,,,,,,,,,,,,,,,,,,,,,,,,,,,,,,,,,,,,,,,,,,,,,,12,001,male,24,450,450,2022_Sep_12_1239,Experiment,2021.1.4,360.3356887261634,
images\S5_F_H_02.png,images\S5_F_H_02_scrambled.png,5,happy,20,female,5,,386,off,1,0.5,0.75,0.5,0.895,3,385,1,1,1,0,0,0,0,5,,,,,,0,125,125,125,,,,,,,,,,,,,,,,,,,,,,,,,,,,,,,,,,,,,,,,,,,,,,,,,,,,,,,,,698.0915354999997,698.594263,698.594263,699.3439409000002,699.3439409000002,699.8494073000002,699.8494073000002,700.7491721999995,700.7491721999995,None,num_6,0.4233166000003621,700.7491721999995,None,happy,0,Happy,701.1877616399994,None,None,701.1877616399994,None,,,,,,,,,,,,,,,,,,,,,,,,,,,,,,,,,,,,,,,,,,,,,,,,,,,,,12,001,male,24,450,450,2022_Sep_12_1239,Experiment,2021.1.4,360.3356887261634,
images\S2_M_S_03.png,images\S2_M_S_03_scrambled.png,2,sad,-30,male,1,,72,on,2,0.5,0.75,0.5,0.796,3,71,1,1,1,2,2,32,128,161,,,,,,0,126,126,126,,,,,,,,,,,,,,,,,,,,,,,,,,,,,,,,,,,,,,,,,,,,,,,,,,,,,,,,,701.2378029000001,701.7376243999997,701.7376243999997,702.4873960999994,702.4873960999994,702.9900640999995,702.9900640999995,703.7898219999997,703.7898219999997,None,num_4,0.4305680999996184,703.7898219999997,None,sad,0,Sad,704.2313381399996,None,None,704.2313381399996,None,,,,,,,,,,,,,,,,,,,,,,,,,,,,,,,,,,,,,,,,,,,,,,,,,,,,,12,001,male,24,450,450,2022_Sep_12_1239,Experiment,2021.1.4,360.3356887261634,
images\S3_F_H_03.png,images\S3_F_H_03_scrambled.png,3,happy,30,female,6,,375,off,1,0.5,0.75,0.5,0.805,3,374,1,1,1,0,0,0,0,6,,,,,,0,127,127,127,,,,,,,,,,,,,,,,,,,,,,,,,,,,,,,,,,,,,,,,,,,,,,,,,,,,,,,,,704.2812911999999,704.7839075000002,704.7839075000002,705.5393876999997,705.5393876999997,706.0419028999995,706.0419028999995,706.8499486000001,706.8499486000001,None,num_6,0.25055539999993925,706.8499486000001,None,happy,0,Happy,707.1165749599994,None,None,707.1165749599994,None,,,,,,,,,,,,,,,,,,,,,,,,,,,,,,,,,,,,,,,,,,,,,,,,,,,,,12,001,male,24,450,450,2022_Sep_12_1239,Experiment,2021.1.4,360.3356887261634,
images\S2_M_H_02.png,images\S2_M_H_02_scrambled.png,2,happy,20,male,5,,8,off,1,0.5,0.75,0.5,0.782,3,7,2,1,1,0,0,0,0,5,,,,,,0,128,128,128,,,,,,,,,,,,,,,,,,,,,,,,,,,,,,,,,,,,,,,,,,,,,,,,,,,,,,,,,707.1804044,707.6857961999995,707.6857961999995,708.4411485,708.4411485,708.9437409000002,708.9437409000002,709.7296802999999,709.7296802999999,None,num_6,0.25879059999988385,709.7296802999999,None,happy,0,Happy,710.0017566399998,None,None,710.0017566399998,None,,,,,,,,,,,,,,,,,,,,,,,,,,,,,,,,,,,,,,,,,,,,,,,,,,,,,12,001,male,24,450,450,2022_Sep_12_1239,Experiment,2021.1.4,360.3356887261634,
images\S6_M_S_01.png,images\S6_M_S_01_scrambled.png,6,sad,-10,male,3,,574,on,2,0.5,0.75,0.5,0.943,3,573,1,1,1,2,2,32,128,163,,,,,,0,129,129,129,,,,,,,,,,,,,,,,,,,,,,,,,,,,,,,,,,,,,,,,,,,,,,,,,,,,,,,,,710.0517436,710.5515767999996,710.5515767999996,711.3013436000001,711.3013436000001,711.8039665999995,711.8039665999995,712.7508986000003,712.7508986000003,None,num_4,0.1974895999992441,712.7508986000003,None,sad,0,Sad,712.9619487400001,None,None,712.9619487400001,None,,,,,,,,,,,,,,,,,,,,,,,,,,,,,,,,,,,,,,,,,,,,,,,,,,,,,12,001,male,24,450,450,2022_Sep_12_1239,Experiment,2021.1.4,360.3356887261634,
images\S9_F_H_03.png,images\S9_F_H_03_scrambled.png,9,happy,30,female,6,,591,on,2,0.5,0.75,0.5,0.814,3,590,2,1,1,2,2,32,128,166,,,,,,0,130,130,130,,,,,,,,,,,,,,,,,,,,,,,,,,,,,,,,,,,,,,,,,,,,,,,,,,,,,,,,,713.0119376000002,713.5117775999997,713.5117775999997,714.2644673999994,714.2644673999994,714.7697693999999,714.7697693999999,715.5861688999994,715.5861688999994,None,num_6,0.2104395000005752,715.5861688999994,None,happy,0,Happy,715.8138454,None,space,715.8138454,None,33.10980780000045,,,,,,,,,,,,,,,,,,,,,,,,,,,,,,,,,,,,,,,,,,,,,,,,,,,,12,001,male,24,450,450,2022_Sep_12_1239,Experiment,2021.1.4,360.3356887261634,
images\S5_F_S_02.png,images\S5_F_S_02_scrambled.png,5,sad,-20,female,2,,89,on,2,0.5,0.75,0.5,0.769,3,88,3,1,1,2,2,32,128,162,,,,,,0,131,131,131,,,,,,,,,,,,,,,,,,,,,,,,,,,,,,,,,,,,,,,,,,,,,,,,,,,,,,,,,748.9813427999998,749.4840278000001,749.4840278000001,750.2337932999999,750.2337932999999,750.7364596999996,750.7364596999996,751.5056264999994,751.5056264999994,None,num_4,0.17889629999990575,751.5056264999994,None,sad,0,Sad,751.7111762799997,None,None,751.7111762799997,None,,,,,,,,,,,,,,,,,,,,,,,,,,,,,,,,,,,,,,,,,,,,,,,,,,,,,12,001,male,24,450,450,2022_Sep_12_1239,Experiment,2021.1.4,360.3356887261634,
images\S3_F_H_03.png,images\S3_F_H_03_scrambled.png,3,happy,30,female,6,,195,on,2,0.5,0.75,0.5,0.802,3,194,4,1,1,2,2,32,128,166,,,,,,0,132,132,132,,,,,,,,,,,,,,,,,,,,,,,,,,,,,,,,,,,,,,,,,,,,,,,,,,,,,,,,,751.7777673999999,752.2805130999996,752.2805130999996,753.0357687999995,753.0357687999995,753.5411555000001,753.5411555000001,754.3464207999996,754.3464207999996,None,num_6,0.16264749999936612,754.3464207999996,None,happy,0,Happy,754.52705796,None,None,754.52705796,None,,,,,,,,,,,,,,,,,,,,,,,,,,,,,,,,,,,,,,,,,,,,,,,,,,,,,12,001,male,24,450,450,2022_Sep_12_1239,Experiment,2021.1.4,360.3356887261634,
images\S1_F_H_01.png,images\S1_F_H_01_scrambled.png,1,happy,10,female,4,,361,off,1,0.5,0.75,0.5,0.815,3,360,1,1,1,0,0,0,0,4,,,,,,0,133,133,133,,,,,,,,,,,,,,,,,,,,,,,,,,,,,,,,,,,,,,,,,,,,,,,,,,,,,,,,,754.5824578000002,755.0878715999997,755.0878715999997,755.8431934,755.8431934,756.3458516000001,756.3458516000001,757.1649922999995,757.1649922999995,None,num_6,0.18364159999964613,757.1649922999995,None,happy,0,Happy,757.36216544,None,None,757.36216544,None,,,,,,,,,,,,,,,,,,,,,,,,,,,,,,,,,,,,,,,,,,,,,,,,,,,,,12,001,male,24,450,450,2022_Sep_12_1239,Experiment,2021.1.4,360.3356887261634,
images\S5_F_S_01.png,images\S5_F_S_01_scrambled.png,5,sad,-10,female,3,,208,on,2,0.5,0.75,0.5,0.95,3,207,1,1,1,2,2,32,128,163,,,,,,0,134,134,134,,,,,,,,,,,,,,,,,,,,,,,,,,,,,,,,,,,,,,,,,,,,,,,,,,,,,,,,,757.4093683000001,757.9119892999997,757.9119892999997,758.6645649000002,758.6645649000002,759.1643812000002,759.1643812000002,760.1168646999995,760.1168646999995,None,num_6,0.33542860000034125,760.1168646999995,None,happy,0,Sad,760.4612227199998,None,None,760.4612227199998,None,,,,,,,,,,,,,,,,,,,,,,,,,,,,,,,,,,,,,,,,,,,,,,,,,,,,,12,001,male,24,450,450,2022_Sep_12_1239,Experiment,2021.1.4,360.3356887261634,
images\S5_F_H_01.png,images\S5_F_H_01_scrambled.png,5,happy,10,female,4,,565,on,2,0.5,0.75,0.5,0.773,3,564,2,2,1,2,2,32,128,164,,,,,,0,135,135,135,,,,,,,,,,,,,,,,,,,,,,,,,,,,,,,,,,,,,,,,,,,,,,,,,,,,,,,,,760.5111885999995,761.0165857000002,761.0165857000002,761.7691694999994,761.7691694999994,762.2717542999999,762.2717542999999,763.0465568,763.0465568,None,num_6,0.4306487999992896,763.0465568,None,happy,0,Happy,763.5020874400001,None,None,763.5020874400001,None,,,,,,,,,,,,,,,,,,,,,,,,,,,,,,,,,,,,,,,,,,,,,,,,,,,,,12,001,male,24,450,450,2022_Sep_12_1239,Experiment,2021.1.4,360.3356887261634,
images\S7_F_H_01.png,images\S7_F_H_01_scrambled.png,7,happy,10,female,4,,397,off,1,0.5,0.75,0.5,0.769,3,396,1,1,2,0,0,0,0,4,,,,,,0,136,136,136,,,,,,,,,,,,,,,,,,,,,,,,,,,,,,,,,,,,,,,,,,,,,,,,,,,,,,,,,763.5574720999994,764.0628845000001,764.0628845000001,764.8126557999994,764.8126557999994,765.3153394999999,765.3153394999999,766.0872641999995,766.0872641999995,None,num_6,0.17298110000047018,766.0872641999995,None,happy,0,Happy,766.2899455000002,None,None,766.2899455000002,None,,,,,,,,,,,,,,,,,,,,,,,,,,,,,,,,,,,,,,,,,,,,,,,,,,,,,12,001,male,24,450,450,2022_Sep_12_1239,Experiment,2021.1.4,360.3356887261634,
images\S8_M_H_01.png,images\S8_M_H_01_scrambled.png,8,happy,10,male,4,,343,on,2,0.5,0.75,0.5,0.844,3,342,1,1,3,2,2,32,128,164,,,,,,0,137,137,137,,,,,,,,,,,,,,,,,,,,,,,,,,,,,,,,,,,,,,,,,,,,,,,,,,,,,,,,,766.3482777999998,766.8509466999994,766.8509466999994,767.6062270000002,767.6062270000002,768.1088946999998,768.1088946999998,768.9558558999997,768.9558558999997,None,num_4,0.2085322000002634,768.9558558999997,None,sad,0,Happy,769.1723973199998,None,None,769.1723973199998,None,,,,,,,,,,,,,,,,,,,,,,,,,,,,,,,,,,,,,,,,,,,,,,,,,,,,,12,001,male,24,450,450,2022_Sep_12_1239,Experiment,2021.1.4,360.3356887261634,
images\blank.jpg,images\blank.jpg,none,none,none,none,0,,626,on,2,0.5,0.75,0.5,0.879,0,625,2,1,1,3,3,48,192,240,,,,,,0,138,138,138,,,,,,,,,,,,,,,,,,,,,,,,,,,,,,,,,,,,,,,,,,,,,,,,,,,,,,,,,769.2586826999996,769.7611169000002,769.7611169000002,770.5164783999999,770.5164783999999,771.0218706999995,771.0218706999995,771.9050370999994,771.9050370999994,771.9050370999994,None,,771.9050370999994,None,miss,0,,774.9095470599997,None,None,774.9095470599997,None,,,,,,,,,,,,,,,,,,,,,,,,,,,,,,,,,,,,,,,,,,,,,,,,,,,,,12,001,male,24,450,450,2022_Sep_12_1239,Experiment,2021.1.4,360.3356887261634,
images\S1_F_H_02.png,images\S1_F_H_02_scrambled.png,1,happy,20,female,5,,422,on,2,0.5,0.75,0.5,0.879,3,421,3,1,1,2,2,32,128,165,,,,,,0,139,139,139,,,,,,,,,,,,,,,,,,,,,,,,,,,,,,,,,,,,,,,,,,,,,,,,,,,,,,,,,775.0264498999995,775.5260088999994,775.5260088999994,776.2757818999999,776.2757818999999,776.7756208000001,776.7756208000001,777.6614998999994,777.6614998999994,None,num_6,0.2069390000006024,777.6614998999994,775.0264498999995,happy,0,Happy,777.8836170399996,None,None,777.8836170399996,None,,,,,,,,,,,,,,,,,,,,,,,,,,,,,,,,,,,,,,,,,,,,,,,,,,,,,12,001,male,24,450,450,2022_Sep_12_1239,Experiment,2021.1.4,360.3356887261634,
