image_face,image_scram,avatar,emo,emotion,sex,trigeeg,dac,trial_no,NMES,stimtime,baseline,iti,face,scr_face,resp_time,index,count_NMES,count_avatar,count_emotion,dac1,dac2,dac1_output,dac2_output,trigs_out,nmes,practice_trials.thisRepN,practice_trials.thisTrialN,practice_trials.thisN,practice_trials.thisIndex,real_trials.thisRepN,real_trials.thisTrialN,real_trials.thisN,real_trials.thisIndex,trials.thisRepN,trials.thisTrialN,trials.thisN,trials.thisIndex,position,Welcome.started,Welcome.stopped,Welcome_resp.keys,Welcome_resp.rt,text_2.started,text_2.stopped,form_2.index,form_2.itemText,form_2.type,form_2.response,form_2.rt,key_resp_4.keys,key_resp_4.rt,key_resp_4.started,key_resp_4.stopped,instructions.started,instructions.stopped,end_instr.keys,end_instr.rt,instructions_2.started,instructions_2.stopped,end_instr_2.keys,end_instr_2.rt,end_instr_2.started,end_instr_2.stopped,instruct_keypress.started,instruct_keypress.stopped,end_instruct_keypress.keys,end_instruct_keypress.rt,start_practice.started,start_practice.stopped,start_practice_resp.keys,start_practice_resp.rt,prac_baseline.started,prac_baseline.stopped,prac_iti.started,prac_iti.stopped,prac_stimulus.started,prac_stimulus.stopped,prac_scram_stim.started,prac_scram_stim.stopped,prac_stimulus_resp.started,prac_stimulus_resp.stopped,prac_resp.keys,prac_resp.rt,prac_resp.started,prac_resp.stopped,transition_to_real.started,transition_to_real.stopped,end_transition_to_real.keys,end_transition_to_real.rt,fixation_cross.started,fixation_cross.stopped,tr_iti.started,tr_iti.stopped,stimulus.started,stimulus.stopped,scram_stim.started,scram_stim.stopped,response_txt.started,response_txt.stopped,response.keys,response.rt,response.started,response.stopped,participant_Resp,grouping,corAnswer,break_msg.started,break_msg.stopped,end_break.keys,end_break.started,end_break.stopped,end_break.rt,text.started,text.stopped,key_resp_3.keys,key_resp_3.rt,key_resp_3.started,key_resp_3.stopped,fix_cross_comf.started,fix_cross_comf.stopped,stimulation_comf.started,stimulation_comf.stopped,rate_instr.started,rate_instr.stopped,comfort_rating.response,comfort_rating.rt,comfort_rating.started,comfort_rating.stopped,resp_form.keys,resp_form.rt,resp_form.started,resp_form.stopped,survey_instructions.started,survey_instructions.stopped,key_resp_2.keys,key_resp_2.rt,key_resp_2.started,key_resp_2.stopped,form.index,form.itemText,form.type,form.response,form.rt,key_resp.keys,key_resp.rt,key_resp.started,key_resp.stopped,text_3.started,text_3.stopped,rate_smile.response,rate_smile.rt,rate_smile.started,rate_smile.stopped,key_resp_5.keys,key_resp_5.rt,key_resp_5.started,key_resp_5.stopped,end_msg.started,end_msg.stopped,end_resp.keys,end_resp.rt,end_resp.started,end_resp.stopped,participant,session,gender,age,LEFT,RIGHT,date,expName,psychopyVersion,frameRate,
,,,,,,,,,,,,,,,,,,,,,,,,,,,,,,,,,,,,,,H-S,24.723725099999683,None,num_add,2.9183552000004056,,,,,,,,,,,,,,,,,,,,,,,,,,,,,,,,,,,,,,,,,,,,,,,,,,,,,,,,,,,,,,,,,,,,,,,,,,,,,,,,,,,,,,,,,,,,,,,,,,,,,,,,,,,,,,,,,,,,,,,,,,13,001,male,23,450,450,2022_Sep_14_1142,Experiment,2021.1.4,359.96731496904556,
,,,,,,,,,,,,,,,,,,,,,,,,,,,,,,,,,,,,,,,,,,,27.649862700000085,29.68257199999971,1,"This scale consistes of a number of words that describe different feelings and emotion. Read each item and then list the number from the scale below each word. Indicate (by clicking) to what extend you feel this way RIGHT NOW, that is, AT THE PRESENT MOMENT.",description,,,,,,,,,,,,,,,,,,,,,,,,,,,,,,,,,,,,,,,,,,,,,,,,,,,,,,,,,,,,,,,,,,,,,,,,,,,,,,,,,,,,,,,,,,,,,,,,,,,,,,,,,,,,,,,,,,,,,13,001,male,23,450,450,2022_Sep_14_1142,Experiment,2021.1.4,359.96731496904556,
,,,,,,,,,,,,,,,,,,,,,,,,,,,,,,,,,,,,,,,,,,,,,2,Interested,rating,5.0,2.145262900000489,,,,,,,,,,,,,,,,,,,,,,,,,,,,,,,,,,,,,,,,,,,,,,,,,,,,,,,,,,,,,,,,,,,,,,,,,,,,,,,,,,,,,,,,,,,,,,,,,,,,,,,,,,,,,,,,,,,13,001,male,23,450,450,2022_Sep_14_1142,Experiment,2021.1.4,359.96731496904556,
,,,,,,,,,,,,,,,,,,,,,,,,,,,,,,,,,,,,,,,,,,,,,3,Distressed,rating,1.0,4.855441599999722,,,,,,,,,,,,,,,,,,,,,,,,,,,,,,,,,,,,,,,,,,,,,,,,,,,,,,,,,,,,,,,,,,,,,,,,,,,,,,,,,,,,,,,,,,,,,,,,,,,,,,,,,,,,,,,,,,,13,001,male,23,450,450,2022_Sep_14_1142,Experiment,2021.1.4,359.96731496904556,
,,,,,,,,,,,,,,,,,,,,,,,,,,,,,,,,,,,,,,,,,,,,,4,Excited,rating,4.0,6.61112090000006,,,,,,,,,,,,,,,,,,,,,,,,,,,,,,,,,,,,,,,,,,,,,,,,,,,,,,,,,,,,,,,,,,,,,,,,,,,,,,,,,,,,,,,,,,,,,,,,,,,,,,,,,,,,,,,,,,,13,001,male,23,450,450,2022_Sep_14_1142,Experiment,2021.1.4,359.96731496904556,
,,,,,,,,,,,,,,,,,,,,,,,,,,,,,,,,,,,,,,,,,,,,,5,Upset,rating,1.0,11.06548819999989,,,,,,,,,,,,,,,,,,,,,,,,,,,,,,,,,,,,,,,,,,,,,,,,,,,,,,,,,,,,,,,,,,,,,,,,,,,,,,,,,,,,,,,,,,,,,,,,,,,,,,,,,,,,,,,,,,,13,001,male,23,450,450,2022_Sep_14_1142,Experiment,2021.1.4,359.96731496904556,
,,,,,,,,,,,,,,,,,,,,,,,,,,,,,,,,,,,,,,,,,,,,,6,Strong,rating,4.0,13.311286799999834,,,,,,,,,,,,,,,,,,,,,,,,,,,,,,,,,,,,,,,,,,,,,,,,,,,,,,,,,,,,,,,,,,,,,,,,,,,,,,,,,,,,,,,,,,,,,,,,,,,,,,,,,,,,,,,,,,,13,001,male,23,450,450,2022_Sep_14_1142,Experiment,2021.1.4,359.96731496904556,
,,,,,,,,,,,,,,,,,,,,,,,,,,,,,,,,,,,,,,,,,,,,,7,Guilty,rating,1.0,8.412854500000321,,,,,,,,,,,,,,,,,,,,,,,,,,,,,,,,,,,,,,,,,,,,,,,,,,,,,,,,,,,,,,,,,,,,,,,,,,,,,,,,,,,,,,,,,,,,,,,,,,,,,,,,,,,,,,,,,,,13,001,male,23,450,450,2022_Sep_14_1142,Experiment,2021.1.4,359.96731496904556,
,,,,,,,,,,,,,,,,,,,,,,,,,,,,,,,,,,,,,,,,,,,,,8,Scared,rating,1.0,6.59717880000062,,,,,,,,,,,,,,,,,,,,,,,,,,,,,,,,,,,,,,,,,,,,,,,,,,,,,,,,,,,,,,,,,,,,,,,,,,,,,,,,,,,,,,,,,,,,,,,,,,,,,,,,,,,,,,,,,,,13,001,male,23,450,450,2022_Sep_14_1142,Experiment,2021.1.4,359.96731496904556,
,,,,,,,,,,,,,,,,,,,,,,,,,,,,,,,,,,,,,,,,,,,,,9,Hostile,rating,1.0,5.834595100000115,,,,,,,,,,,,,,,,,,,,,,,,,,,,,,,,,,,,,,,,,,,,,,,,,,,,,,,,,,,,,,,,,,,,,,,,,,,,,,,,,,,,,,,,,,,,,,,,,,,,,,,,,,,,,,,,,,,13,001,male,23,450,450,2022_Sep_14_1142,Experiment,2021.1.4,359.96731496904556,
,,,,,,,,,,,,,,,,,,,,,,,,,,,,,,,,,,,,,,,,,,,,,10,Enthusiastic,rating,5.0,5.390252899999723,,,,,,,,,,,,,,,,,,,,,,,,,,,,,,,,,,,,,,,,,,,,,,,,,,,,,,,,,,,,,,,,,,,,,,,,,,,,,,,,,,,,,,,,,,,,,,,,,,,,,,,,,,,,,,,,,,,13,001,male,23,450,450,2022_Sep_14_1142,Experiment,2021.1.4,359.96731496904556,
,,,,,,,,,,,,,,,,,,,,,,,,,,,,,,,,,,,,,,,,,,,,,11,Proud,rating,5.0,5.0594584000000395,,,,,,,,,,,,,,,,,,,,,,,,,,,,,,,,,,,,,,,,,,,,,,,,,,,,,,,,,,,,,,,,,,,,,,,,,,,,,,,,,,,,,,,,,,,,,,,,,,,,,,,,,,,,,,,,,,,13,001,male,23,450,450,2022_Sep_14_1142,Experiment,2021.1.4,359.96731496904556,
,,,,,,,,,,,,,,,,,,,,,,,,,,,,,,,,,,,,,,,,,,,,,12,Irritable,rating,1.0,5.046014900000046,,,,,,,,,,,,,,,,,,,,,,,,,,,,,,,,,,,,,,,,,,,,,,,,,,,,,,,,,,,,,,,,,,,,,,,,,,,,,,,,,,,,,,,,,,,,,,,,,,,,,,,,,,,,,,,,,,,13,001,male,23,450,450,2022_Sep_14_1142,Experiment,2021.1.4,359.96731496904556,
,,,,,,,,,,,,,,,,,,,,,,,,,,,,,,,,,,,,,,,,,,,,,13,Alert,rating,4.0,5.876793400000679,,,,,,,,,,,,,,,,,,,,,,,,,,,,,,,,,,,,,,,,,,,,,,,,,,,,,,,,,,,,,,,,,,,,,,,,,,,,,,,,,,,,,,,,,,,,,,,,,,,,,,,,,,,,,,,,,,,13,001,male,23,450,450,2022_Sep_14_1142,Experiment,2021.1.4,359.96731496904556,
,,,,,,,,,,,,,,,,,,,,,,,,,,,,,,,,,,,,,,,,,,,,,14,Ashamed,rating,1.0,8.184814500000357,,,,,,,,,,,,,,,,,,,,,,,,,,,,,,,,,,,,,,,,,,,,,,,,,,,,,,,,,,,,,,,,,,,,,,,,,,,,,,,,,,,,,,,,,,,,,,,,,,,,,,,,,,,,,,,,,,,13,001,male,23,450,450,2022_Sep_14_1142,Experiment,2021.1.4,359.96731496904556,
,,,,,,,,,,,,,,,,,,,,,,,,,,,,,,,,,,,,,,,,,,,,,15,Inspired,rating,4.0,8.608874399999877,,,,,,,,,,,,,,,,,,,,,,,,,,,,,,,,,,,,,,,,,,,,,,,,,,,,,,,,,,,,,,,,,,,,,,,,,,,,,,,,,,,,,,,,,,,,,,,,,,,,,,,,,,,,,,,,,,,13,001,male,23,450,450,2022_Sep_14_1142,Experiment,2021.1.4,359.96731496904556,
,,,,,,,,,,,,,,,,,,,,,,,,,,,,,,,,,,,,,,,,,,,,,16,Nervous,rating,2.0,8.41569890000028,,,,,,,,,,,,,,,,,,,,,,,,,,,,,,,,,,,,,,,,,,,,,,,,,,,,,,,,,,,,,,,,,,,,,,,,,,,,,,,,,,,,,,,,,,,,,,,,,,,,,,,,,,,,,,,,,,,13,001,male,23,450,450,2022_Sep_14_1142,Experiment,2021.1.4,359.96731496904556,
,,,,,,,,,,,,,,,,,,,,,,,,,,,,,,,,,,,,,,,,,,,,,17,Determined,rating,5.0,8.415998700000273,,,,,,,,,,,,,,,,,,,,,,,,,,,,,,,,,,,,,,,,,,,,,,,,,,,,,,,,,,,,,,,,,,,,,,,,,,,,,,,,,,,,,,,,,,,,,,,,,,,,,,,,,,,,,,,,,,,13,001,male,23,450,450,2022_Sep_14_1142,Experiment,2021.1.4,359.96731496904556,
,,,,,,,,,,,,,,,,,,,,,,,,,,,,,,,,,,,,,,,,,,,,,18,Attentive,rating,5.0,8.452319699999862,,,,,,,,,,,,,,,,,,,,,,,,,,,,,,,,,,,,,,,,,,,,,,,,,,,,,,,,,,,,,,,,,,,,,,,,,,,,,,,,,,,,,,,,,,,,,,,,,,,,,,,,,,,,,,,,,,,13,001,male,23,450,450,2022_Sep_14_1142,Experiment,2021.1.4,359.96731496904556,
,,,,,,,,,,,,,,,,,,,,,,,,,,,,,,,,,,,,,,,,,,,,,19,Jittery,rating,3.0,7.838154500000201,,,,,,,,,,,,,,,,,,,,,,,,,,,,,,,,,,,,,,,,,,,,,,,,,,,,,,,,,,,,,,,,,,,,,,,,,,,,,,,,,,,,,,,,,,,,,,,,,,,,,,,,,,,,,,,,,,,13,001,male,23,450,450,2022_Sep_14_1142,Experiment,2021.1.4,359.96731496904556,
,,,,,,,,,,,,,,,,,,,,,,,,,,,,,,,,,,,,,,,,,,,,,20,Active,rating,4.0,6.31580060000033,,,,,,,,,,,,,,,,,,,,,,,,,,,,,,,,,,,,,,,,,,,,,,,,,,,,,,,,,,,,,,,,,,,,,,,,,,,,,,,,,,,,,,,,,,,,,,,,,,,,,,,,,,,,,,,,,,,13,001,male,23,450,450,2022_Sep_14_1142,Experiment,2021.1.4,359.96731496904556,
,,,,,,,,,,,,,,,,,,,,,,,,,,,,,,,,,,,,,,,,,,,,,21,Afraid,rating,2.0,5.057655600000544,,,,,,,,,,,,,,,,,,,,,,,,,,,,,,,,,,,,,,,,,,,,,,,,,,,,,,,,,,,,,,,,,,,,,,,,,,,,,,,,,,,,,,,,,,,,,,,,,,,,,,,,,,,,,,,,,,,13,001,male,23,450,450,2022_Sep_14_1142,Experiment,2021.1.4,359.96731496904556,
,,,,,,,,,,,,,,,,,,,,,,,,,,,,,,,,,,,,,,,,,,,,,22,Press the + button to submit your answers,description,,,,,,,,,,,,,,,,,,,,,,,,,,,,,,,,,,,,,,,,,,,,,,,,,,,,,,,,,,,,,,,,,,,,,,,,,,,,,,,,,,,,,,,,,,,,,,,,,,,,,,,,,,,,,,,,,,,,,13,001,male,23,450,450,2022_Sep_14_1142,Experiment,2021.1.4,359.96731496904556,
,,,,,,,,,,,,,,,,,,,,,,,,,,,,,,,,,,,,,,,,,,,,,,,,,,num_add,42.06327599999986,37.68288399999983,None,,,,,,,,,,,,,,,,,,,,,,,,,,,,,,,,,,,,,,,,,,,,,,,,,,,,,,,,,,,,,,,,,,,,,,,,,,,,,,,,,,,,,,,,,,,,,,,,,,,,,,,,,,,,,,,13,001,male,23,450,450,2022_Sep_14_1142,Experiment,2021.1.4,359.96731496904556,
,,,,,,,,,,,,,,,,,,,,,,,,,,,,,,,,,,,,,,,,,,,,,,,,,,,,,,79.75882039999942,None,num_add,1.4754060000004756,,,,,,,,,,,,,,,,,,,,,,,,,,,,,,,,,,,,,,,,,,,,,,,,,,,,,,,,,,,,,,,,,,,,,,,,,,,,,,,,,,,,,,,,,,,,,,,,,,,,,,,,,,,13,001,male,23,450,450,2022_Sep_14_1142,Experiment,2021.1.4,359.96731496904556,
,,,,,,,,,,,,,,,,,,,,,,,,,,,,,,,,,,,,,,,,,,,,,,,,,,,,,,,,,,81.24171320000005,None,num_add,2.6724145999996836,81.24171320000005,None,,,,,,,,,,,,,,,,,,,,,,,,,,,,,,,,,,,,,,,,,,,,,,,,,,,,,,,,,,,,,,,,,,,,,,,,,,,,,,,,,,,,,,,,,,,,,,,,,,,,,13,001,male,23,450,450,2022_Sep_14_1142,Experiment,2021.1.4,359.96731496904556,
,,,,,,,,,,,,,,,,,,,,,,,,,,,,,,,,,,,,,,,,,,,,,,,,,,,,,,,,,,,,,,,,83.9353173999998,None,num_add,4.594820599999366,,,,,,,,,,,,,,,,,,,,,,,,,,,,,,,,,,,,,,,,,,,,,,,,,,,,,,,,,,,,,,,,,,,,,,,,,,,,,,,,,,,,,,,,,,,,,,,,,13,001,male,23,450,450,2022_Sep_14_1142,Experiment,2021.1.4,359.96731496904556,
,,,,,,,,,,,,,,,,,,,,,,,,,,,,,,,,,,,,,,,,,,,,,,,,,,,,,,,,,,,,,,,,,,,,88.54224879999947,None,space,4.379734000000099,,,,,,,,,,,,,,,,,,,,,,,,,,,,,,,,,,,,,,,,,,,,,,,,,,,,,,,,,,,,,,,,,,,,,,,,,,,,,,,,,,,,,,,,,,,,,13,001,male,23,450,450,2022_Sep_14_1142,Experiment,2021.1.4,359.96731496904556,
images\S21_F_H_02.png,images\S21_F_H_02_scrambled.png,21,Happy,-0.2,F,0,0,practice,off,1,0.5,0.75,0.5,0.91,3,,,,,,,,,,,0,0,0,1,,,,,,,,,,,,,,,,,,,,,,,,,,,,,,,,,,,,,,,,,,,93.05752159999975,93.56018109999968,93.56018109999968,94.31550009999955,94.31550009999955,94.82089009999981,94.82089009999981,95.7344693999994,95.7344693999994,None,num_4,0.13224390000050334,95.7344693999994,None,,,,,,,,,,,,,,,,,,,,,,,,,,,,,,,,,,,,,,,,,,,,,,,,,,,,,,,,,,,,,,,,,,,,,,,,,,,,,,,13,001,male,23,450,450,2022_Sep_14_1142,Experiment,2021.1.4,359.96731496904556,
images\S22_M_S_02.png,images\S22_M_S_02_scrambled.png,22,Sad,0.2,M,0,0,practice,off,1,0.5,0.75,0.5,0.751,3,,,,,,,,,,,0,1,1,3,,,,,,,,,,,,,,,,,,,,,,,,,,,,,,,,,,,,,,,,,,,95.93168969999988,96.43427769999926,96.43427769999926,97.18404190000001,97.18404190000001,97.68952499999978,97.68952499999978,98.44480419999945,98.44480419999945,None,num_6,0.15772290000040812,98.44480419999945,None,,,,,,,,,,,,,,,,,,,,,,,,,,,,,,,,,,,,,,,,,,,,,,,,,,,,,,,,,,,,,,,,,,,,,,,,,,,,,,,13,001,male,23,450,450,2022_Sep_14_1142,Experiment,2021.1.4,359.96731496904556,
images\S22_M_S_01.png,images\S22_M_S_01_scrambled.png,22,Sad,0.1,M,0,0,practice,on,2,0.5,0.75,0.5,0.867,3,,,,,,,,,,,0,2,2,5,,,,,,,,,,,,,,,,,,,,,,,,,,,,,,,,,,,,,,,,,,,98.67522669999926,99.17785980000008,99.17785980000008,99.92766409999967,99.92766409999967,100.43028819999927,100.43028819999927,101.29947269999957,101.29947269999957,None,num_6,0.6231768999996348,101.29947269999957,None,,,,,,,,,,,,,,,,,,,,,,,,,,,,,,,,,,,,,,,,,,,,,,,,,,,,,,,,,,,,,,,,,,,,,,,,,,,,,,,13,001,male,23,450,450,2022_Sep_14_1142,Experiment,2021.1.4,359.96731496904556,
images\S22_M_S_02.png,images\S22_M_S_02_scrambled.png,22,Sad,0.2,M,0,0,practice,on,2,0.5,0.75,0.5,0.783,3,,,,,,,,,,,0,3,3,6,,,,,,,,,,,,,,,,,,,,,,,,,,,,,,,,,,,,,,,,,,,101.97421869999926,102.47685459999957,102.47685459999957,103.22666929999923,103.22666929999923,103.72932929999934,103.72932929999934,104.51514479999969,104.51514479999969,None,num_6,0.7362772999995286,104.51514479999969,None,,,,,,,,,,,,,,,,,,,,,,,,,,,,,,,,,,,,,,,,,,,,,,,,,,,,,,,,,,,,,,,,,,,,,,,,,,,,,,,13,001,male,23,450,450,2022_Sep_14_1142,Experiment,2021.1.4,359.96731496904556,
images\S21_F_H_01.png,images\S21_F_H_01_scrambled.png,21,Happy,-0.1,F,0,0,practice,off,1,0.5,0.75,0.5,0.853,3,,,,,,,,,,,0,4,4,0,,,,,,,,,,,,,,,,,,,,,,,,,,,,,,,,,,,,,,,,,,,105.32041909999953,105.82026270000006,105.82026270000006,106.5728251999999,106.5728251999999,107.07264609999947,107.07264609999947,107.92797379999956,107.92797379999956,None,num_4,0.754994999999326,107.92797379999956,None,,,,,,,,,,,,,,,,,,,,,,,,,,,,,,,,,,,,,,,,,,,,,,,,,,,,,,,,,,,,,,,,,,,,,,,,,,,,,,,13,001,male,23,450,450,2022_Sep_14_1142,Experiment,2021.1.4,359.96731496904556,
images\S22_M_H_02.png,images\S22_M_H_02_scrambled.png,22,Happy,-0.2,M,0,0,practice,off,1,0.5,0.75,0.5,0.883,3,,,,,,,,,,,0,5,5,2,,,,,,,,,,,,,,,,,,,,,,,,,,,,,,,,,,,,,,,,,,,108.75268849999975,109.25253609999982,109.25253609999982,110.00236009999935,110.00236009999935,110.50220819999959,110.50220819999959,111.3907937999993,111.3907937999993,None,num_4,0.32409759999973176,111.3907937999993,None,,,,,,,,,,,,,,,,,,,,,,,,,,,,,,,,,,,,,,,,,,,,,,,,,,,,,,,,,,,,,,,,,,,,,,,,,,,,,,,13,001,male,23,450,450,2022_Sep_14_1142,Experiment,2021.1.4,359.96731496904556,
images\S22_M_S_03.png,images\S22_M_S_03_scrambled.png,22,Sad,0.3,M,0,0,practice,on,2,0.5,0.75,0.5,0.794,3,,,,,,,,,,,0,6,6,7,,,,,,,,,,,,,,,,,,,,,,,,,,,,,,,,,,,,,,,,,,,111.77675579999959,112.27660149999974,112.27660149999974,113.0319400999997,113.0319400999997,113.5345512999993,113.5345512999993,114.33154519999971,114.33154519999971,None,num_6,0.24704209999981686,114.33154519999971,None,,,,,,,,,,,,,,,,,,,,,,,,,,,,,,,,,,,,,,,,,,,,,,,,,,,,,,,,,,,,,,,,,,,,,,,,,,,,,,,13,001,male,23,450,450,2022_Sep_14_1142,Experiment,2021.1.4,359.96731496904556,
images\S22_M_S_03.png,images\S22_M_S_03_scrambled.png,22,Sad,0.3,M,0,0,practice,on,2,0.5,0.75,0.5,0.87,3,,,,,,,,,,,0,7,7,4,,,,,,,,,,,,,,,,,,,,,,,,,,,,,,,,,,,,,,,,,,,114.63143330000003,115.13414159999957,115.13414159999957,115.88385589999962,115.88385589999962,116.38931890000003,116.38931890000003,117.26409119999971,117.26409119999971,None,num_4,0.154584299999442,117.26409119999971,None,,,,,,,,,,,,,,,,,,,,,,,,,,,,,,,,,,,,,,,,,,,,,,,,,,,,,,,,,,,,,,,,,,,,,,,,,,,,,,,13,001,male,23,450,450,2022_Sep_14_1142,Experiment,2021.1.4,359.96731496904556,
,,,,,,,,,,,,,,,,,,,,,,,,,,,,,,,,,,,,,,,,,,,,,,,,,,,,,,,,,,,,,,,,,,,,,,,,,,,,,,,,,,,,,,117.45556289999968,None,space,15.050301000000218,,,,,,,,,,,,,,,,,,,,,,,,,,,,,,,,,,,,,,,,,,,,,,,,,,,,,,,,,,,,,,,,,,,,,,,,,,,13,001,male,23,450,450,2022_Sep_14_1142,Experiment,2021.1.4,359.96731496904556,
images\S8_M_S_03.png,images\S8_M_S_03_scrambled.png,8,sad,-30,male,1,,588,on,2,0.5,0.75,0.5,0.851,3,587,1,1,1,2,2,32,128,161,,,,,,0,0,0,0,,,,,,,,,,,,,,,,,,,,,,,,,,,,,,,,,,,,,,,,,,,,,,,,,,,,,,,,,132.95912430000044,133.4617688999997,133.4617688999997,134.21151709999958,134.21151709999958,134.71138669999982,134.71138669999982,135.5695095000001,135.5695095000001,None,num_6,0.5849548000005598,135.5695095000001,None,sad,1,Sad,136.17484998000018,None,None,136.17484998000018,None,,,,,,,,,,,,,,,,,,,,,,,,,,,,,,,,,,,,,,,,,,,,,,,,,,,,,13,001,male,23,450,450,2022_Sep_14_1142,Experiment,2021.1.4,359.96731496904556,
images\S2_M_S_03.png,images\S2_M_S_03_scrambled.png,2,sad,-30,male,1,,72,on,2,0.5,0.75,0.5,0.796,3,71,2,1,2,2,2,32,128,161,,,,,,0,1,1,1,,,,,,,,,,,,,,,,,,,,,,,,,,,,,,,,,,,,,,,,,,,,,,,,,,,,,,,,,136.2386865999988,136.74421220000022,136.74421220000022,137.49663989999954,137.49663989999954,137.9993344000004,137.9993344000004,138.79912219999915,138.79912219999915,None,num_6,0.9074262000012823,138.79912219999915,None,sad,1,Sad,139.72093762000023,None,None,139.72093762000023,None,,,,,,,,,,,,,,,,,,,,,,,,,,,,,,,,,,,,,,,,,,,,,,,,,,,,,13,001,male,23,450,450,2022_Sep_14_1142,Experiment,2021.1.4,359.96731496904556,
images\S4_M_H_03.png,images\S4_M_H_03_scrambled.png,4,happy,30,male,6,,21,off,1,0.5,0.75,0.5,0.832,3,20,1,1,1,0,0,0,0,6,,,,,,0,2,2,2,,,,,,,,,,,,,,,,,,,,,,,,,,,,,,,,,,,,,,,,,,,,,,,,,,,,,,,,,139.77092679999896,140.27634139999918,140.27634139999918,141.02888780000012,141.02888780000012,141.52872809999917,141.52872809999917,142.3645659999993,142.3645659999993,None,num_4,0.5338307000001805,142.3645659999993,None,happy,1,Happy,142.9116673999988,None,None,142.9116673999988,None,,,,,,,,,,,,,,,,,,,,,,,,,,,,,,,,,,,,,,,,,,,,,,,,,,,,,13,001,male,23,450,450,2022_Sep_14_1142,Experiment,2021.1.4,359.96731496904556,
images\S10_M_S_01.png,images\S10_M_S_01_scrambled.png,10,sad,-10,male,3,,178,off,1,0.5,0.75,0.5,0.853,3,177,2,1,1,0,0,0,0,3,,,,,,0,3,3,3,,,,,,,,,,,,,,,,,,,,,,,,,,,,,,,,,,,,,,,,,,,,,,,,,,,,,,,,,142.9588236999998,143.46146529999987,143.46146529999987,144.21414409999943,144.21414409999943,144.71662059999926,144.71662059999926,145.57186040000033,145.57186040000033,None,num_6,0.7589556999992055,145.57186040000033,None,sad,1,Sad,146.34387991999884,None,None,146.34387991999884,None,,,,,,,,,,,,,,,,,,,,,,,,,,,,,,,,,,,,,,,,,,,,,,,,,,,,,13,001,male,23,450,450,2022_Sep_14_1142,Experiment,2021.1.4,359.96731496904556,
images\S7_F_H_01.png,images\S7_F_H_01_scrambled.png,7,happy,10,female,4,,97,on,2,0.5,0.75,0.5,0.786,3,96,1,1,1,2,2,32,128,164,,,,,,0,4,4,4,,,,,,,,,,,,,,,,,,,,,,,,,,,,,,,,,,,,,,,,,,,,,,,,,,,,,,,,,146.39111460000004,146.89650709999933,146.89650709999933,147.64917820000028,147.64917820000028,148.15169530000003,148.15169530000003,148.94036359999973,148.94036359999973,None,num_6,0.3741540000009991,148.94036359999973,None,sad,1,Happy,149.32076056000022,None,None,149.32076056000022,None,,,,,,,,,,,,,,,,,,,,,,,,,,,,,,,,,,,,,,,,,,,,,,,,,,,,,13,001,male,23,450,450,2022_Sep_14_1142,Experiment,2021.1.4,359.96731496904556,
images\S6_M_H_01.png,images\S6_M_H_01_scrambled.png,6,happy,10,male,4,,271,off,1,0.5,0.75,0.5,0.947,3,270,1,1,2,0,0,0,0,4,,,,,,0,5,5,5,,,,,,,,,,,,,,,,,,,,,,,,,,,,,,,,,,,,,,,,,,,,,,,,,,,,,,,,,149.36796289999893,149.87061979999908,149.87061979999908,150.62594590000026,150.62594590000026,151.12866730000042,151.12866730000042,152.0782821999992,152.0782821999992,None,num_6,0.5721551000006002,152.0782821999992,None,sad,1,Happy,152.65864095999876,None,None,152.65864095999876,None,,,,,,,,,,,,,,,,,,,,,,,,,,,,,,,,,,,,,,,,,,,,,,,,,,,,,13,001,male,23,450,450,2022_Sep_14_1142,Experiment,2021.1.4,359.96731496904556,
images\blank.jpg,images\blank.jpg,none,none,none,none,0,,630,on,2,0.5,0.75,0.5,0.891,0,629,1,1,1,3,3,48,192,240,,,,,,0,6,6,6,,,,,,,,,,,,,,,,,,,,,,,,,,,,,,,,,,,,,,,,,,,,,,,,,,,,,,,,,152.7423033999994,153.2445519999992,153.2445519999992,153.99991949999912,153.99991949999912,154.50531800000044,154.50531800000044,155.3995292999998,155.3995292999998,155.3995292999998,None,,155.3995292999998,None,miss,1,,158.40419386000048,None,None,158.40419386000048,None,,,,,,,,,,,,,,,,,,,,,,,,,,,,,,,,,,,,,,,,,,,,,,,,,,,,,13,001,male,23,450,450,2022_Sep_14_1142,Experiment,2021.1.4,359.96731496904556,
images\S6_M_H_01.png,images\S6_M_H_01_scrambled.png,6,happy,10,male,4,,91,on,2,0.5,0.75,0.5,0.912,3,90,2,1,1,2,2,32,128,164,,,,,,0,7,7,7,,,,,,,,,,,,,,,,,,,,,,,,,,,,,,,,,,,,,,,,,,,,,,,,,,,,,,,,,158.52929800000038,159.03449139999884,159.03449139999884,159.7842204999988,159.7842204999988,160.2868331999989,160.2868331999989,161.20333560000017,161.20333560000017,None,num_4,1.2953010000001086,161.20333560000017,158.52929800000038,happy,1,Happy,162.50839341999873,None,None,162.50839341999873,None,,,,,,,,,,,,,,,,,,,,,,,,,,,,,,,,,,,,,,,,,,,,,,,,,,,,,13,001,male,23,450,450,2022_Sep_14_1142,Experiment,2021.1.4,359.96731496904556,
images\S1_F_H_01.png,images\S1_F_H_01_scrambled.png,1,happy,10,female,4,,61,on,2,0.5,0.75,0.5,0.779,3,60,3,1,2,2,2,32,128,164,,,,,,0,8,8,8,,,,,,,,,,,,,,,,,,,,,,,,,,,,,,,,,,,,,,,,,,,,,,,,,,,,,,,,,162.55837560000055,163.06099819999963,163.06099819999963,163.81365639999876,163.81365639999876,164.3161687999991,164.3161687999991,165.09932709999975,165.09932709999975,None,num_6,0.8391418000010162,165.09932709999975,None,sad,1,Happy,165.9434461599996,None,None,165.9434461599996,None,,,,,,,,,,,,,,,,,,,,,,,,,,,,,,,,,,,,,,,,,,,,,,,,,,,,,13,001,male,23,450,450,2022_Sep_14_1142,Experiment,2021.1.4,359.96731496904556,
images\S3_F_S_02.png,images\S3_F_S_02_scrambled.png,3,sad,-20,female,2,,377,off,1,0.5,0.75,0.5,0.916,3,376,1,1,1,0,0,0,0,2,,,,,,0,9,9,9,,,,,,,,,,,,,,,,,,,,,,,,,,,,,,,,,,,,,,,,,,,,,,,,,,,,,,,,,165.99062829999912,166.49606109999968,166.49606109999968,167.2486987000002,167.2486987000002,167.74841399999877,167.74841399999877,168.67040539999925,168.67040539999925,None,num_6,0.47604150000006484,168.67040539999925,None,sad,1,Sad,169.16188501999878,None,None,169.16188501999878,None,,,,,,,,,,,,,,,,,,,,,,,,,,,,,,,,,,,,,,,,,,,,,,,,,,,,,13,001,male,23,450,450,2022_Sep_14_1142,Experiment,2021.1.4,359.96731496904556,
images\S1_F_H_02.png,images\S1_F_H_02_scrambled.png,1,happy,20,female,5,,62,on,2,0.5,0.75,0.5,0.788,3,61,1,1,1,2,2,32,128,165,,,,,,0,10,10,10,,,,,,,,,,,,,,,,,,,,,,,,,,,,,,,,,,,,,,,,,,,,,,,,,,,,,,,,,169.2090933999998,169.7117176999991,169.7117176999991,170.46427759999915,170.46427759999915,170.9641206999995,170.9641206999995,171.75555160000022,171.75555160000022,None,num_4,1.0069536000009975,171.75555160000022,None,happy,1,Happy,172.77744501999896,None,None,172.77744501999896,None,,,,,,,,,,,,,,,,,,,,,,,,,,,,,,,,,,,,,,,,,,,,,,,,,,,,,13,001,male,23,450,450,2022_Sep_14_1142,Experiment,2021.1.4,359.96731496904556,
images\S10_M_H_02.png,images\S10_M_H_02_scrambled.png,10,happy,20,male,5,,596,on,2,0.5,0.75,0.5,0.94,3,595,2,1,2,2,2,32,128,165,,,,,,0,11,11,11,,,,,,,,,,,,,,,,,,,,,,,,,,,,,,,,,,,,,,,,,,,,,,,,,,,,,,,,,172.82464759999948,173.33004179999898,173.33004179999898,174.07980550000048,174.07980550000048,174.5852485000005,174.5852485000005,175.52936469999895,175.52936469999895,None,num_4,0.5850962999993499,175.52936469999895,None,happy,1,Happy,176.14312373999908,None,None,176.14312373999908,None,,,,,,,,,,,,,,,,,,,,,,,,,,,,,,,,,,,,,,,,,,,,,,,,,,,,,13,001,male,23,450,450,2022_Sep_14_1142,Experiment,2021.1.4,359.96731496904556,
images\S10_M_H_02.png,images\S10_M_H_02_scrambled.png,10,happy,20,male,5,,356,on,2,0.5,0.75,0.5,0.855,3,355,3,2,3,2,2,32,128,165,,,,,,0,12,12,12,,,,,,,,,,,,,,,,,,,,,,,,,,,,,,,,,,,,,,,,,,,,,,,,,,,,,,,,,176.19583200000034,176.69858139999906,176.69858139999906,177.45389879999948,177.45389879999948,177.95924850000029,177.95924850000029,178.8172831999991,178.8172831999991,None,num_4,0.40932280000015453,178.8172831999991,None,happy,1,Happy,179.2393635999988,None,None,179.2393635999988,None,,,,,,,,,,,,,,,,,,,,,,,,,,,,,,,,,,,,,,,,,,,,,,,,,,,,,13,001,male,23,450,450,2022_Sep_14_1142,Experiment,2021.1.4,359.96731496904556,
images\S1_F_H_03.png,images\S1_F_H_03_scrambled.png,1,happy,30,female,6,,243,off,1,0.5,0.75,0.5,0.758,3,242,1,1,1,0,0,0,0,6,,,,,,0,13,13,13,,,,,,,,,,,,,,,,,,,,,,,,,,,,,,,,,,,,,,,,,,,,,,,,,,,,,,,,,179.28655949999938,179.78918459999932,179.78918459999932,180.54454159999932,180.54454159999932,181.04715809999925,181.04715809999925,181.80802759999915,181.80802759999915,None,num_4,0.5066217000003235,181.80802759999915,None,happy,1,Happy,182.33284809999986,None,None,182.33284809999986,None,,,,,,,,,,,,,,,,,,,,,,,,,,,,,,,,,,,,,,,,,,,,,,,,,,,,,13,001,male,23,450,450,2022_Sep_14_1142,Experiment,2021.1.4,359.96731496904556,
images\S3_F_S_01.png,images\S3_F_S_01_scrambled.png,3,sad,-10,female,3,,496,off,1,0.5,0.75,0.5,0.844,3,495,2,1,1,0,0,0,0,3,,,,,,0,14,14,14,,,,,,,,,,,,,,,,,,,,,,,,,,,,,,,,,,,,,,,,,,,,,,,,,,,,,,,,,182.37725969999974,182.87711170000057,182.87711170000057,183.62970719999885,183.62970719999885,184.13227970000025,184.13227970000025,184.979379899999,184.979379899999,None,num_6,0.7909712999990006,184.979379899999,None,sad,1,Sad,185.78179382,None,None,185.78179382,None,,,,,,,,,,,,,,,,,,,,,,,,,,,,,,,,,,,,,,,,,,,,,,,,,,,,,13,001,male,23,450,450,2022_Sep_14_1142,Experiment,2021.1.4,359.96731496904556,
images\S9_F_H_01.png,images\S9_F_H_01_scrambled.png,9,happy,10,female,4,,409,off,1,0.5,0.75,0.5,0.886,3,408,3,1,1,0,0,0,0,4,,,,,,0,15,15,15,,,,,,,,,,,,,,,,,,,,,,,,,,,,,,,,,,,,,,,,,,,,,,,,,,,,,,,,,185.8372446000003,186.33992649999982,186.33992649999982,187.08969259999958,187.08969259999958,187.5951395000002,187.5951395000002,188.4838547999998,188.4838547999998,None,num_6,0.5346922999997332,188.4838547999998,None,sad,1,Happy,189.03075134000008,None,None,189.03075134000008,None,,,,,,,,,,,,,,,,,,,,,,,,,,,,,,,,,,,,,,,,,,,,,,,,,,,,,13,001,male,23,450,450,2022_Sep_14_1142,Experiment,2021.1.4,359.96731496904556,
images\S5_F_S_03.png,images\S5_F_S_03_scrambled.png,5,sad,-30,female,1,,30,off,1,0.5,0.75,0.5,0.82,3,29,4,1,1,0,0,0,0,1,,,,,,0,16,16,16,,,,,,,,,,,,,,,,,,,,,,,,,,,,,,,,,,,,,,,,,,,,,,,,,,,,,,,,,189.09741809999923,189.60007569999925,189.60007569999925,190.3553982000003,190.3553982000003,190.8552047000003,190.8552047000003,191.67998989999887,191.67998989999887,None,num_4,0.6501979000004212,191.67998989999887,None,happy,1,Sad,192.3380890600003,None,None,192.3380890600003,None,,,,,,,,,,,,,,,,,,,,,,,,,,,,,,,,,,,,,,,,,,,,,,,,,,,,,13,001,male,23,450,450,2022_Sep_14_1142,Experiment,2021.1.4,359.96731496904556,
images\S8_M_S_01.png,images\S8_M_S_01_scrambled.png,8,sad,-10,male,3,,286,off,1,0.5,0.75,0.5,0.851,3,285,5,1,1,0,0,0,0,3,,,,,,0,17,17,17,,,,,,,,,,,,,,,,,,,,,,,,,,,,,,,,,,,,,,,,,,,,,,,,,,,,,,,,,192.38529859999926,192.89071669999885,192.89071669999885,193.64604079999935,193.64604079999935,194.14866009999878,194.14866009999878,195.0039399999996,195.0039399999996,None,num_6,0.47851489999993646,195.0039399999996,None,sad,1,Sad,195.498222919999,None,None,195.498222919999,None,,,,,,,,,,,,,,,,,,,,,,,,,,,,,,,,,,,,,,,,,,,,,,,,,,,,,13,001,male,23,450,450,2022_Sep_14_1142,Experiment,2021.1.4,359.96731496904556,
images\S8_M_S_01.png,images\S8_M_S_01_scrambled.png,8,sad,-10,male,3,,46,off,1,0.5,0.75,0.5,0.798,3,45,6,2,2,0,0,0,0,3,,,,,,0,18,18,18,,,,,,,,,,,,,,,,,,,,,,,,,,,,,,,,,,,,,,,,,,,,,,,,,,,,,,,,,195.5454295999998,196.05085439999948,196.05085439999948,196.80340720000004,196.80340720000004,197.3060300999996,197.3060300999996,198.10864999999922,198.10864999999922,None,num_4,0.3579864000002999,198.10864999999922,None,happy,1,Sad,198.47508145999944,None,None,198.47508145999944,None,,,,,,,,,,,,,,,,,,,,,,,,,,,,,,,,,,,,,,,,,,,,,,,,,,,,,13,001,male,23,450,450,2022_Sep_14_1142,Experiment,2021.1.4,359.96731496904556,
images\S6_M_H_01.png,images\S6_M_H_01_scrambled.png,6,happy,10,male,4,,511,off,1,0.5,0.75,0.5,0.861,3,510,7,1,1,0,0,0,0,4,,,,,,0,19,19,19,,,,,,,,,,,,,,,,,,,,,,,,,,,,,,,,,,,,,,,,,,,,,,,,,,,,,,,,,198.52517689999968,199.03049240000018,199.03049240000018,199.78581509999913,199.78581509999913,200.28855179999937,200.28855179999937,201.15486659999897,201.15486659999897,None,num_6,0.5437306000003446,201.15486659999897,None,sad,1,Happy,201.70743185999908,None,None,201.70743185999908,None,,,,,,,,,,,,,,,,,,,,,,,,,,,,,,,,,,,,,,,,,,,,,,,,,,,,,13,001,male,23,450,450,2022_Sep_14_1142,Experiment,2021.1.4,359.96731496904556,
images\S8_M_H_01.png,images\S8_M_H_01_scrambled.png,8,happy,10,male,4,,463,on,2,0.5,0.75,0.5,0.805,3,462,1,1,2,2,2,32,128,164,,,,,,0,20,20,20,,,,,,,,,,,,,,,,,,,,,,,,,,,,,,,,,,,,,,,,,,,,,,,,,,,,,,,,,201.75462659999994,202.254471199999,202.254471199999,203.00424139999905,203.00424139999905,203.50970229999893,203.50970229999893,204.3177575999989,204.3177575999989,None,num_4,0.8529951000000437,204.3177575999989,None,happy,1,Happy,205.19813693999984,None,None,205.19813693999984,None,,,,,,,,,,,,,,,,,,,,,,,,,,,,,,,,,,,,,,,,,,,,,,,,,,,,,13,001,male,23,450,450,2022_Sep_14_1142,Experiment,2021.1.4,359.96731496904556,
images\S3_F_S_03.png,images\S3_F_S_03_scrambled.png,3,sad,-30,female,1,,138,off,1,0.5,0.75,0.5,0.855,3,137,1,1,1,0,0,0,0,1,,,,,,0,21,21,21,,,,,,,,,,,,,,,,,,,,,,,,,,,,,,,,,,,,,,,,,,,,,,,,,,,,,,,,,205.25077069999952,205.7506196000004,205.7506196000004,206.50320869999905,206.50320869999905,207.0058158999991,207.0058158999991,207.86394480000035,207.86394480000035,None,num_4,0.31462850000025355,207.86394480000035,None,happy,1,Sad,208.19156574000024,None,None,208.19156574000024,None,,,,,,,,,,,,,,,,,,,,,,,,,,,,,,,,,,,,,,,,,,,,,,,,,,,,,13,001,male,23,450,450,2022_Sep_14_1142,Experiment,2021.1.4,359.96731496904556,
images\S5_F_S_03.png,images\S5_F_S_03_scrambled.png,5,sad,-30,female,1,,210,on,2,0.5,0.75,0.5,0.784,3,209,1,1,2,2,2,32,128,161,,,,,,0,22,22,22,,,,,,,,,,,,,,,,,,,,,,,,,,,,,,,,,,,,,,,,,,,,,,,,,,,,,,,,,208.26096059999963,208.76372150000043,208.76372150000043,209.5161479999997,209.5161479999997,210.01888459999918,210.01888459999918,210.8046659999991,210.8046659999991,None,num_6,0.3582206999999471,210.8046659999991,None,sad,1,Sad,211.1823946800001,None,None,211.1823946800001,None,,,,,,,,,,,,,,,,,,,,,,,,,,,,,,,,,,,,,,,,,,,,,,,,,,,,,13,001,male,23,450,450,2022_Sep_14_1142,Experiment,2021.1.4,359.96731496904556,
images\blank.jpg,images\blank.jpg,none,none,none,none,0,,633,on,2,0.5,0.75,0.5,0.918,0,632,2,1,1,3,3,48,192,240,,,,,,0,23,23,23,,,,,,,,,,,,,,,,,,,,,,,,,,,,,,,,,,,,,,,,,,,,,,,,,,,,,,,,,211.27133989999948,211.77377119999892,211.77377119999892,212.52353409999978,212.52353409999978,213.02905389999887,213.02905389999887,213.95090479999908,213.95090479999908,213.95090479999908,None,,213.95090479999908,None,miss,1,,216.94996857999885,None,None,216.94996857999885,None,,,,,,,,,,,,,,,,,,,,,,,,,,,,,,,,,,,,,,,,,,,,,,,,,,,,,13,001,male,23,450,450,2022_Sep_14_1142,Experiment,2021.1.4,359.96731496904556,
images\S5_F_H_02.png,images\S5_F_H_02_scrambled.png,5,happy,20,female,5,,146,off,1,0.5,0.75,0.5,0.84,3,145,1,1,1,0,0,0,0,5,,,,,,0,24,24,24,,,,,,,,,,,,,,,,,,,,,,,,,,,,,,,,,,,,,,,,,,,,,,,,,,,,,,,,,217.06402230000003,217.5664483999999,217.5664483999999,218.3189952999992,218.3189952999992,218.8244466999995,218.8244466999995,219.66864629999964,219.66864629999964,None,num_4,0.6301292000007379,219.66864629999964,217.06402230000003,happy,1,Happy,220.31281351999988,None,None,220.31281351999988,None,,,,,,,,,,,,,,,,,,,,,,,,,,,,,,,,,,,,,,,,,,,,,,,,,,,,,13,001,male,23,450,450,2022_Sep_14_1142,Experiment,2021.1.4,359.96731496904556,
images\S9_F_H_01.png,images\S9_F_H_01_scrambled.png,9,happy,10,female,4,,49,off,1,0.5,0.75,0.5,0.879,3,48,2,1,1,0,0,0,0,4,,,,,,0,25,25,25,,,,,,,,,,,,,,,,,,,,,,,,,,,,,,,,,,,,,,,,,,,,,,,,,,,,,,,,,220.3600137000003,220.8626359,220.8626359,221.61240520000047,221.61240520000047,222.11502819999896,222.11502819999896,223.00090270000055,223.00090270000055,None,num_4,0.6097045999995316,223.00090270000055,None,happy,1,Happy,223.6256715199992,None,None,223.6256715199992,None,,,,,,,,,,,,,,,,,,,,,,,,,,,,,,,,,,,,,,,,,,,,,,,,,,,,,13,001,male,23,450,450,2022_Sep_14_1142,Experiment,2021.1.4,359.96731496904556,
images\S4_M_H_01.png,images\S4_M_H_01_scrambled.png,4,happy,10,male,4,,319,on,2,0.5,0.75,0.5,0.788,3,318,1,1,2,2,2,32,128,164,,,,,,0,26,26,26,,,,,,,,,,,,,,,,,,,,,,,,,,,,,,,,,,,,,,,,,,,,,,,,,,,,,,,,,223.6729022999998,224.17554979999932,224.17554979999932,224.93085750000046,224.93085750000046,225.43067599999904,225.43067599999904,226.22214299999996,226.22214299999996,None,num_6,0.6444291999996494,226.22214299999996,None,sad,1,Happy,226.87465405999882,None,None,226.87465405999882,None,,,,,,,,,,,,,,,,,,,,,,,,,,,,,,,,,,,,,,,,,,,,,,,,,,,,,13,001,male,23,450,450,2022_Sep_14_1142,Experiment,2021.1.4,359.96731496904556,
images\S3_F_H_01.png,images\S3_F_H_01_scrambled.png,3,happy,10,female,4,,73,on,2,0.5,0.75,0.5,0.768,3,72,2,1,3,2,2,32,128,164,,,,,,0,27,27,27,,,,,,,,,,,,,,,,,,,,,,,,,,,,,,,,,,,,,,,,,,,,,,,,,,,,,,,,,226.9218919999994,227.42456179999954,227.42456179999954,228.1771063999995,228.1771063999995,228.67691060000016,228.67691060000016,229.44900560000042,229.44900560000042,None,num_4,0.4417310999997426,229.44900560000042,None,happy,1,Happy,229.90427971999944,None,None,229.90427971999944,None,,,,,,,,,,,,,,,,,,,,,,,,,,,,,,,,,,,,,,,,,,,,,,,,,,,,,13,001,male,23,450,450,2022_Sep_14_1142,Experiment,2021.1.4,359.96731496904556,
images\S1_F_H_03.png,images\S1_F_H_03_scrambled.png,1,happy,30,female,6,,423,on,2,0.5,0.75,0.5,0.882,3,422,3,1,1,2,2,32,128,166,,,,,,0,28,28,28,,,,,,,,,,,,,,,,,,,,,,,,,,,,,,,,,,,,,,,,,,,,,,,,,,,,,,,,,229.9515068999999,230.45691910000005,230.45691910000005,231.20669009999892,231.20669009999892,231.70937990000039,231.70937990000039,232.59235030000036,232.59235030000036,None,num_4,0.5060752999997931,232.59235030000036,None,happy,1,Happy,233.1116806,None,None,233.1116806,None,,,,,,,,,,,,,,,,,,,,,,,,,,,,,,,,,,,,,,,,,,,,,,,,,,,,,13,001,male,23,450,450,2022_Sep_14_1142,Experiment,2021.1.4,359.96731496904556,
images\S9_F_S_02.png,images\S9_F_S_02_scrambled.png,9,sad,-20,female,2,,533,off,1,0.5,0.75,0.5,0.793,3,532,1,1,1,0,0,0,0,2,,,,,,0,29,29,29,,,,,,,,,,,,,,,,,,,,,,,,,,,,,,,,,,,,,,,,,,,,,,,,,,,,,,,,,233.1588468,233.65871679999964,233.65871679999964,234.41126429999986,234.41126429999986,234.91388180000013,234.91388180000013,235.71085409999887,235.71085409999887,None,num_6,0.6595882999990863,235.71085409999887,None,sad,1,Sad,236.38842671999865,None,None,236.38842671999865,None,,,,,,,,,,,,,,,,,,,,,,,,,,,,,,,,,,,,,,,,,,,,,,,,,,,,,13,001,male,23,450,450,2022_Sep_14_1142,Experiment,2021.1.4,359.96731496904556,
images\S7_F_S_02.png,images\S7_F_S_02_scrambled.png,7,sad,-20,female,2,,101,on,2,0.5,0.75,0.5,0.775,3,100,1,1,2,2,2,32,128,162,,,,,,0,30,30,30,,,,,,,,,,,,,,,,,,,,,,,,,,,,,,,,,,,,,,,,,,,,,,,,,,,,,,,,,236.43562399999882,236.9354670999992,236.9354670999992,237.68523709999954,237.68523709999954,238.18790340000032,238.18790340000032,238.96829519999937,238.96829519999937,None,num_6,0.5701108000012027,238.96829519999937,None,sad,1,Sad,239.5513965,None,None,239.5513965,None,,,,,,,,,,,,,,,,,,,,,,,,,,,,,,,,,,,,,,,,,,,,,,,,,,,,,13,001,male,23,450,450,2022_Sep_14_1142,Experiment,2021.1.4,359.96731496904556,
images\blank.jpg,images\blank.jpg,none,none,none,none,0,,650,on,2,0.5,0.75,0.5,0.941,0,649,2,1,1,3,3,48,192,240,,,,,,0,31,31,31,,,,,,,,,,,,,,,,,,,,,,,,,,,,,,,,,,,,,,,,,,,,,,,,,,,,,,,,,239.63767909999933,240.14007330000004,240.14007330000004,240.89538950000042,240.89538950000042,241.40078970000013,241.40078970000013,242.34219310000026,242.34219310000026,242.34219310000026,None,,242.34219310000026,None,miss,1,,245.3412360799999,None,None,245.3412360799999,None,,,,,,,,,,,,,,,,,,,,,,,,,,,,,,,,,,,,,,,,,,,,,,,,,,,,,13,001,male,23,450,450,2022_Sep_14_1142,Experiment,2021.1.4,359.96731496904556,
images\S7_F_H_01.png,images\S7_F_H_01_scrambled.png,7,happy,10,female,4,,217,on,2,0.5,0.75,0.5,0.829,3,216,3,1,1,2,2,32,128,164,,,,,,0,32,32,32,,,,,,,,,,,,,,,,,,,,,,,,,,,,,,,,,,,,,,,,,,,,,,,,,,,,,,,,,245.45526609999888,245.9577737999998,245.9577737999998,246.7102845999989,246.7102845999989,247.21566970000003,247.21566970000003,248.05151120000028,248.05151120000028,None,num_6,0.4388805000016873,248.05151120000028,245.45526609999888,sad,1,Happy,248.4957994599992,None,None,248.4957994599992,None,,,,,,,,,,,,,,,,,,,,,,,,,,,,,,,,,,,,,,,,,,,,,,,,,,,,,13,001,male,23,450,450,2022_Sep_14_1142,Experiment,2021.1.4,359.96731496904556,
images\S8_M_H_03.png,images\S8_M_H_03_scrambled.png,8,happy,30,male,6,,105,on,2,0.5,0.75,0.5,0.948,3,104,4,1,1,2,2,32,128,166,,,,,,0,33,33,33,,,,,,,,,,,,,,,,,,,,,,,,,,,,,,,,,,,,,,,,,,,,,,,,,,,,,,,,,248.57910659999925,249.08450509999875,249.08450509999875,249.83427299999948,249.83427299999948,250.33974059999946,250.33974059999946,251.28945139999905,251.28945139999905,None,num_4,0.28902600000037637,251.28945139999905,None,happy,1,Happy,251.58929791999927,None,None,251.58929791999927,None,,,,,,,,,,,,,,,,,,,,,,,,,,,,,,,,,,,,,,,,,,,,,,,,,,,,,13,001,male,23,450,450,2022_Sep_14_1142,Experiment,2021.1.4,359.96731496904556,
images\S10_M_S_02.png,images\S10_M_S_02_scrambled.png,10,sad,-20,male,2,,479,on,2,0.5,0.75,0.5,0.799,3,478,5,1,1,2,2,32,128,162,,,,,,0,34,34,34,,,,,,,,,,,,,,,,,,,,,,,,,,,,,,,,,,,,,,,,,,,,,,,,,,,,,,,,,251.67537809999976,252.1808116000002,252.1808116000002,252.93611990000045,252.93611990000045,253.43881020000026,253.43881020000026,254.24128889999974,254.24128889999974,None,num_6,1.5212859000002936,254.24128889999974,None,sad,1,Sad,255.77689471999966,None,None,255.77689471999966,None,,,,,,,,,,,,,,,,,,,,,,,,,,,,,,,,,,,,,,,,,,,,,,,,,,,,,13,001,male,23,450,450,2022_Sep_14_1142,Experiment,2021.1.4,359.96731496904556,
images\S4_M_H_01.png,images\S4_M_H_01_scrambled.png,4,happy,10,male,4,,19,off,1,0.5,0.75,0.5,0.934,3,18,1,1,1,0,0,0,0,4,,,,,,0,35,35,35,,,,,,,,,,,,,,,,,,,,,,,,,,,,,,,,,,,,,,,,,,,,,,,,,,,,,,,,,255.824106699999,256.32673759999943,256.32673759999943,257.0793552999994,257.0793552999994,257.5819055000002,257.5819055000002,258.5177269000005,258.5177269000005,None,num_6,0.3967627000001812,258.5177269000005,None,sad,1,Happy,258.9259401599995,None,None,258.9259401599995,None,,,,,,,,,,,,,,,,,,,,,,,,,,,,,,,,,,,,,,,,,,,,,,,,,,,,,13,001,male,23,450,450,2022_Sep_14_1142,Experiment,2021.1.4,359.96731496904556,
images\S3_F_H_01.png,images\S3_F_H_01_scrambled.png,3,happy,10,female,4,,13,off,1,0.5,0.75,0.5,0.759,3,12,2,1,2,0,0,0,0,4,,,,,,0,36,36,36,,,,,,,,,,,,,,,,,,,,,,,,,,,,,,,,,,,,,,,,,,,,,,,,,,,,,,,,,258.9731447000004,259.47298300000057,259.47298300000057,260.22555269999884,260.22555269999884,260.73095469999953,260.73095469999953,261.4917966999992,261.4917966999992,None,num_6,0.9186030000000756,261.4917966999992,None,sad,1,Happy,262.4192810399998,None,None,262.4192810399998,None,,,,,,,,,,,,,,,,,,,,,,,,,,,,,,,,,,,,,,,,,,,,,,,,,,,,,13,001,male,23,450,450,2022_Sep_14_1142,Experiment,2021.1.4,359.96731496904556,
images\S1_F_H_02.png,images\S1_F_H_02_scrambled.png,1,happy,20,female,5,,242,off,1,0.5,0.75,0.5,0.802,3,241,3,1,1,0,0,0,0,5,,,,,,0,37,37,37,,,,,,,,,,,,,,,,,,,,,,,,,,,,,,,,,,,,,,,,,,,,,,,,,,,,,,,,,262.4887114999992,262.9942072999993,262.9942072999993,263.74949789999937,263.74949789999937,264.2548825999993,264.2548825999993,265.06018889999996,265.06018889999996,None,num_4,0.19036969999979192,265.06018889999996,None,happy,1,Happy,265.2656162199996,None,None,265.2656162199996,None,,,,,,,,,,,,,,,,,,,,,,,,,,,,,,,,,,,,,,,,,,,,,,,,,,,,,13,001,male,23,450,450,2022_Sep_14_1142,Experiment,2021.1.4,359.96731496904556,
images\S7_F_H_03.png,images\S7_F_H_03_scrambled.png,7,happy,30,female,6,,339,on,2,0.5,0.75,0.5,0.942,3,338,1,1,1,2,2,32,128,166,,,,,,0,38,38,38,,,,,,,,,,,,,,,,,,,,,,,,,,,,,,,,,,,,,,,,,,,,,,,,,,,,,,,,,265.37394159999985,265.87655969999923,265.87655969999923,266.6263283999988,266.6263283999988,267.1290963000001,267.1290963000001,268.0732514000001,268.0732514000001,None,num_4,0.48924589999842283,268.0732514000001,None,happy,1,Happy,268.5841302799987,None,None,268.5841302799987,None,,,,,,,,,,,,,,,,,,,,,,,,,,,,,,,,,,,,,,,,,,,,,,,,,,,,,13,001,male,23,450,450,2022_Sep_14_1142,Experiment,2021.1.4,359.96731496904556,
images\S6_M_H_03.png,images\S6_M_H_03_scrambled.png,6,happy,30,male,6,,573,on,2,0.5,0.75,0.5,0.868,3,572,2,1,2,2,2,32,128,166,,,,,,0,39,39,39,,,,,,,,,,,,,,,,,,,,,,,,,,,,,,,,,,,,,,,,,,,,,,,,,,,,,,,,,268.6923650999988,269.19502980000016,269.19502980000016,269.95033669999884,269.95033669999884,270.45297409999966,270.45297409999966,271.32492960000036,271.32492960000036,None,num_4,0.22178250000069966,271.32492960000036,None,happy,1,Happy,271.5693273399991,None,None,271.5693273399991,None,,,,,,,,,,,,,,,,,,,,,,,,,,,,,,,,,,,,,,,,,,,,,,,,,,,,,13,001,male,23,450,450,2022_Sep_14_1142,Experiment,2021.1.4,359.96731496904556,
images\S10_M_S_02.png,images\S10_M_S_02_scrambled.png,10,sad,-20,male,2,,59,off,1,0.5,0.75,0.5,0.81,3,58,1,1,1,0,0,0,0,2,,,,,,0,40,40,40,,,,,,,,,,,,,,,,,,,,,,,,,,,,,,,,,,,,,,,,,,,,,,,,,,,,,,,,,271.6220205999989,272.12470099999973,272.12470099999973,272.87440270000025,272.87440270000025,273.3798502999989,273.3798502999989,274.1962462999991,274.1962462999991,None,num_6,0.5185674000003928,274.1962462999991,None,sad,1,Sad,274.73779305999983,None,None,274.73779305999983,None,,,,,,,,,,,,,,,,,,,,,,,,,,,,,,,,,,,,,,,,,,,,,,,,,,,,,13,001,male,23,450,450,2022_Sep_14_1142,Experiment,2021.1.4,359.96731496904556,
images\S5_F_H_02.png,images\S5_F_H_02_scrambled.png,5,happy,20,female,5,,326,on,2,0.5,0.75,0.5,0.894,3,325,1,1,1,2,2,32,128,165,,,,,,0,41,41,41,,,,,,,,,,,,,,,,,,,,,,,,,,,,,,,,,,,,,,,,,,,,,,,,,,,,,,,,,274.8043767999998,275.30423040000005,275.30423040000005,276.05400800000007,276.05400800000007,276.55654419999973,276.55654419999973,277.4536842999996,277.4536842999996,None,None,,277.4536842999996,None,miss,1,Happy,280.4582008799995,None,None,280.4582008799995,None,,,,,,,,,,,,,,,,,,,,,,,,,,,,,,,,,,,,,,,,,,,,,,,,,,,,,13,001,male,23,450,450,2022_Sep_14_1142,Experiment,2021.1.4,359.96731496904556,
images\S8_M_S_02.png,images\S8_M_S_02_scrambled.png,8,sad,-20,male,2,,527,off,1,0.5,0.75,0.5,0.836,3,526,1,1,1,0,0,0,0,2,,,,,,0,42,42,42,,,,,,,,,,,,,,,,,,,,,,,,,,,,,,,,,,,,,,,,,,,,,,,,,,,,,,,,,280.5414955999995,281.04414129999986,281.04414129999986,281.79667380000046,281.79667380000046,282.29936969999926,282.29936969999926,283.1379315999993,283.1379315999993,280.5414955999995,num_6,0.5125517999986187,283.1379315999993,280.5414955999995,sad,1,Sad,283.66552231999907,None,None,283.66552231999907,None,,,,,,,,,,,,,,,,,,,,,,,,,,,,,,,,,,,,,,,,,,,,,,,,,,,,,13,001,male,23,450,450,2022_Sep_14_1142,Experiment,2021.1.4,359.96731496904556,
images\S4_M_S_03.png,images\S4_M_S_03_scrambled.png,4,sad,-30,male,1,,444,on,2,0.5,0.75,0.5,0.848,3,443,1,1,1,2,2,32,128,161,,,,,,0,43,43,43,,,,,,,,,,,,,,,,,,,,,,,,,,,,,,,,,,,,,,,,,,,,,,,,,,,,,,,,,283.7516263999996,284.25432660000024,284.25432660000024,285.00678309999876,285.00678309999876,285.5094698999992,285.5094698999992,286.36476180000045,286.36476180000045,None,num_6,0.17394590000003518,286.36476180000045,None,sad,1,Sad,286.55912557999966,None,None,286.55912557999966,None,,,,,,,,,,,,,,,,,,,,,,,,,,,,,,,,,,,,,,,,,,,,,,,,,,,,,13,001,male,23,450,450,2022_Sep_14_1142,Experiment,2021.1.4,359.96731496904556,
images\S9_F_S_02.png,images\S9_F_S_02_scrambled.png,9,sad,-20,female,2,,473,on,2,0.5,0.75,0.5,0.932,3,472,2,1,1,2,2,32,128,162,,,,,,0,44,44,44,,,,,,,,,,,,,,,,,,,,,,,,,,,,,,,,,,,,,,,,,,,,,,,,,,,,,,,,,286.60921700000017,287.10893959999976,287.10893959999976,287.86433599999964,287.86433599999964,288.3641097999998,288.3641097999998,289.2999196999999,289.2999196999999,None,num_6,0.3185923000000912,289.2999196999999,None,sad,1,Sad,289.63875239999925,None,None,289.63875239999925,None,,,,,,,,,,,,,,,,,,,,,,,,,,,,,,,,,,,,,,,,,,,,,,,,,,,,,13,001,male,23,450,450,2022_Sep_14_1142,Experiment,2021.1.4,359.96731496904556,
images\S2_M_S_03.png,images\S2_M_S_03_scrambled.png,2,sad,-30,male,1,,552,on,2,0.5,0.75,0.5,0.782,3,551,3,1,1,2,2,32,128,161,,,,,,0,45,45,45,,,,,,,,,,,,,,,,,,,,,,,,,,,,,,,,,,,,,,,,,,,,,,,,,,,,,,,,,289.70256739999877,290.2052345000002,290.2052345000002,290.9549598000003,290.9549598000003,291.4576268999999,291.4576268999999,292.2435723999997,292.2435723999997,None,num_4,0.31913840000015625,292.2435723999997,None,happy,1,Sad,292.57111785999973,None,None,292.57111785999973,None,,,,,,,,,,,,,,,,,,,,,,,,,,,,,,,,,,,,,,,,,,,,,,,,,,,,,13,001,male,23,450,450,2022_Sep_14_1142,Experiment,2021.1.4,359.96731496904556,
images\S6_M_H_03.png,images\S6_M_H_03_scrambled.png,6,happy,30,male,6,,453,on,2,0.5,0.75,0.5,0.878,3,452,4,1,1,2,2,32,128,166,,,,,,0,46,46,46,,,,,,,,,,,,,,,,,,,,,,,,,,,,,,,,,,,,,,,,,,,,,,,,,,,,,,,,,292.6155611999993,293.1209809000002,293.1209809000002,293.8763025999988,293.8763025999988,294.3790390999993,294.3790390999993,295.25640329999896,295.25640329999896,None,num_4,0.2983062000002974,295.25640329999896,None,happy,1,Happy,295.57304459999887,None,None,295.57304459999887,None,,,,,,,,,,,,,,,,,,,,,,,,,,,,,,,,,,,,,,,,,,,,,,,,,,,,,13,001,male,23,450,450,2022_Sep_14_1142,Experiment,2021.1.4,359.96731496904556,
images\S10_M_S_02.png,images\S10_M_S_02_scrambled.png,10,sad,-20,male,2,,599,on,2,0.5,0.75,0.5,0.822,3,598,5,1,1,2,2,32,128,162,,,,,,0,47,47,47,,,,,,,,,,,,,,,,,,,,,,,,,,,,,,,,,,,,,,,,,,,,,,,,,,,,,,,,,295.622970899999,296.1255874999997,296.1255874999997,296.87827430000016,296.87827430000016,297.38355879999926,297.38355879999926,298.20827199999894,298.20827199999894,None,num_6,0.4340439999996306,298.20827199999894,None,sad,1,Sad,298.6581461199998,None,None,298.6581461199998,None,,,,,,,,,,,,,,,,,,,,,,,,,,,,,,,,,,,,,,,,,,,,,,,,,,,,,13,001,male,23,450,450,2022_Sep_14_1142,Experiment,2021.1.4,359.96731496904556,
images\S6_M_H_02.png,images\S6_M_H_02_scrambled.png,6,happy,20,male,5,,512,off,1,0.5,0.75,0.5,0.938,3,511,1,1,1,0,0,0,0,5,,,,,,0,48,48,48,,,,,,,,,,,,,,,,,,,,,,,,,,,,,,,,,,,,,,,,,,,,,,,,,,,,,,,,,298.74145430000044,299.24415060000047,299.24415060000047,299.99944849999974,299.99944849999974,300.5048407000004,300.5048407000004,301.44619279999915,301.44619279999915,None,num_4,0.44421839999995427,301.44619279999915,None,happy,1,Happy,301.9071659199994,None,None,301.9071659199994,None,,,,,,,,,,,,,,,,,,,,,,,,,,,,,,,,,,,,,,,,,,,,,,,,,,,,,13,001,male,23,450,450,2022_Sep_14_1142,Experiment,2021.1.4,359.96731496904556,
images\S6_M_S_03.png,images\S6_M_S_03_scrambled.png,6,sad,-30,male,1,,516,off,1,0.5,0.75,0.5,0.784,3,515,2,2,1,0,0,0,0,1,,,,,,0,49,49,49,,,,,,,,,,,,,,,,,,,,,,,,,,,,,,,,,,,,,,,,,,,,,,,,,,,,,,,,,301.9960186999988,302.49876949999907,302.49876949999907,303.24838999999974,303.24838999999974,303.75103819999913,303.75103819999913,304.53972689999955,304.53972689999955,None,num_4,0.09500979999938863,304.53972689999955,None,happy,1,Sad,304.6452840399996,None,None,304.6452840399996,None,,,,,,,,,,,,,,,,,,,,,,,,,,,,,,,,,,,,,,,,,,,,,,,,,,,,,13,001,male,23,450,450,2022_Sep_14_1142,Experiment,2021.1.4,359.96731496904556,
images\S1_F_H_01.png,images\S1_F_H_01_scrambled.png,1,happy,10,female,4,,241,off,1,0.5,0.75,0.5,0.882,3,240,3,1,1,0,0,0,0,4,,,,,,0,50,50,50,,,,,,,,,,,,,,,,,,,,,,,,,,,,,,,,,,,,,,,,,,,,,,,,,,,,,,,,,304.70905910000056,305.2116904000004,305.2116904000004,305.9643258999995,305.9643258999995,306.4667920999991,306.4667920999991,307.3554945999995,307.3554945999995,None,num_6,0.5109028000006219,307.3554945999995,None,sad,1,Happy,307.8747824599998,None,None,307.8747824599998,None,,,,,,,,,,,,,,,,,,,,,,,,,,,,,,,,,,,,,,,,,,,,,,,,,,,,,13,001,male,23,450,450,2022_Sep_14_1142,Experiment,2021.1.4,359.96731496904556,
images\S1_F_S_01.png,images\S1_F_S_01_scrambled.png,1,sad,-10,female,3,,544,on,2,0.5,0.75,0.5,0.916,3,543,1,2,1,2,2,32,128,163,,,,,,0,51,51,51,,,,,,,,,,,,,,,,,,,,,,,,,,,,,,,,,,,,,,,,,,,,,,,,,,,,,,,,,307.98584260000007,308.4885418999993,308.4885418999993,309.2410188999993,309.2410188999993,309.7436367,309.7436367,310.66559179999877,310.66559179999877,None,num_6,0.47281590000056894,310.66559179999877,None,sad,1,Sad,311.1515403199987,None,None,311.1515403199987,None,,,,,,,,,,,,,,,,,,,,,,,,,,,,,,,,,,,,,,,,,,,,,,,,,,,,,13,001,male,23,450,450,2022_Sep_14_1142,Experiment,2021.1.4,359.96731496904556,
images\S5_F_S_02.png,images\S5_F_S_02_scrambled.png,5,sad,-20,female,2,,89,on,2,0.5,0.75,0.5,0.769,3,88,2,1,1,2,2,32,128,162,,,,,,0,52,52,52,,,,,,,,,,,,,,,,,,,,,,,,,,,,,,,,,,,,,,,,,,,,,,,,,,,,,,,,,311.2376135000004,311.74027060000026,311.74027060000026,312.49000609999985,312.49000609999985,312.992661199999,312.992661199999,313.7646058,313.7646058,None,num_4,0.29378339999857417,313.7646058,None,happy,1,Sad,314.06730665999953,None,None,314.06730665999953,None,,,,,,,,,,,,,,,,,,,,,,,,,,,,,,,,,,,,,,,,,,,,,,,,,,,,,13,001,male,23,450,450,2022_Sep_14_1142,Experiment,2021.1.4,359.96731496904556,
images\S6_M_H_01.png,images\S6_M_H_01_scrambled.png,6,happy,10,male,4,,451,on,2,0.5,0.75,0.5,0.823,3,450,3,1,1,2,2,32,128,164,,,,,,0,53,53,53,,,,,,,,,,,,,,,,,,,,,,,,,,,,,,,,,,,,,,,,,,,,,,,,,,,,,,,,,314.12005319999935,314.62548369999877,314.62548369999877,315.38080629999877,315.38080629999877,315.8861931000001,315.8861931000001,316.71383739999965,316.71383739999965,None,num_4,0.20880319999923813,316.71383739999965,None,happy,1,Happy,316.955397499999,None,None,316.955397499999,None,,,,,,,,,,,,,,,,,,,,,,,,,,,,,,,,,,,,,,,,,,,,,,,,,,,,,13,001,male,23,450,450,2022_Sep_14_1142,Experiment,2021.1.4,359.96731496904556,
images\S6_M_S_01.png,images\S6_M_S_01_scrambled.png,6,sad,-10,male,3,,34,off,1,0.5,0.75,0.5,0.812,3,33,1,2,1,0,0,0,0,3,,,,,,0,54,54,54,,,,,,,,,,,,,,,,,,,,,,,,,,,,,,,,,,,,,,,,,,,,,,,,,,,,,,,,,317.06637259999934,317.569113999999,317.569113999999,318.32437630000004,318.32437630000004,318.8241793999996,318.8241793999996,319.64060770000015,319.64060770000015,None,num_6,0.2897742000004655,319.64060770000015,None,sad,1,Sad,319.95989689999897,None,None,319.95989689999897,None,,,,,,,,,,,,,,,,,,,,,,,,,,,,,,,,,,,,,,,,,,,,,,,,,,,,,13,001,male,23,450,450,2022_Sep_14_1142,Experiment,2021.1.4,359.96731496904556,
images\S6_M_S_02.png,images\S6_M_S_02_scrambled.png,6,sad,-20,male,2,,275,off,1,0.5,0.75,0.5,0.814,3,274,2,3,1,0,0,0,0,2,,,,,,0,55,55,55,,,,,,,,,,,,,,,,,,,,,,,,,,,,,,,,,,,,,,,,,,,,,,,,,,,,,,,,,320.0487896000004,320.5542782000002,320.5542782000002,321.30395229999976,321.30395229999976,321.8065751999993,321.8065751999993,322.6257956999989,322.6257956999989,None,num_4,0.4486722000001464,322.6257956999989,None,happy,1,Sad,323.0812014599999,None,None,323.0812014599999,None,,,,,,,,,,,,,,,,,,,,,,,,,,,,,,,,,,,,,,,,,,,,,,,,,,,,,13,001,male,23,450,450,2022_Sep_14_1142,Experiment,2021.1.4,359.96731496904556,
images\S5_F_H_01.png,images\S5_F_H_01_scrambled.png,5,happy,10,female,4,,565,on,2,0.5,0.75,0.5,0.773,3,564,1,1,1,2,2,32,128,164,,,,,,0,56,56,56,,,,,,,,,,,,,,,,,,,,,,,,,,,,,,,,,,,,,,,,,,,,,,,,,,,,,,,,,323.19503729999906,323.69780999999875,323.69780999999875,324.4502067000003,324.4502067000003,324.95297110000047,324.95297110000047,325.7303774000002,325.7303774000002,None,num_6,2.6640938999989885,325.7303774000002,None,sad,1,Happy,328.40174585999944,None,None,328.40174585999944,None,,,,,,,,,,,,,,,,,,,,,,,,,,,,,,,,,,,,,,,,,,,,,,,,,,,,,13,001,male,23,450,450,2022_Sep_14_1142,Experiment,2021.1.4,359.96731496904556,
images\S6_M_S_03.png,images\S6_M_S_03_scrambled.png,6,sad,-30,male,1,,276,off,1,0.5,0.75,0.5,0.826,3,275,1,1,1,0,0,0,0,1,,,,,,0,57,57,57,,,,,,,,,,,,,,,,,,,,,,,,,,,,,,,,,,,,,,,,,,,,,,,,,,,,,,,,,328.44898120000016,328.9544245999996,328.9544245999996,329.7069784999994,329.7069784999994,330.2095576999991,330.2095576999991,331.03988879999906,331.03988879999906,None,num_6,0.5070032999992691,331.03988879999906,None,sad,1,Sad,331.5675625800001,None,None,331.5675625800001,None,,,,,,,,,,,,,,,,,,,,,,,,,,,,,,,,,,,,,,,,,,,,,,,,,,,,,13,001,male,23,450,450,2022_Sep_14_1142,Experiment,2021.1.4,359.96731496904556,
images\S1_F_H_03.png,images\S1_F_H_03_scrambled.png,1,happy,30,female,6,,183,on,2,0.5,0.75,0.5,0.781,3,182,1,1,1,2,2,32,128,166,,,,,,0,58,58,58,,,,,,,,,,,,,,,,,,,,,,,,,,,,,,,,,,,,,,,,,,,,,,,,,,,,,,,,,331.62021939999886,332.12564139999904,332.12564139999904,332.8783238999995,332.8783238999995,333.3836999999994,333.3836999999994,334.1694809999999,334.1694809999999,None,num_6,0.5048753999999462,334.1694809999999,None,sad,1,Happy,334.6831886599996,None,None,334.6831886599996,None,,,,,,,,,,,,,,,,,,,,,,,,,,,,,,,,,,,,,,,,,,,,,,,,,,,,,13,001,male,23,450,450,2022_Sep_14_1142,Experiment,2021.1.4,359.96731496904556,
images\S7_F_H_03.png,images\S7_F_H_03_scrambled.png,7,happy,30,female,6,,99,on,2,0.5,0.75,0.5,0.813,3,98,2,1,2,2,2,32,128,166,,,,,,0,59,59,59,,,,,,,,,,,,,,,,,,,,,,,,,,,,,,,,,,,,,,,,,,,,,,,,,,,,,,,,,334.73316539999996,335.23297139999977,335.23297139999977,335.9828152,335.9828152,336.4854368999995,336.4854368999995,337.3018112,337.3018112,None,num_4,0.21292460000040592,337.3018112,None,happy,1,Happy,337.5379601399998,None,None,337.5379601399998,None,,,,,,,,,,,,,,,,,,,,,,,,,,,,,,,,,,,,,,,,,,,,,,,,,,,,,13,001,male,23,450,450,2022_Sep_14_1142,Experiment,2021.1.4,359.96731496904556,
images\S7_F_H_02.png,images\S7_F_H_02_scrambled.png,7,happy,20,female,5,,218,on,2,0.5,0.75,0.5,0.947,3,217,3,2,1,2,2,32,128,165,,,,,,0,60,60,60,,,,,,,,,,,,,,,,,,,,,,,,,,,,,,,,,,,,,,,,,,,,,,,,,,,,,,,,,337.6461484999991,338.15156300000035,338.15156300000035,338.90417849999994,338.90417849999994,339.40953569999965,339.40953569999965,340.36199380000016,340.36199380000016,None,num_4,0.5125310999992507,340.36199380000016,None,happy,1,Happy,340.8895695200003,None,None,340.8895695200003,None,,,,,,,,,,,,,,,,,,,,,,,,,,,,,,,,,,,,,,,,,,,,,,,,,,,,,13,001,male,23,450,450,2022_Sep_14_1142,Experiment,2021.1.4,359.96731496904556,
images\blank.jpg,images\blank.jpg,none,none,none,none,0,,604,on,2,0.5,0.75,0.5,0.878,0,603,4,1,1,3,3,48,192,240,,,,,,0,61,61,61,,,,,,,,,,,,,,,,,,,,,,,,,,,,,,,,,,,,,,,,,,,,,,,,,,,,,,,,,340.97314110000025,341.4727498000002,341.4727498000002,342.22255379999933,342.22255379999933,342.72237159999986,342.72237159999986,343.5999074000001,343.5999074000001,343.5999074000001,None,,343.5999074000001,None,miss,1,,346.60172318000025,None,None,346.60172318000025,None,,,,,,,,,,,,,,,,,,,,,,,,,,,,,,,,,,,,,,,,,,,,,,,,,,,,,13,001,male,23,450,450,2022_Sep_14_1142,Experiment,2021.1.4,359.96731496904556,
images\S6_M_H_03.png,images\S6_M_H_03_scrambled.png,6,happy,30,male,6,,213,on,2,0.5,0.75,0.5,0.896,3,212,5,1,1,2,2,32,128,166,,,,,,0,62,62,62,,,,,,,,,,,,,,,,,,,,,,,,,,,,,,,,,,,,,,,,,,,,,,,,,,,,,,,,,346.7158195000002,347.2154366999994,347.2154366999994,347.96797269999934,347.96797269999934,348.4705910999992,348.4705910999992,349.3703185000004,349.3703185000004,None,num_4,0.3761023999995814,349.3703185000004,346.7158195000002,happy,1,Happy,349.77575819999856,None,None,349.77575819999856,None,,,,,,,,,,,,,,,,,,,,,,,,,,,,,,,,,,,,,,,,,,,,,,,,,,,,,13,001,male,23,450,450,2022_Sep_14_1142,Experiment,2021.1.4,359.96731496904556,
images\S6_M_S_02.png,images\S6_M_S_02_scrambled.png,6,sad,-20,male,2,,35,off,1,0.5,0.75,0.5,0.914,3,34,1,2,1,0,0,0,0,2,,,,,,0,63,63,63,,,,,,,,,,,,,,,,,,,,,,,,,,,,,,,,,,,,,,,,,,,,,,,,,,,,,,,,,349.82852509999884,350.3283552999992,350.3283552999992,351.0838116999994,351.0838116999994,351.5863234999988,351.5863234999988,352.50549109999974,352.50549109999974,None,num_6,0.5931182999993325,352.50549109999974,None,sad,1,Sad,353.1248007399989,None,None,353.1248007399989,None,,,,,,,,,,,,,,,,,,,,,,,,,,,,,,,,,,,,,,,,,,,,,,,,,,,,,13,001,male,23,450,450,2022_Sep_14_1142,Experiment,2021.1.4,359.96731496904556,
images\S10_M_S_02.png,images\S10_M_S_02_scrambled.png,10,sad,-20,male,2,,119,on,2,0.5,0.75,0.5,0.901,3,118,1,1,2,2,2,32,128,162,,,,,,0,64,64,64,,,,,,,,,,,,,,,,,,,,,,,,,,,,,,,,,,,,,,,,,,,,,,,,,,,,,,,,,353.1747035999988,353.6801334999991,353.6801334999991,354.4354381999992,354.4354381999992,354.9352640999996,354.9352640999996,355.84057519999897,355.84057519999897,None,num_4,0.07416250000096625,355.84057519999897,None,happy,1,Sad,355.9238527399992,None,None,355.9238527399992,None,,,,,,,,,,,,,,,,,,,,,,,,,,,,,,,,,,,,,,,,,,,,,,,,,,,,,13,001,male,23,450,450,2022_Sep_14_1142,Experiment,2021.1.4,359.96731496904556,
images\S10_M_S_01.png,images\S10_M_S_01_scrambled.png,10,sad,-10,male,3,,598,on,2,0.5,0.75,0.5,0.933,3,597,2,2,1,2,2,32,128,163,,,,,,0,65,65,65,,,,,,,,,,,,,,,,,,,,,,,,,,,,,,,,,,,,,,,,,,,,,,,,,,,,,,,,,355.9849525999989,356.49037749999934,356.49037749999934,357.2401246999989,357.2401246999989,357.73989879999954,357.73989879999954,358.6785998999994,358.6785998999994,None,num_4,2.3316776000010577,358.6785998999994,None,happy,1,Sad,361.0195003600004,None,None,361.0195003600004,None,,,,,,,,,,,,,,,,,,,,,,,,,,,,,,,,,,,,,,,,,,,,,,,,,,,,,13,001,male,23,450,450,2022_Sep_14_1142,Experiment,2021.1.4,359.96731496904556,
images\S1_F_S_03.png,images\S1_F_S_03_scrambled.png,1,sad,-30,female,1,,126,off,1,0.5,0.75,0.5,0.766,3,125,1,1,1,0,0,0,0,1,,,,,,0,66,66,66,,,,,,,,,,,,,,,,,,,,,,,,,,,,,,,,,,,,,,,,,,,,,,,,,,,,,,,,,361.1028273999991,361.602674499999,361.602674499999,362.35528669999894,362.35528669999894,362.86066180000034,362.86066180000034,363.62993860000006,363.62993860000006,None,num_6,0.6284622000002855,363.62993860000006,None,sad,1,Sad,364.26853502000034,None,None,364.26853502000034,None,,,,,,,,,,,,,,,,,,,,,,,,,,,,,,,,,,,,,,,,,,,,,,,,,,,,,13,001,male,23,450,450,2022_Sep_14_1142,Experiment,2021.1.4,359.96731496904556,
images\blank.jpg,images\blank.jpg,none,none,none,none,0,,603,on,2,0.5,0.75,0.5,0.94,0,602,1,1,1,3,3,48,192,240,,,,,,0,67,67,67,,,,,,,,,,,,,,,,,,,,,,,,,,,,,,,,,,,,,,,,,,,,,,,,,,,,,,,,,364.35207960000025,364.85452669999995,364.85452669999995,365.60991209999975,365.60991209999975,366.10963150000043,366.10963150000043,367.0509766999994,367.0509766999994,367.0509766999994,None,,367.0509766999994,None,miss,1,,370.0556913599996,None,None,370.0556913599996,None,,,,,,,,,,,,,,,,,,,,,,,,,,,,,,,,,,,,,,,,,,,,,,,,,,,,,13,001,male,23,450,450,2022_Sep_14_1142,Experiment,2021.1.4,359.96731496904556,
images\S8_M_H_03.png,images\S8_M_H_03_scrambled.png,8,happy,30,male,6,,285,off,1,0.5,0.75,0.5,0.905,3,284,1,1,1,0,0,0,0,6,,,,,,0,68,68,68,,,,,,,,,,,,,,,,,,,,,,,,,,,,,,,,,,,,,,,,,,,,,,,,,,,,,,,,,370.1780802000003,370.6804216999999,370.6804216999999,371.43579919999956,371.43579919999956,371.9384115999992,371.9384115999992,372.8464581999988,372.8464581999988,None,num_4,0.4839995000002091,372.8464581999988,370.1780802000003,happy,1,Happy,373.3434813199996,None,None,373.3434813199996,None,,,,,,,,,,,,,,,,,,,,,,,,,,,,,,,,,,,,,,,,,,,,,,,,,,,,,13,001,male,23,450,450,2022_Sep_14_1142,Experiment,2021.1.4,359.96731496904556,
images\S3_F_S_03.png,images\S3_F_S_03_scrambled.png,3,sad,-30,female,1,,18,off,1,0.5,0.75,0.5,0.753,3,17,2,1,1,0,0,0,0,1,,,,,,0,69,69,69,,,,,,,,,,,,,,,,,,,,,,,,,,,,,,,,,,,,,,,,,,,,,,,,,,,,,,,,,373.3907057999995,373.8961439000004,373.8961439000004,374.64864279999983,374.64864279999983,375.15418099999897,375.15418099999897,375.9093934000002,375.9093934000002,None,num_6,0.6370442999996158,375.9093934000002,None,sad,1,Sad,376.55642312000003,None,None,376.55642312000003,None,,,,,,,,,,,,,,,,,,,,,,,,,,,,,,,,,,,,,,,,,,,,,,,,,,,,,13,001,male,23,450,450,2022_Sep_14_1142,Experiment,2021.1.4,359.96731496904556,
images\S3_F_H_02.png,images\S3_F_H_02_scrambled.png,3,happy,20,female,5,,134,off,1,0.5,0.75,0.5,0.947,3,133,3,2,1,0,0,0,0,5,,,,,,0,70,70,70,,,,,,,,,,,,,,,,,,,,,,,,,,,,,,,,,,,,,,,,,,,,,,,,,,,,,,,,,376.63692809999975,377.142336599999,377.142336599999,377.8950173000003,377.8950173000003,378.39474380000047,378.39474380000047,379.3445615999999,379.3445615999999,None,num_4,0.7377802999999403,379.3445615999999,None,happy,1,Happy,380.108098619999,None,None,380.108098619999,None,,,,,,,,,,,,,,,,,,,,,,,,,,,,,,,,,,,,,,,,,,,,,,,,,,,,,13,001,male,23,450,450,2022_Sep_14_1142,Experiment,2021.1.4,359.96731496904556,
images\S3_F_H_01.png,images\S3_F_H_01_scrambled.png,3,happy,10,female,4,,253,off,1,0.5,0.75,0.5,0.776,3,252,4,3,1,0,0,0,0,4,,,,,,0,71,71,71,,,,,,,,,,,,,,,,,,,,,,,,,,,,,,,,,,,,,,,,,,,,,,,,,,,,,,,,,380.1691194999994,380.67181810000056,380.67181810000056,381.4244845000003,381.4244845000003,381.92698850000033,381.92698850000033,382.70450230000006,382.70450230000006,None,num_6,1.2419040000004316,382.70450230000006,None,sad,1,Happy,383.9513577599994,None,None,383.9513577599994,None,,,,,,,,,,,,,,,,,,,,,,,,,,,,,,,,,,,,,,,,,,,,,,,,,,,,,13,001,male,23,450,450,2022_Sep_14_1142,Experiment,2021.1.4,359.96731496904556,
images\S10_M_S_03.png,images\S10_M_S_03_scrambled.png,10,sad,-30,male,1,,600,on,2,0.5,0.75,0.5,0.911,3,599,1,1,1,2,2,32,128,161,,,,,,0,72,72,72,,,,,,,,,,,,,,,,,,,,,,,,,,,,,,,,,,,,,,,,,,,,,,,,,,,,,,,,,384.0346543000005,384.53450149999935,384.53450149999935,385.2842910999998,385.2842910999998,385.78979530000015,385.78979530000015,386.7032776999995,386.7032776999995,None,num_6,0.18725040000026638,386.7032776999995,None,sad,1,Sad,386.90599982000043,None,None,386.90599982000043,None,,,,,,,,,,,,,,,,,,,,,,,,,,,,,,,,,,,,,,,,,,,,,,,,,,,,,13,001,male,23,450,450,2022_Sep_14_1142,Experiment,2021.1.4,359.96731496904556,
images\S4_M_S_02.png,images\S4_M_S_02_scrambled.png,4,sad,-20,male,2,,503,off,1,0.5,0.75,0.5,0.914,3,502,1,1,1,0,0,0,0,2,,,,,,0,73,73,73,,,,,,,,,,,,,,,,,,,,,,,,,,,,,,,,,,,,,,,,,,,,,,,,,,,,,,,,,386.9726406,387.47804879999876,387.47804879999876,388.2306295999997,388.2306295999997,388.7332636000001,388.7332636000001,389.6497215999998,389.6497215999998,None,num_6,0.20873279999977967,389.6497215999998,None,sad,1,Sad,389.88569633999924,None,None,389.88569633999924,None,,,,,,,,,,,,,,,,,,,,,,,,,,,,,,,,,,,,,,,,,,,,,,,,,,,,,13,001,male,23,450,450,2022_Sep_14_1142,Experiment,2021.1.4,359.96731496904556,
images\S2_M_H_01.png,images\S2_M_H_01_scrambled.png,2,happy,10,male,4,,187,on,2,0.5,0.75,0.5,0.927,3,186,1,1,1,2,2,32,128,164,,,,,,0,74,74,74,,,,,,,,,,,,,,,,,,,,,,,,,,,,,,,,,,,,,,,,,,,,,,,,,,,,,,,,,389.9550556000004,390.4605117000001,390.4605117000001,391.21581239999887,391.21581239999887,391.72121439999955,391.72121439999955,392.65144210000017,392.65144210000017,None,num_4,0.3750004000012268,392.65144210000017,None,happy,1,Happy,393.0485785399995,None,None,393.0485785399995,None,,,,,,,,,,,,,,,,,,,,,,,,,,,,,,,,,,,,,,,,,,,,,,,,,,,,,13,001,male,23,450,450,2022_Sep_14_1142,Experiment,2021.1.4,359.96731496904556,
images\S7_F_S_01.png,images\S7_F_S_01_scrambled.png,7,sad,-10,female,3,,340,on,2,0.5,0.75,0.5,0.923,3,339,2,1,1,2,2,32,128,163,,,,,,0,75,75,75,,,,,,,,,,,,,,,,,,,,,,,,,,,,,,,,,,,,,,,,,,,,,,,,,,,,,,,,,393.10963899999933,393.6151824999988,393.6151824999988,394.3675797999995,394.3675797999995,394.87028609999925,394.87028609999925,395.7977020999997,395.7977020999997,None,num_6,0.9330693000010797,395.7977020999997,None,sad,1,Sad,396.7530830599992,None,None,396.7530830599992,None,,,,,,,,,,,,,,,,,,,,,,,,,,,,,,,,,,,,,,,,,,,,,,,,,,,,,13,001,male,23,450,450,2022_Sep_14_1142,Experiment,2021.1.4,359.96731496904556,
images\S9_F_H_01.png,images\S9_F_H_01_scrambled.png,9,happy,10,female,4,,529,off,1,0.5,0.75,0.5,0.82,3,528,1,1,1,0,0,0,0,4,,,,,,0,76,76,76,,,,,,,,,,,,,,,,,,,,,,,,,,,,,,,,,,,,,,,,,,,,,,,,,,,,,,,,,396.8084981000002,397.31115260000024,397.31115260000024,398.06371449999915,398.06371449999915,398.56631669999933,398.56631669999933,399.3910762000005,399.3910762000005,None,num_4,0.3876961999994819,399.3910762000005,None,happy,1,Happy,399.79661627999906,None,None,399.79661627999906,None,,,,,,,,,,,,,,,,,,,,,,,,,,,,,,,,,,,,,,,,,,,,,,,,,,,,,13,001,male,23,450,450,2022_Sep_14_1142,Experiment,2021.1.4,359.96731496904556,
images\S7_F_S_01.png,images\S7_F_S_01_scrambled.png,7,sad,-10,female,3,,100,on,2,0.5,0.75,0.5,0.86,3,99,1,1,1,2,2,32,128,163,,,,,,0,77,77,77,,,,,,,,,,,,,,,,,,,,,,,,,,,,,,,,,,,,,,,,,,,,,,,,,,,,,,,,,399.8492321999993,400.35184539999955,400.35184539999955,401.10440949999884,401.10440949999884,401.6099330999996,401.6099330999996,402.47623809999914,402.47623809999914,None,num_6,0.7182025000001886,402.47623809999914,None,sad,1,Sad,403.2092953200003,None,None,403.2092953200003,None,,,,,,,,,,,,,,,,,,,,,,,,,,,,,,,,,,,,,,,,,,,,,,,,,,,,,13,001,male,23,450,450,2022_Sep_14_1142,Experiment,2021.1.4,359.96731496904556,
images\S2_M_H_03.png,images\S2_M_H_03_scrambled.png,2,happy,30,male,6,,369,off,1,0.5,0.75,0.5,0.85,3,368,1,1,1,0,0,0,0,6,,,,,,0,78,78,78,,,,,,,,,,,,,,,,,,,,,,,,,,,,,,,,,,,,,,,,,,,,,,,,,,,,,,,,,403.29540199999883,403.7952369000004,403.7952369000004,404.5450074999999,404.5450074999999,405.0448686999998,405.0448686999998,405.90022489999956,405.90022489999956,None,num_4,0.43840280000040366,405.90022489999956,None,happy,1,Happy,406.352763119999,None,None,406.352763119999,None,,,,,,,,,,,,,,,,,,,,,,,,,,,,,,,,,,,,,,,,,,,,,,,,,,,,,13,001,male,23,450,450,2022_Sep_14_1142,Experiment,2021.1.4,359.96731496904556,
images\S2_M_S_03.png,images\S2_M_S_03_scrambled.png,2,sad,-30,male,1,,312,on,2,0.5,0.75,0.5,0.95,3,311,1,2,1,2,2,32,128,161,,,,,,0,79,79,79,,,,,,,,,,,,,,,,,,,,,,,,,,,,,,,,,,,,,,,,,,,,,,,,,,,,,,,,,406.4000066999988,406.90261329999976,406.90261329999976,407.65239960000054,407.65239960000054,408.1550975,408.1550975,409.11032570000043,409.11032570000043,None,num_4,0.4839100999997754,409.11032570000043,None,happy,1,Sad,409.6018077600004,None,None,409.6018077600004,None,,,,,,,,,,,,,,,,,,,,,,,,,,,,,,,,,,,,,,,,,,,,,,,,,,,,,13,001,male,23,450,450,2022_Sep_14_1142,Experiment,2021.1.4,359.96731496904556,
images\S8_M_S_01.png,images\S8_M_S_01_scrambled.png,8,sad,-10,male,3,,346,on,2,0.5,0.75,0.5,0.773,3,345,2,1,1,2,2,32,128,163,,,,,,0,80,80,80,,,,,,,,,,,,,,,,,,,,,,,,,,,,,,,,,,,,,,,,,,,,,,,,,,,,,,,,,409.6489974999995,410.1516466000003,410.1516466000003,410.904189599999,410.904189599999,411.4040350000005,411.4040350000005,412.178810299999,412.178810299999,None,num_4,0.43951169999854756,412.178810299999,None,happy,1,Sad,412.6286318599998,None,None,412.6286318599998,None,,,,,,,,,,,,,,,,,,,,,,,,,,,,,,,,,,,,,,,,,,,,,,,,,,,,,13,001,male,23,450,450,2022_Sep_14_1142,Experiment,2021.1.4,359.96731496904556,
images\S6_M_H_02.png,images\S6_M_H_02_scrambled.png,6,happy,20,male,5,,212,on,2,0.5,0.75,0.5,0.752,3,211,3,1,1,2,2,32,128,165,,,,,,0,81,81,81,,,,,,,,,,,,,,,,,,,,,,,,,,,,,,,,,,,,,,,,,,,,,,,,,,,,,,,,,412.675849799999,413.1784495999991,413.1784495999991,413.92821879999883,413.92821879999883,414.43089450000025,414.43089450000025,415.1861822000001,415.1861822000001,None,num_4,0.23227670000051148,415.1861822000001,None,happy,1,Happy,415.4418048799986,None,None,415.4418048799986,None,,,,,,,,,,,,,,,,,,,,,,,,,,,,,,,,,,,,,,,,,,,,,,,,,,,,,13,001,male,23,450,450,2022_Sep_14_1142,Experiment,2021.1.4,359.96731496904556,
images\S5_F_H_02.png,images\S5_F_H_02_scrambled.png,5,happy,20,female,5,,86,on,2,0.5,0.75,0.5,0.882,3,85,4,1,2,2,2,32,128,165,,,,,,0,82,82,82,,,,,,,,,,,,,,,,,,,,,,,,,,,,,,,,,,,,,,,,,,,,,,,,,,,,,,,,,415.49442589999944,415.99425149999934,415.99425149999934,416.7440323000001,416.7440323000001,417.2439143999991,417.2439143999991,418.12984179999967,418.12984179999967,None,num_6,0.049032200000510784,418.12984179999967,None,sad,1,Happy,418.19090214000045,None,None,418.19090214000045,None,,,,,,,,,,,,,,,,,,,,,,,,,,,,,,,,,,,,,,,,,,,,,,,,,,,,,13,001,male,23,450,450,2022_Sep_14_1142,Experiment,2021.1.4,359.96731496904556,
images\S9_F_H_01.png,images\S9_F_H_01_scrambled.png,9,happy,10,female,4,,469,on,2,0.5,0.75,0.5,0.817,3,468,5,1,1,2,2,32,128,164,,,,,,0,83,83,83,,,,,,,,,,,,,,,,,,,,,,,,,,,,,,,,,,,,,,,,,,,,,,,,,,,,,,,,,418.2546790999995,418.76012209999953,418.76012209999953,419.5154477999995,419.5154477999995,420.02084190000005,420.02084190000005,420.84013049999976,420.84013049999976,None,num_6,0.37024660000133736,420.84013049999976,None,sad,1,Happy,421.2149054599997,None,None,421.2149054599997,None,,,,,,,,,,,,,,,,,,,,,,,,,,,,,,,,,,,,,,,,,,,,,,,,,,,,,13,001,male,23,450,450,2022_Sep_14_1142,Experiment,2021.1.4,359.96731496904556,
images\S2_M_H_01.png,images\S2_M_H_01_scrambled.png,2,happy,10,male,4,,127,off,1,0.5,0.75,0.5,0.751,3,126,1,1,2,0,0,0,0,4,,,,,,0,84,84,84,,,,,,,,,,,,,,,,,,,,,,,,,,,,,,,,,,,,,,,,,,,,,,,,,,,,,,,,,421.2648535999988,421.77033329999995,421.77033329999995,422.52562809999927,422.52562809999927,423.0282211999993,423.0282211999993,423.78357099999903,423.78357099999903,None,num_4,0.35473479999927804,423.78357099999903,None,happy,1,Happy,424.16398522000003,None,None,424.16398522000003,None,,,,,,,,,,,,,,,,,,,,,,,,,,,,,,,,,,,,,,,,,,,,,,,,,,,,,13,001,male,23,450,450,2022_Sep_14_1142,Experiment,2021.1.4,359.96731496904556,
images\S6_M_H_02.png,images\S6_M_H_02_scrambled.png,6,happy,20,male,5,,572,on,2,0.5,0.75,0.5,0.794,3,571,1,1,1,2,2,32,128,165,,,,,,0,85,85,85,,,,,,,,,,,,,,,,,,,,,,,,,,,,,,,,,,,,,,,,,,,,,,,,,,,,,,,,,424.21674079999957,424.7194962000003,424.7194962000003,425.46912109999994,425.46912109999994,425.97177660000034,425.97177660000034,426.77152990000013,426.77152990000013,None,num_4,0.43089099999997416,426.77152990000013,None,happy,1,Happy,427.2186438999988,None,None,427.2186438999988,None,,,,,,,,,,,,,,,,,,,,,,,,,,,,,,,,,,,,,,,,,,,,,,,,,,,,,13,001,male,23,450,450,2022_Sep_14_1142,Experiment,2021.1.4,359.96731496904556,
images\S3_F_H_01.png,images\S3_F_H_01_scrambled.png,3,happy,10,female,4,,373,off,1,0.5,0.75,0.5,0.759,3,372,1,1,1,0,0,0,0,4,,,,,,0,86,86,86,,,,,,,,,,,,,,,,,,,,,,,,,,,,,,,,,,,,,,,,,,,,,,,,,,,,,,,,,427.2685668000004,427.7712170999994,427.7712170999994,428.5265465000002,428.5265465000002,429.03193980000015,429.03193980000015,429.7928053000005,429.7928053000005,None,num_4,0.2735241999998834,429.7928053000005,None,happy,1,Happy,430.0816052200002,None,None,430.0816052200002,None,,,,,,,,,,,,,,,,,,,,,,,,,,,,,,,,,,,,,,,,,,,,,,,,,,,,,13,001,male,23,450,450,2022_Sep_14_1142,Experiment,2021.1.4,359.96731496904556,
images\blank.jpg,images\blank.jpg,none,none,none,none,0,,636,on,2,0.5,0.75,0.5,0.804,0,635,1,1,1,3,3,48,192,240,,,,,,0,87,87,87,,,,,,,,,,,,,,,,,,,,,,,,,,,,,,,,,,,,,,,,,,,,,,,,,,,,,,,,,430.16507980000006,430.6675248999991,430.6675248999991,431.4201566999991,431.4201566999991,431.9198874999993,431.9198874999993,432.7280521999992,432.7280521999992,432.7280521999992,None,,432.7280521999992,None,miss,1,,435.72992976000046,None,None,435.72992976000046,None,,,,,,,,,,,,,,,,,,,,,,,,,,,,,,,,,,,,,,,,,,,,,,,,,,,,,13,001,male,23,450,450,2022_Sep_14_1142,Experiment,2021.1.4,359.96731496904556,
images\S1_F_S_03.png,images\S1_F_S_03_scrambled.png,1,sad,-30,female,1,,546,on,2,0.5,0.75,0.5,0.825,3,545,2,1,1,2,2,32,128,161,,,,,,0,88,88,88,,,,,,,,,,,,,,,,,,,,,,,,,,,,,,,,,,,,,,,,,,,,,,,,,,,,,,,,,435.85238899999877,436.35468859999946,436.35468859999946,437.1072321999991,437.1072321999991,437.60996049999903,437.60996049999903,438.43738140000005,438.43738140000005,None,num_6,0.37291129999903205,438.43738140000005,435.85238899999877,sad,1,Sad,438.8261353199991,None,None,438.8261353199991,None,,,,,,,,,,,,,,,,,,,,,,,,,,,,,,,,,,,,,,,,,,,,,,,,,,,,,13,001,male,23,450,450,2022_Sep_14_1142,Experiment,2021.1.4,359.96731496904556,
images\S2_M_S_02.png,images\S2_M_S_02_scrambled.png,2,sad,-20,male,2,,311,on,2,0.5,0.75,0.5,0.863,3,310,3,1,1,2,2,32,128,162,,,,,,0,89,89,89,,,,,,,,,,,,,,,,,,,,,,,,,,,,,,,,,,,,,,,,,,,,,,,,,,,,,,,,,438.90944430000036,439.4149728000002,439.4149728000002,440.17023719999906,440.17023719999906,440.6756006000005,440.6756006000005,441.54486780000025,441.54486780000025,None,num_4,0.49759830000039074,441.54486780000025,None,happy,1,Sad,442.0528804399999,None,None,442.0528804399999,None,,,,,,,,,,,,,,,,,,,,,,,,,,,,,,,,,,,,,,,,,,,,,,,,,,,,,13,001,male,23,450,450,2022_Sep_14_1142,Experiment,2021.1.4,359.96731496904556,
images\S6_M_S_01.png,images\S6_M_S_01_scrambled.png,6,sad,-10,male,3,,574,on,2,0.5,0.75,0.5,0.943,3,573,4,1,1,2,2,32,128,163,,,,,,0,90,90,90,,,,,,,,,,,,,,,,,,,,,,,,,,,,,,,,,,,,,,,,,,,,,,,,,,,,,,,,,442.1223526999993,442.62508739999885,442.62508739999885,443.3803352999994,443.3803352999994,443.88571949999914,443.88571949999914,444.8354298000004,444.8354298000004,None,None,,444.8354298000004,None,miss,1,Sad,447.8344821799989,None,None,447.8344821799989,None,,,,,,,,,,,,,,,,,,,,,,,,,,,,,,,,,,,,,,,,,,,,,,,,,,,,,13,001,male,23,450,450,2022_Sep_14_1142,Experiment,2021.1.4,359.96731496904556,
images\S1_F_S_03.png,images\S1_F_S_03_scrambled.png,1,sad,-30,female,1,,6,off,1,0.5,0.75,0.5,0.871,3,5,1,1,1,0,0,0,0,1,,,,,,0,91,91,91,,,,,,,,,,,,,,,,,,,,,,,,,,,,,,,,,,,,,,,,,,,,,,,,,,,,,,,,,447.88445649999903,448.38429219999944,448.38429219999944,449.13406060000034,449.13406060000034,449.63668450000023,449.63668450000023,450.5114083999988,450.5114083999988,447.88445649999903,num_6,0.2030360999997356,450.5114083999988,447.88445649999903,sad,1,Sad,450.72529311999955,None,None,450.72529311999955,None,,,,,,,,,,,,,,,,,,,,,,,,,,,,,,,,,,,,,,,,,,,,,,,,,,,,,13,001,male,23,450,450,2022_Sep_14_1142,Experiment,2021.1.4,359.96731496904556,
images\S10_M_H_01.png,images\S10_M_H_01_scrambled.png,10,happy,10,male,4,,595,on,2,0.5,0.75,0.5,0.92,3,594,1,1,1,2,2,32,128,164,,,,,,0,92,92,92,,,,,,,,,,,,,,,,,,,,,,,,,,,,,,,,,,,,,,,,,,,,,,,,,,,,,,,,,450.8363232999991,451.34174409999923,451.34174409999923,452.0970621999995,452.0970621999995,452.599803099999,452.599803099999,453.5216338,453.5216338,None,num_4,0.24071360000016284,453.5216338,None,happy,1,Happy,453.7743067200003,None,None,453.7743067200003,None,,,,,,,,,,,,,,,,,,,,,,,,,,,,,,,,,,,,,,,,,,,,,,,,,,,,,13,001,male,23,450,450,2022_Sep_14_1142,Experiment,2021.1.4,359.96731496904556,
images\S3_F_H_01.png,images\S3_F_H_01_scrambled.png,3,happy,10,female,4,,553,on,2,0.5,0.75,0.5,0.78,3,552,2,1,2,2,2,32,128,164,,,,,,0,93,93,93,,,,,,,,,,,,,,,,,,,,,,,,,,,,,,,,,,,,,,,,,,,,,,,,,,,,,,,,,453.82152289999885,454.3213625999988,454.3213625999988,455.07111650000024,455.07111650000024,455.5710119999994,455.5710119999994,456.35686780000015,456.35686780000015,None,num_6,0.30932860000029905,456.35686780000015,None,sad,1,Happy,456.67340116000037,None,None,456.67340116000037,None,,,,,,,,,,,,,,,,,,,,,,,,,,,,,,,,,,,,,,,,,,,,,,,,,,,,,13,001,male,23,450,450,2022_Sep_14_1142,Experiment,2021.1.4,359.96731496904556,
images\S7_F_S_03.png,images\S7_F_S_03_scrambled.png,7,sad,-30,female,1,,522,off,1,0.5,0.75,0.5,0.931,3,521,1,1,1,0,0,0,0,1,,,,,,0,94,94,94,,,,,,,,,,,,,,,,,,,,,,,,,,,,,,,,,,,,,,,,,,,,,,,,,,,,,,,,,456.7678320999994,457.27043890000004,457.27043890000004,458.02022080000006,458.02022080000006,458.52008579999983,458.52008579999983,459.4531206999991,459.4531206999991,None,num_6,0.39718700000048557,459.4531206999991,None,sad,1,Sad,459.8641131199997,None,None,459.8641131199997,None,,,,,,,,,,,,,,,,,,,,,,,,,,,,,,,,,,,,,,,,,,,,,,,,,,,,,13,001,male,23,450,450,2022_Sep_14_1142,Experiment,2021.1.4,359.96731496904556,
images\S4_M_H_01.png,images\S4_M_H_01_scrambled.png,4,happy,10,male,4,,559,on,2,0.5,0.75,0.5,0.95,3,558,1,1,1,2,2,32,128,164,,,,,,0,95,95,95,,,,,,,,,,,,,,,,,,,,,,,,,,,,,,,,,,,,,,,,,,,,,,,,,,,,,,,,,459.9113073999988,460.414047199999,460.414047199999,461.1637370999988,461.1637370999988,461.66625569999906,461.66625569999906,462.6188035999994,462.6188035999994,None,num_4,0.40747449999980745,462.6188035999994,None,happy,1,Happy,463.05480909999915,None,None,463.05480909999915,None,,,,,,,,,,,,,,,,,,,,,,,,,,,,,,,,,,,,,,,,,,,,,,,,,,,,,13,001,male,23,450,450,2022_Sep_14_1142,Experiment,2021.1.4,359.96731496904556,
images\S9_F_S_03.png,images\S9_F_S_03_scrambled.png,9,sad,-30,female,1,,294,off,1,0.5,0.75,0.5,0.85,3,293,1,1,1,0,0,0,0,1,,,,,,0,96,96,96,,,,,,,,,,,,,,,,,,,,,,,,,,,,,,,,,,,,,,,,,,,,,,,,,,,,,,,,,463.1658583999988,463.6712877,463.6712877,464.4266177999989,464.4266177999989,464.9293656,464.9293656,465.7817184000005,465.7817184000005,None,num_6,0.436584999999468,465.7817184000005,None,sad,1,Sad,466.22885421999985,None,None,466.22885421999985,None,,,,,,,,,,,,,,,,,,,,,,,,,,,,,,,,,,,,,,,,,,,,,,,,,,,,,13,001,male,23,450,450,2022_Sep_14_1142,Experiment,2021.1.4,359.96731496904556,
images\S1_F_H_03.png,images\S1_F_H_03_scrambled.png,1,happy,30,female,6,,543,on,2,0.5,0.75,0.5,0.848,3,542,1,1,1,2,2,32,128,166,,,,,,0,97,97,97,,,,,,,,,,,,,,,,,,,,,,,,,,,,,,,,,,,,,,,,,,,,,,,,,,,,,,,,,466.2760081999995,466.77586169999904,466.77586169999904,467.52841050000006,467.52841050000006,468.0282624999991,468.0282624999991,468.88081449999936,468.88081449999936,None,num_6,0.2894594999997935,468.88081449999936,None,sad,1,Happy,469.17786765999904,None,None,469.17786765999904,None,,,,,,,,,,,,,,,,,,,,,,,,,,,,,,,,,,,,,,,,,,,,,,,,,,,,,13,001,male,23,450,450,2022_Sep_14_1142,Experiment,2021.1.4,359.96731496904556,
images\S9_F_S_02.png,images\S9_F_S_02_scrambled.png,9,sad,-20,female,2,,413,off,1,0.5,0.75,0.5,0.791,3,412,1,1,1,0,0,0,0,2,,,,,,0,98,98,98,,,,,,,,,,,,,,,,,,,,,,,,,,,,,,,,,,,,,,,,,,,,,,,,,,,,,,,,,469.2251057000003,469.7305645999995,469.7305645999995,470.4802694,470.4802694,470.98571360000005,470.98571360000005,471.77997009999945,471.77997009999945,None,num_6,0.39038260000052105,471.77997009999945,None,sad,1,Sad,472.1853167200001,None,None,472.1853167200001,None,,,,,,,,,,,,,,,,,,,,,,,,,,,,,,,,,,,,,,,,,,,,,,,,,,,,,13,001,male,23,450,450,2022_Sep_14_1142,Experiment,2021.1.4,359.96731496904556,
images\S9_F_H_03.png,images\S9_F_H_03_scrambled.png,9,happy,30,female,6,,591,on,2,0.5,0.75,0.5,0.814,3,590,1,2,1,2,2,32,128,166,,,,,,0,99,99,99,,,,,,,,,,,,,,,,,,,,,,,,,,,,,,,,,,,,,,,,,,,,,,,,,,,,,,,,,472.268617499999,472.76846099999875,472.76846099999875,473.5182364000002,473.5182364000002,474.01813349999884,474.01813349999884,474.8346207000004,474.8346207000004,None,num_4,0.3034400000015012,474.8346207000004,None,happy,1,Happy,475.14829932000015,None,None,475.14829932000015,None,,,,,,,,,,,,,,,,,,,,,,,,,,,,,,,,,,,,,,,,,,,,,,,,,,,,,13,001,male,23,450,450,2022_Sep_14_1142,Experiment,2021.1.4,359.96731496904556,
images\S2_M_S_01.png,images\S2_M_S_01_scrambled.png,2,sad,-10,male,3,,370,off,1,0.5,0.75,0.5,0.948,3,369,1,1,1,0,0,0,0,3,,,,,,0,100,100,100,,,,,,,,,,,,,,,,,,,,,,,,,,,,,,,,,,,,,,,,,,,,,,,,,,,,,,,,,475.26214100000016,475.767541799999,475.767541799999,476.5201745000004,476.5201745000004,477.0199554000001,477.0199554000001,477.97526449999987,477.97526449999987,None,num_6,0.5151843999992707,477.97526449999987,None,sad,1,Sad,478.5055895199998,None,None,478.5055895199998,None,,,,,,,,,,,,,,,,,,,,,,,,,,,,,,,,,,,,,,,,,,,,,,,,,,,,,13,001,male,23,450,450,2022_Sep_14_1142,Experiment,2021.1.4,359.96731496904556,
images\S7_F_H_02.png,images\S7_F_H_02_scrambled.png,7,happy,20,female,5,,38,off,1,0.5,0.75,0.5,0.861,3,37,2,1,1,0,0,0,0,5,,,,,,0,101,101,101,,,,,,,,,,,,,,,,,,,,,,,,,,,,,,,,,,,,,,,,,,,,,,,,,,,,,,,,,478.5527971999991,479.0554607999993,479.0554607999993,479.81077449999884,479.81077449999884,480.316179299999,480.316179299999,481.1797768999995,481.1797768999995,None,num_4,0.10263949999898614,481.1797768999995,None,happy,1,Happy,481.2935945200001,None,None,481.2935945200001,None,,,,,,,,,,,,,,,,,,,,,,,,,,,,,,,,,,,,,,,,,,,,,,,,,,,,,13,001,male,23,450,450,2022_Sep_14_1142,Experiment,2021.1.4,359.96731496904556,
images\S5_F_S_01.png,images\S5_F_S_01_scrambled.png,5,sad,-10,female,3,,28,off,1,0.5,0.75,0.5,0.861,3,27,3,1,1,0,0,0,0,3,,,,,,0,102,102,102,,,,,,,,,,,,,,,,,,,,,,,,,,,,,,,,,,,,,,,,,,,,,,,,,,,,,,,,,481.3769223999998,481.88234329999887,481.88234329999887,482.6376587999994,482.6376587999994,483.1403086,483.1403086,484.0066976999997,484.0066976999997,None,num_4,0.4675867999994807,484.0066976999997,None,happy,1,Sad,484.4815008600001,None,None,484.4815008600001,None,,,,,,,,,,,,,,,,,,,,,,,,,,,,,,,,,,,,,,,,,,,,,,,,,,,,,13,001,male,23,450,450,2022_Sep_14_1142,Experiment,2021.1.4,359.96731496904556,
images\S7_F_H_03.png,images\S7_F_H_03_scrambled.png,7,happy,30,female,6,,219,on,2,0.5,0.75,0.5,0.931,3,218,1,1,1,2,2,32,128,166,,,,,,0,103,103,103,,,,,,,,,,,,,,,,,,,,,,,,,,,,,,,,,,,,,,,,,,,,,,,,,,,,,,,,,484.5287355999999,485.0313431000004,485.0313431000004,485.7866879000003,485.7866879000003,486.2920915000004,486.2920915000004,487.22234169999956,487.22234169999956,None,num_4,0.052022399999259505,487.22234169999956,None,happy,1,Happy,487.29459939999924,None,None,487.29459939999924,None,,,,,,,,,,,,,,,,,,,,,,,,,,,,,,,,,,,,,,,,,,,,,,,,,,,,,13,001,male,23,450,450,2022_Sep_14_1142,Experiment,2021.1.4,359.96731496904556,
images\S9_F_H_02.png,images\S9_F_H_02_scrambled.png,9,happy,20,female,5,,470,on,2,0.5,0.75,0.5,0.942,3,469,2,1,1,2,2,32,128,165,,,,,,0,104,104,104,,,,,,,,,,,,,,,,,,,,,,,,,,,,,,,,,,,,,,,,,,,,,,,,,,,,,,,,,487.4056207000003,487.9054729999998,487.9054729999998,488.6608303999992,488.6608303999992,489.16623080000045,489.16623080000045,490.1103957000005,490.1103957000005,None,num_4,0.44390519999979006,490.1103957000005,None,happy,1,Happy,490.5685494200001,None,None,490.5685494200001,None,,,,,,,,,,,,,,,,,,,,,,,,,,,,,,,,,,,,,,,,,,,,,,,,,,,,,13,001,male,23,450,450,2022_Sep_14_1142,Experiment,2021.1.4,359.96731496904556,
images\S10_M_H_02.png,images\S10_M_H_02_scrambled.png,10,happy,20,male,5,,296,off,1,0.5,0.75,0.5,0.758,3,295,1,1,2,0,0,0,0,5,,,,,,0,105,105,105,,,,,,,,,,,,,,,,,,,,,,,,,,,,,,,,,,,,,,,,,,,,,,,,,,,,,,,,,490.6157472999994,491.12117469999885,491.12117469999885,491.87648720000016,491.87648720000016,492.3763133000002,492.3763133000002,493.1372093,493.1372093,None,num_4,0.33717000000069675,493.1372093,None,happy,1,Happy,493.4898696199993,None,None,493.4898696199993,None,,,,,,,,,,,,,,,,,,,,,,,,,,,,,,,,,,,,,,,,,,,,,,,,,,,,,13,001,male,23,450,450,2022_Sep_14_1142,Experiment,2021.1.4,359.96731496904556,
images\S4_M_H_03.png,images\S4_M_H_03_scrambled.png,4,happy,30,male,6,,321,on,2,0.5,0.75,0.5,0.95,3,320,1,1,1,2,2,32,128,166,,,,,,0,106,106,106,,,,,,,,,,,,,,,,,,,,,,,,,,,,,,,,,,,,,,,,,,,,,,,,,,,,,,,,,493.5370701999991,494.0398252999994,494.0398252999994,494.7950960999997,494.7950960999997,495.30046870000024,495.30046870000024,496.25573299999905,496.25573299999905,None,num_4,0.5143075000014505,496.25573299999905,None,happy,1,Happy,496.78053752,None,None,496.78053752,None,,,,,,,,,,,,,,,,,,,,,,,,,,,,,,,,,,,,,,,,,,,,,,,,,,,,,13,001,male,23,450,450,2022_Sep_14_1142,Experiment,2021.1.4,359.96731496904556,
images\S9_F_S_03.png,images\S9_F_S_03_scrambled.png,9,sad,-30,female,1,,474,on,2,0.5,0.75,0.5,0.809,3,473,2,1,1,2,2,32,128,161,,,,,,0,107,107,107,,,,,,,,,,,,,,,,,,,,,,,,,,,,,,,,,,,,,,,,,,,,,,,,,,,,,,,,,496.8305014999996,497.3303440999998,497.3303440999998,498.0829485000004,498.0829485000004,498.5855641999997,498.5855641999997,499.39927739999894,499.39927739999894,None,num_6,0.2509864999992715,499.39927739999894,None,sad,1,Sad,499.6629951999994,None,None,499.6629951999994,None,,,,,,,,,,,,,,,,,,,,,,,,,,,,,,,,,,,,,,,,,,,,,,,,,,,,,13,001,male,23,450,450,2022_Sep_14_1142,Experiment,2021.1.4,359.96731496904556,
images\S6_M_S_01.png,images\S6_M_S_01_scrambled.png,6,sad,-10,male,3,,394,off,1,0.5,0.75,0.5,0.767,3,393,1,1,1,0,0,0,0,3,,,,,,0,108,108,108,,,,,,,,,,,,,,,,,,,,,,,,,,,,,,,,,,,,,,,,,,,,,,,,,,,,,,,,,499.71294079999916,500.2155813999989,500.2155813999989,500.96534599999995,500.96534599999995,501.47077739999895,501.47077739999895,502.24003379999976,502.24003379999976,None,num_4,0.5141793999991933,502.24003379999976,None,happy,1,Sad,502.7592536599989,None,None,502.7592536599989,None,,,,,,,,,,,,,,,,,,,,,,,,,,,,,,,,,,,,,,,,,,,,,,,,,,,,,13,001,male,23,450,450,2022_Sep_14_1142,Experiment,2021.1.4,359.96731496904556,
images\S4_M_S_02.png,images\S4_M_S_02_scrambled.png,4,sad,-20,male,2,,383,off,1,0.5,0.75,0.5,0.783,3,382,2,1,1,0,0,0,0,2,,,,,,0,109,109,109,,,,,,,,,,,,,,,,,,,,,,,,,,,,,,,,,,,,,,,,,,,,,,,,,,,,,,,,,502.80643879999934,503.30908910000016,503.30908910000016,504.0588293999999,504.0588293999999,504.5614806000003,504.5614806000003,505.3501755999996,505.3501755999996,None,None,,505.3501755999996,None,miss,1,Sad,508.35475145999976,None,None,508.35475145999976,None,,,,,,,,,,,,,,,,,,,,,,,,,,,,,,,,,,,,,,,,,,,,,,,,,,,,,13,001,male,23,450,450,2022_Sep_14_1142,Experiment,2021.1.4,359.96731496904556,
images\S1_F_S_01.png,images\S1_F_S_01_scrambled.png,1,sad,-10,female,3,,304,on,2,0.5,0.75,0.5,0.782,3,303,1,1,1,2,2,32,128,163,,,,,,0,110,110,110,,,,,,,,,,,,,,,,,,,,,,,,,,,,,,,,,,,,,,,,,,,,,,,,,,,,,,,,,508.4019555999994,508.9045815999989,508.9045815999989,509.6599789999991,509.6599789999991,510.16252749999967,510.16252749999967,510.94843019999917,510.94843019999917,508.4019555999994,num_4,0.4940129999995406,510.94843019999917,508.4019555999994,happy,1,Sad,511.4510056599995,None,None,511.4510056599995,None,,,,,,,,,,,,,,,,,,,,,,,,,,,,,,,,,,,,,,,,,,,,,,,,,,,,,13,001,male,23,450,450,2022_Sep_14_1142,Experiment,2021.1.4,359.96731496904556,
images\S5_F_S_03.png,images\S5_F_S_03_scrambled.png,5,sad,-30,female,1,,510,off,1,0.5,0.75,0.5,0.766,3,509,1,1,1,0,0,0,0,1,,,,,,0,111,111,111,,,,,,,,,,,,,,,,,,,,,,,,,,,,,,,,,,,,,,,,,,,,,,,,,,,,,,,,,511.4982227999999,511.99804959999983,511.99804959999983,512.7533852999995,512.7533852999995,513.2560437999991,513.2560437999991,514.0252095999995,514.0252095999995,None,num_6,0.46525950000068406,514.0252095999995,None,sad,1,Sad,514.5056261200001,None,None,514.5056261200001,None,,,,,,,,,,,,,,,,,,,,,,,,,,,,,,,,,,,,,,,,,,,,,,,,,,,,,13,001,male,23,450,450,2022_Sep_14_1142,Experiment,2021.1.4,359.96731496904556,
images\S9_F_S_01.png,images\S9_F_S_01_scrambled.png,9,sad,-10,female,3,,292,off,1,0.5,0.75,0.5,0.821,3,291,2,1,1,0,0,0,0,3,,,,,,0,112,112,112,,,,,,,,,,,,,,,,,,,,,,,,,,,,,,,,,,,,,,,,,,,,,,,,,,,,,,,,,514.5861567999991,515.0887691999988,515.0887691999988,515.8413480999998,515.8413480999998,516.3467367999992,516.3467367999992,517.1714597,517.1714597,None,num_4,1.0387448999990738,517.1714597,None,happy,1,Sad,518.2183563599995,None,None,518.2183563599995,None,,,,,,,,,,,,,,,,,,,,,,,,,,,,,,,,,,,,,,,,,,,,,,,,,,,,,13,001,male,23,450,450,2022_Sep_14_1142,Experiment,2021.1.4,359.96731496904556,
images\S3_F_S_02.png,images\S3_F_S_02_scrambled.png,3,sad,-20,female,2,,17,off,1,0.5,0.75,0.5,0.917,3,16,3,1,1,0,0,0,0,2,,,,,,0,113,113,113,,,,,,,,,,,,,,,,,,,,,,,,,,,,,,,,,,,,,,,,,,,,,,,,,,,,,,,,,518.2655741999997,518.7681910000001,518.7681910000001,519.5179746000003,519.5179746000003,520.0206361999999,520.0206361999999,520.9398880999988,520.9398880999988,None,num_4,0.37487810000129684,520.9398880999988,None,happy,1,Sad,521.3203638599991,None,None,521.3203638599991,None,,,,,,,,,,,,,,,,,,,,,,,,,,,,,,,,,,,,,,,,,,,,,,,,,,,,,13,001,male,23,450,450,2022_Sep_14_1142,Experiment,2021.1.4,359.96731496904556,
images\S1_F_S_02.png,images\S1_F_S_02_scrambled.png,1,sad,-20,female,2,,365,off,1,0.5,0.75,0.5,0.81,3,364,4,1,2,0,0,0,0,2,,,,,,0,114,114,114,,,,,,,,,,,,,,,,,,,,,,,,,,,,,,,,,,,,,,,,,,,,,,,,,,,,,,,,,521.4312805,521.9340106999998,521.9340106999998,522.6864228999993,522.6864228999993,523.1891893000002,523.1891893000002,524.0055290999999,524.0055290999999,None,num_4,0.38082549999853654,524.0055290999999,None,happy,1,Sad,524.3914524599988,None,None,524.3914524599988,None,,,,,,,,,,,,,,,,,,,,,,,,,,,,,,,,,,,,,,,,,,,,,,,,,,,,,13,001,male,23,450,450,2022_Sep_14_1142,Experiment,2021.1.4,359.96731496904556,
images\S7_F_H_01.png,images\S7_F_H_01_scrambled.png,7,happy,10,female,4,,457,on,2,0.5,0.75,0.5,0.846,3,456,1,1,1,2,2,32,128,164,,,,,,0,115,115,115,,,,,,,,,,,,,,,,,,,,,,,,,,,,,,,,,,,,,,,,,,,,,,,,,,,,,,,,,524.4414654000002,524.9412905999989,524.9412905999989,525.6966674000005,525.6966674000005,526.2020363000001,526.2020363000001,527.0517477999992,527.0517477999992,None,num_4,0.006640300000071875,527.0517477999992,None,happy,1,Happy,527.0711686199987,None,None,527.0711686199987,None,,,,,,,,,,,,,,,,,,,,,,,,,,,,,,,,,,,,,,,,,,,,,,,,,,,,,13,001,male,23,450,450,2022_Sep_14_1142,Experiment,2021.1.4,359.96731496904556,
images\S4_M_H_02.png,images\S4_M_H_02_scrambled.png,4,happy,20,male,5,,260,off,1,0.5,0.75,0.5,0.914,3,259,1,1,1,0,0,0,0,5,,,,,,0,116,116,116,,,,,,,,,,,,,,,,,,,,,,,,,,,,,,,,,,,,,,,,,,,,,,,,,,,,,,,,,527.1822937999996,527.6876827000006,527.6876827000006,528.4402476999994,528.4402476999994,528.9456591999997,528.9456591999997,529.8649101000001,529.8649101000001,None,num_4,0.2411787999990338,529.8649101000001,None,happy,1,Happy,530.1230914999987,None,None,530.1230914999987,None,,,,,,,,,,,,,,,,,,,,,,,,,,,,,,,,,,,,,,,,,,,,,,,,,,,,,13,001,male,23,450,450,2022_Sep_14_1142,Experiment,2021.1.4,359.96731496904556,
images\S8_M_S_03.png,images\S8_M_S_03_scrambled.png,8,sad,-30,male,1,,528,off,1,0.5,0.75,0.5,0.804,3,527,2,1,1,0,0,0,0,1,,,,,,0,117,117,117,,,,,,,,,,,,,,,,,,,,,,,,,,,,,,,,,,,,,,,,,,,,,,,,,,,,,,,,,530.1730132000002,530.675637899999,530.675637899999,531.4310029999988,531.4310029999988,531.9335249999995,531.9335249999995,532.7388944999993,532.7388944999993,None,num_6,0.5994869000005565,532.7388944999993,None,sad,1,Sad,533.35261682,None,None,533.35261682,None,,,,,,,,,,,,,,,,,,,,,,,,,,,,,,,,,,,,,,,,,,,,,,,,,,,,,13,001,male,23,450,450,2022_Sep_14_1142,Experiment,2021.1.4,359.96731496904556,
images\S10_M_H_01.png,images\S10_M_H_01_scrambled.png,10,happy,10,male,4,,295,off,1,0.5,0.75,0.5,0.856,3,294,3,1,1,0,0,0,0,4,,,,,,0,118,118,118,,,,,,,,,,,,,,,,,,,,,,,,,,,,,,,,,,,,,,,,,,,,,,,,,,,,,,,,,533.4026008999999,533.9024387999989,533.9024387999989,534.655080399999,534.655080399999,535.1604263999989,535.1604263999989,536.0184328000005,536.0184328000005,None,num_4,0.6164836999996623,536.0184328000005,None,happy,1,Happy,536.6628062199992,None,None,536.6628062199992,None,,,,,,,,,,,,,,,,,,,,,,,,,,,,,,,,,,,,,,,,,,,,,,,,,,,,,13,001,male,23,450,450,2022_Sep_14_1142,Experiment,2021.1.4,359.96731496904556,
images\S10_M_S_02.png,images\S10_M_S_02_scrambled.png,10,sad,-20,male,2,,179,off,1,0.5,0.75,0.5,0.904,3,178,4,2,1,0,0,0,0,2,,,,,,0,119,119,119,,,,,,,,,,,,,,,,,,,,,,,,,,,,,,,,,,,,,,,,,,,,,,,,,,,,,,,,,536.7154662999992,537.2153073,537.2153073,537.9678890999994,537.9678890999994,538.4704751999989,538.4704751999989,539.3785259999995,539.3785259999995,None,num_4,0.6882918999999674,539.3785259999995,None,happy,1,Sad,540.0756672600003,None,None,540.0756672600003,None,,,,,,,,,,,,,,,,,,,,,,,,,,,,,,,,,,,,,,,,,,,,,,,,,,,,,13,001,male,23,450,450,2022_Sep_14_1142,Experiment,2021.1.4,359.96731496904556,
images\S7_F_S_01.png,images\S7_F_S_01_scrambled.png,7,sad,-10,female,3,,400,off,1,0.5,0.75,0.5,0.92,3,399,5,1,1,0,0,0,0,3,,,,,,0,120,120,120,,,,,,,,,,,,,,,,,,,,,,,,,,,,,,,,,,,,,,,,,,,,,,,,,,,,,,,,,540.1338444999992,540.6364592,540.6364592,541.3890423999992,541.3890423999992,541.8916325,541.8916325,542.8135751999989,542.8135751999989,None,num_6,0.4048930000008113,542.8135751999989,None,sad,1,Sad,543.2329405199993,None,None,543.2329405199993,None,,,,,,,,,,,,,,,,,,,,,,,,,,,,,,,,,,,,,,,,,,,,,,,,,,,,,13,001,male,23,450,450,2022_Sep_14_1142,Experiment,2021.1.4,359.96731496904556,
images\blank.jpg,images\blank.jpg,none,none,none,none,0,,628,on,2,0.5,0.75,0.5,0.911,0,627,1,1,1,3,3,48,192,240,,,,,,0,121,121,121,,,,,,,,,,,,,,,,,,,,,,,,,,,,,,,,,,,,,,,,,,,,,,,,,,,,,,,,,543.316457599999,543.8160388999995,543.8160388999995,544.5686285000002,544.5686285000002,545.0712443000002,545.0712443000002,545.9849607999995,545.9849607999995,545.9849607999995,None,,545.9849607999995,None,miss,1,,548.9867432599988,None,None,548.9867432599988,None,,,,,,,,,,,,,,,,,,,,,,,,,,,,,,,,,,,,,,,,,,,,,,,,,,,,,13,001,male,23,450,450,2022_Sep_14_1142,Experiment,2021.1.4,359.96731496904556,
images\S4_M_S_01.png,images\S4_M_S_01_scrambled.png,4,sad,-10,male,3,,142,off,1,0.5,0.75,0.5,0.885,3,141,1,1,1,0,0,0,0,3,,,,,,0,122,122,122,,,,,,,,,,,,,,,,,,,,,,,,,,,,,,,,,,,,,,,,,,,,,,,,,,,,,,,,,549.1479294999999,549.6504056000003,549.6504056000003,550.4001543999993,550.4001543999993,550.9055743999988,550.9055743999988,551.7941337999991,551.7941337999991,None,num_6,0.44803780000074767,551.7941337999991,549.1479294999999,sad,1,Sad,552.2550921199994,None,None,552.2550921199994,None,,,,,,,,,,,,,,,,,,,,,,,,,,,,,,,,,,,,,,,,,,,,,,,,,,,,,13,001,male,23,450,450,2022_Sep_14_1142,Experiment,2021.1.4,359.96731496904556,
images\blank.jpg,images\blank.jpg,none,none,none,none,0,,602,on,2,0.5,0.75,0.5,0.843,0,601,1,1,1,3,3,48,192,240,,,,,,0,123,123,123,,,,,,,,,,,,,,,,,,,,,,,,,,,,,,,,,,,,,,,,,,,,,,,,,,,,,,,,,552.3386435999992,552.8410902999995,552.8410902999995,553.5936180999988,553.5936180999988,554.0962432999995,554.0962432999995,554.9432281999989,554.9432281999989,554.9432281999989,None,,554.9432281999989,None,miss,1,,557.9422752799989,None,None,557.9422752799989,None,,,,,,,,,,,,,,,,,,,,,,,,,,,,,,,,,,,,,,,,,,,,,,,,,,,,,13,001,male,23,450,450,2022_Sep_14_1142,Experiment,2021.1.4,359.96731496904556,
images\S8_M_S_01.png,images\S8_M_S_01_scrambled.png,8,sad,-10,male,3,,406,off,1,0.5,0.75,0.5,0.848,3,405,1,1,1,0,0,0,0,3,,,,,,0,124,124,124,,,,,,,,,,,,,,,,,,,,,,,,,,,,,,,,,,,,,,,,,,,,,,,,,,,,,,,,,558.0564043999993,558.5587351000004,558.5587351000004,559.3113055000003,559.3113055000003,559.8167012000004,559.8167012000004,560.6719839999996,560.6719839999996,None,num_6,0.4023414999992383,560.6719839999996,558.0564043999993,sad,1,Sad,561.08853382,None,None,561.08853382,None,,,,,,,,,,,,,,,,,,,,,,,,,,,,,,,,,,,,,,,,,,,,,,,,,,,,,13,001,male,23,450,450,2022_Sep_14_1142,Experiment,2021.1.4,359.96731496904556,
images\S10_M_H_03.png,images\S10_M_H_03_scrambled.png,10,happy,30,male,6,,177,off,1,0.5,0.75,0.5,0.833,3,176,2,1,1,0,0,0,0,6,,,,,,0,125,125,125,,,,,,,,,,,,,,,,,,,,,,,,,,,,,,,,,,,,,,,,,,,,,,,,,,,,,,,,,561.1718245999991,561.6744563999991,561.6744563999991,562.4242365,562.4242365,562.924042399999,562.924042399999,563.7599982000002,563.7599982000002,None,num_4,0.4022189999996044,563.7599982000002,None,happy,1,Happy,564.1764675199987,None,None,564.1764675199987,None,,,,,,,,,,,,,,,,,,,,,,,,,,,,,,,,,,,,,,,,,,,,,,,,,,,,,13,001,male,23,450,450,2022_Sep_14_1142,Experiment,2021.1.4,359.96731496904556,
images\blank.jpg,images\blank.jpg,none,none,none,none,0,,615,on,2,0.5,0.75,0.5,0.9,0,614,1,1,1,3,3,48,192,240,,,,,,0,126,126,126,,,,,,,,,,,,,,,,,,,,,,,,,,,,,,,,,,,,,,,,,,,,,,,,,,,,,,,,,564.2627929,564.7651670999994,564.7651670999994,565.5177068000003,565.5177068000003,566.0203821000005,566.0203821000005,566.9200527000003,566.9200527000003,566.9200527000003,None,,566.9200527000003,None,miss,1,,569.9191403800002,None,None,569.9191403800002,None,,,,,,,,,,,,,,,,,,,,,,,,,,,,,,,,,,,,,,,,,,,,,,,,,,,,,13,001,male,23,450,450,2022_Sep_14_1142,Experiment,2021.1.4,359.96731496904556,
images\S6_M_S_03.png,images\S6_M_S_03_scrambled.png,6,sad,-30,male,1,,96,on,2,0.5,0.75,0.5,0.876,3,95,2,1,1,2,2,32,128,161,,,,,,0,127,127,127,,,,,,,,,,,,,,,,,,,,,,,,,,,,,,,,,,,,,,,,,,,,,,,,,,,,,,,,,570.0360503999991,570.5383750999999,570.5383750999999,571.2909279000005,571.2909279000005,571.793533699999,571.793533699999,572.6766364000005,572.6766364000005,None,num_6,0.7817125999990822,572.6766364000005,570.0360503999991,sad,1,Sad,573.4735989199993,None,None,573.4735989199993,None,,,,,,,,,,,,,,,,,,,,,,,,,,,,,,,,,,,,,,,,,,,,,,,,,,,,,13,001,male,23,450,450,2022_Sep_14_1142,Experiment,2021.1.4,359.96731496904556,
images\S8_M_S_03.png,images\S8_M_S_03_scrambled.png,8,sad,-30,male,1,,408,off,1,0.5,0.75,0.5,0.89,3,407,1,1,2,0,0,0,0,1,,,,,,0,128,128,128,,,,,,,,,,,,,,,,,,,,,,,,,,,,,,,,,,,,,,,,,,,,,,,,,,,,,,,,,573.5207956999993,574.0261927999991,574.0261927999991,574.7759562000001,574.7759562000001,575.2758232000006,575.2758232000006,576.17011,576.17011,None,num_6,0.4563020999994478,576.17011,None,sad,1,Sad,576.6448898799996,None,None,576.6448898799996,None,,,,,,,,,,,,,,,,,,,,,,,,,,,,,,,,,,,,,,,,,,,,,,,,,,,,,13,001,male,23,450,450,2022_Sep_14_1142,Experiment,2021.1.4,359.96731496904556,
images\S2_M_H_03.png,images\S2_M_H_03_scrambled.png,2,happy,30,male,6,,549,on,2,0.5,0.75,0.5,0.795,3,548,1,1,1,2,2,32,128,166,,,,,,0,129,129,129,,,,,,,,,,,,,,,,,,,,,,,,,,,,,,,,,,,,,,,,,,,,,,,,,,,,,,,,,576.692039999999,577.1974521000002,577.1974521000002,577.9500749999997,577.9500749999997,578.4526591999993,578.4526591999993,579.2497199999989,579.2497199999989,None,num_4,0.5684335999994801,579.2497199999989,None,happy,1,Happy,579.8326883200001,None,None,579.8326883200001,None,,,,,,,,,,,,,,,,,,,,,,,,,,,,,,,,,,,,,,,,,,,,,,,,,,,,,13,001,male,23,450,450,2022_Sep_14_1142,Experiment,2021.1.4,359.96731496904556,
images\S8_M_H_01.png,images\S8_M_H_01_scrambled.png,8,happy,10,male,4,,223,on,2,0.5,0.75,0.5,0.864,3,222,2,1,1,2,2,32,128,164,,,,,,0,130,130,130,,,,,,,,,,,,,,,,,,,,,,,,,,,,,,,,,,,,,,,,,,,,,,,,,,,,,,,,,579.8799472000001,580.3854067999991,580.3854067999991,581.1351384999989,581.1351384999989,581.6405583999995,581.6405583999995,582.509822699999,582.509822699999,None,num_4,0.5721386999994138,582.509822699999,None,happy,1,Happy,583.1151147999999,None,space,583.1151147999999,None,45.046516299998984,,,,,,,,,,,,,,,,,,,,,,,,,,,,,,,,,,,,,,,,,,,,,,,,,,,,13,001,male,23,450,450,2022_Sep_14_1142,Experiment,2021.1.4,359.96731496904556,
images\S3_F_H_03.png,images\S3_F_H_03_scrambled.png,3,happy,30,female,6,,555,on,2,0.5,0.75,0.5,0.923,3,554,3,1,1,2,2,32,128,166,,,,,,0,131,131,131,,,,,,,,,,,,,,,,,,,,,,,,,,,,,,,,,,,,,,,,,,,,,,,,,,,,,,,,,628.2511719000004,628.7539370000004,628.7539370000004,629.5063710000004,629.5063710000004,630.0061885000005,630.0061885000005,630.9364954000002,630.9364954000002,None,num_4,0.5216653999996197,630.9364954000002,None,happy,1,Happy,631.47242872,None,None,631.47242872,None,,,,,,,,,,,,,,,,,,,,,,,,,,,,,,,,,,,,,,,,,,,,,,,,,,,,,13,001,male,23,450,450,2022_Sep_14_1142,Experiment,2021.1.4,359.96731496904556,
images\S4_M_S_03.png,images\S4_M_S_03_scrambled.png,4,sad,-30,male,1,,384,off,1,0.5,0.75,0.5,0.844,3,383,1,1,1,0,0,0,0,1,,,,,,0,132,132,132,,,,,,,,,,,,,,,,,,,,,,,,,,,,,,,,,,,,,,,,,,,,,,,,,,,,,,,,,631.5224012999997,632.0251087999995,632.0251087999995,632.7803909999993,632.7803909999993,633.283001499999,633.283001499999,634.1300093999989,634.1300093999989,None,num_6,0.5999355000003561,634.1300093999989,None,sad,1,Sad,634.7408494200002,None,None,634.7408494200002,None,,,,,,,,,,,,,,,,,,,,,,,,,,,,,,,,,,,,,,,,,,,,,,,,,,,,,13,001,male,23,450,450,2022_Sep_14_1142,Experiment,2021.1.4,359.96731496904556,
images\S6_M_S_03.png,images\S6_M_S_03_scrambled.png,6,sad,-30,male,1,,396,off,1,0.5,0.75,0.5,0.866,3,395,2,1,2,0,0,0,0,1,,,,,,0,133,133,133,,,,,,,,,,,,,,,,,,,,,,,,,,,,,,,,,,,,,,,,,,,,,,,,,,,,,,,,,634.7880460999995,635.2907206999998,635.2907206999998,636.0460479999992,636.0460479999992,636.5486594999993,636.5486594999993,637.4206156999999,637.4206156999999,None,num_6,0.4535007000013138,637.4206156999999,None,sad,1,Sad,637.8899409800002,None,None,637.8899409800002,None,,,,,,,,,,,,,,,,,,,,,,,,,,,,,,,,,,,,,,,,,,,,,,,,,,,,,13,001,male,23,450,450,2022_Sep_14_1142,Experiment,2021.1.4,359.96731496904556,
images\blank.jpg,images\blank.jpg,none,none,none,none,0,,639,on,2,0.5,0.75,0.5,0.867,0,638,1,1,1,3,3,48,192,240,,,,,,0,134,134,134,,,,,,,,,,,,,,,,,,,,,,,,,,,,,,,,,,,,,,,,,,,,,,,,,,,,,,,,,637.9733941999993,638.4730374000001,638.4730374000001,639.2256170999999,639.2256170999999,639.7309887000001,639.7309887000001,640.6001695999994,640.6001695999994,640.6001695999994,None,,640.6001695999994,None,miss,1,,643.6020329599999,None,None,643.6020329599999,None,,,,,,,,,,,,,,,,,,,,,,,,,,,,,,,,,,,,,,,,,,,,,,,,,,,,,13,001,male,23,450,450,2022_Sep_14_1142,Experiment,2021.1.4,359.96731496904556,
images\S6_M_H_02.png,images\S6_M_H_02_scrambled.png,6,happy,20,male,5,,452,on,2,0.5,0.75,0.5,0.923,3,451,2,1,1,2,2,32,128,165,,,,,,0,135,135,135,,,,,,,,,,,,,,,,,,,,,,,,,,,,,,,,,,,,,,,,,,,,,,,,,,,,,,,,,643.7160911000001,644.2157066999998,644.2157066999998,644.9682507999996,644.9682507999996,645.4709193999997,645.4709193999997,646.3983593999992,646.3983593999992,None,num_4,0.3878531999998813,646.3983593999992,643.7160911000001,happy,1,Happy,646.8010007200004,None,None,646.8010007200004,None,,,,,,,,,,,,,,,,,,,,,,,,,,,,,,,,,,,,,,,,,,,,,,,,,,,,,13,001,male,23,450,450,2022_Sep_14_1142,Experiment,2021.1.4,359.96731496904556,
images\blank.jpg,images\blank.jpg,none,none,none,none,0,,632,on,2,0.5,0.75,0.5,0.781,0,631,3,1,1,3,3,48,192,240,,,,,,0,136,136,136,,,,,,,,,,,,,,,,,,,,,,,,,,,,,,,,,,,,,,,,,,,,,,,,,,,,,,,,,646.8845769999998,647.3841755999993,647.3841755999993,648.1367411000001,648.1367411000001,648.6394314999989,648.6394314999989,649.4252850000003,649.4252850000003,649.4252850000003,None,,649.4252850000003,None,miss,1,,652.427136659999,None,None,652.427136659999,None,,,,,,,,,,,,,,,,,,,,,,,,,,,,,,,,,,,,,,,,,,,,,,,,,,,,,13,001,male,23,450,450,2022_Sep_14_1142,Experiment,2021.1.4,359.96731496904556,
images\S6_M_H_03.png,images\S6_M_H_03_scrambled.png,6,happy,30,male,6,,33,off,1,0.5,0.75,0.5,0.788,3,32,1,1,1,0,0,0,0,6,,,,,,0,137,137,137,,,,,,,,,,,,,,,,,,,,,,,,,,,,,,,,,,,,,,,,,,,,,,,,,,,,,,,,,652.5466948999992,653.0463467999989,653.0463467999989,653.8016777000003,653.8016777000003,654.3044,654.3044,655.0957327000006,655.0957327000006,None,num_4,0.23454560000027413,655.0957327000006,652.5466948999992,happy,1,Happy,655.3400959200002,None,None,655.3400959200002,None,,,,,,,,,,,,,,,,,,,,,,,,,,,,,,,,,,,,,,,,,,,,,,,,,,,,,13,001,male,23,450,450,2022_Sep_14_1142,Experiment,2021.1.4,359.96731496904556,
