image_face,image_scram,avatar,emo,emotion,sex,trigeeg,dac,trial_no,NMES,stimtime,baseline,iti,face,scr_face,resp_time,index,count_NMES,count_avatar,count_emotion,dac1,dac2,dac1_output,dac2_output,trigs_out,nmes,practice_trials.thisRepN,practice_trials.thisTrialN,practice_trials.thisN,practice_trials.thisIndex,real_trials.thisRepN,real_trials.thisTrialN,real_trials.thisN,real_trials.thisIndex,trials.thisRepN,trials.thisTrialN,trials.thisN,trials.thisIndex,position,Welcome.started,Welcome.stopped,Welcome_resp.keys,Welcome_resp.rt,text_2.started,text_2.stopped,form_2.index,form_2.itemText,form_2.type,form_2.response,form_2.rt,key_resp_4.keys,key_resp_4.rt,key_resp_4.started,key_resp_4.stopped,instructions.started,instructions.stopped,end_instr.keys,end_instr.rt,instructions_2.started,instructions_2.stopped,end_instr_2.keys,end_instr_2.rt,end_instr_2.started,end_instr_2.stopped,instruct_keypress.started,instruct_keypress.stopped,end_instruct_keypress.keys,end_instruct_keypress.rt,start_practice.started,start_practice.stopped,start_practice_resp.keys,start_practice_resp.rt,prac_baseline.started,prac_baseline.stopped,prac_iti.started,prac_iti.stopped,prac_stimulus.started,prac_stimulus.stopped,prac_scram_stim.started,prac_scram_stim.stopped,prac_stimulus_resp.started,prac_stimulus_resp.stopped,prac_resp.keys,prac_resp.rt,prac_resp.started,prac_resp.stopped,transition_to_real.started,transition_to_real.stopped,end_transition_to_real.keys,end_transition_to_real.rt,fixation_cross.started,fixation_cross.stopped,tr_iti.started,tr_iti.stopped,stimulus.started,stimulus.stopped,scram_stim.started,scram_stim.stopped,response_txt.started,response_txt.stopped,response.keys,response.rt,response.started,response.stopped,participant_Resp,grouping,corAnswer,break_msg.started,break_msg.stopped,end_break.keys,end_break.started,end_break.stopped,end_break.rt,text.started,text.stopped,key_resp_3.keys,key_resp_3.rt,key_resp_3.started,key_resp_3.stopped,fix_cross_comf.started,fix_cross_comf.stopped,stimulation_comf.started,stimulation_comf.stopped,rate_instr.started,rate_instr.stopped,comfort_rating.response,comfort_rating.rt,comfort_rating.started,comfort_rating.stopped,resp_form.keys,resp_form.rt,resp_form.started,resp_form.stopped,survey_instructions.started,survey_instructions.stopped,key_resp_2.keys,key_resp_2.rt,key_resp_2.started,key_resp_2.stopped,form.index,form.itemText,form.type,form.response,form.rt,key_resp.keys,key_resp.rt,key_resp.started,key_resp.stopped,text_3.started,text_3.stopped,rate_smile.response,rate_smile.rt,rate_smile.started,rate_smile.stopped,key_resp_5.keys,key_resp_5.rt,key_resp_5.started,key_resp_5.stopped,end_msg.started,end_msg.stopped,end_resp.keys,end_resp.rt,end_resp.started,end_resp.stopped,participant,session,gender,age,LEFT,RIGHT,date,expName,psychopyVersion,frameRate,
,,,,,,,,,,,,,,,,,,,,,,,,,,,,,,,,,,,,,,S-H,61.3235052,None,num_add,36.21190349999961,,,,,,,,,,,,,,,,,,,,,,,,,,,,,,,,,,,,,,,,,,,,,,,,,,,,,,,,,,,,,,,,,,,,,,,,,,,,,,,,,,,,,,,,,,,,,,,,,,,,,,,,,,,,,,,,,,,,,,,,,,14,001,male,27,500,450,2022_Sep_20_1203,Experiment,2021.1.4,360.1176864389807,
,,,,,,,,,,,,,,,,,,,,,,,,,,,,,,,,,,,,,,,,,,,97.5446447000013,99.58843220000017,1,"This scale consistes of a number of words that describe different feelings and emotion. Read each item and then list the number from the scale below each word. Indicate (by clicking) to what extend you feel this way RIGHT NOW, that is, AT THE PRESENT MOMENT.",description,,,,,,,,,,,,,,,,,,,,,,,,,,,,,,,,,,,,,,,,,,,,,,,,,,,,,,,,,,,,,,,,,,,,,,,,,,,,,,,,,,,,,,,,,,,,,,,,,,,,,,,,,,,,,,,,,,,,,14,001,male,27,500,450,2022_Sep_20_1203,Experiment,2021.1.4,360.1176864389807,
,,,,,,,,,,,,,,,,,,,,,,,,,,,,,,,,,,,,,,,,,,,,,2,Interested,rating,3.0,28.21379379999962,,,,,,,,,,,,,,,,,,,,,,,,,,,,,,,,,,,,,,,,,,,,,,,,,,,,,,,,,,,,,,,,,,,,,,,,,,,,,,,,,,,,,,,,,,,,,,,,,,,,,,,,,,,,,,,,,,,14,001,male,27,500,450,2022_Sep_20_1203,Experiment,2021.1.4,360.1176864389807,
,,,,,,,,,,,,,,,,,,,,,,,,,,,,,,,,,,,,,,,,,,,,,3,Distressed,rating,1.0,31.148123900000428,,,,,,,,,,,,,,,,,,,,,,,,,,,,,,,,,,,,,,,,,,,,,,,,,,,,,,,,,,,,,,,,,,,,,,,,,,,,,,,,,,,,,,,,,,,,,,,,,,,,,,,,,,,,,,,,,,,14,001,male,27,500,450,2022_Sep_20_1203,Experiment,2021.1.4,360.1176864389807,
,,,,,,,,,,,,,,,,,,,,,,,,,,,,,,,,,,,,,,,,,,,,,4,Excited,rating,4.0,32.793121200000314,,,,,,,,,,,,,,,,,,,,,,,,,,,,,,,,,,,,,,,,,,,,,,,,,,,,,,,,,,,,,,,,,,,,,,,,,,,,,,,,,,,,,,,,,,,,,,,,,,,,,,,,,,,,,,,,,,,14,001,male,27,500,450,2022_Sep_20_1203,Experiment,2021.1.4,360.1176864389807,
,,,,,,,,,,,,,,,,,,,,,,,,,,,,,,,,,,,,,,,,,,,,,5,Upset,rating,1.0,37.17877539999972,,,,,,,,,,,,,,,,,,,,,,,,,,,,,,,,,,,,,,,,,,,,,,,,,,,,,,,,,,,,,,,,,,,,,,,,,,,,,,,,,,,,,,,,,,,,,,,,,,,,,,,,,,,,,,,,,,,14,001,male,27,500,450,2022_Sep_20_1203,Experiment,2021.1.4,360.1176864389807,
,,,,,,,,,,,,,,,,,,,,,,,,,,,,,,,,,,,,,,,,,,,,,6,Strong,rating,4.0,49.30417750000015,,,,,,,,,,,,,,,,,,,,,,,,,,,,,,,,,,,,,,,,,,,,,,,,,,,,,,,,,,,,,,,,,,,,,,,,,,,,,,,,,,,,,,,,,,,,,,,,,,,,,,,,,,,,,,,,,,,14,001,male,27,500,450,2022_Sep_20_1203,Experiment,2021.1.4,360.1176864389807,
,,,,,,,,,,,,,,,,,,,,,,,,,,,,,,,,,,,,,,,,,,,,,7,Guilty,rating,1.0,11.53402559999995,,,,,,,,,,,,,,,,,,,,,,,,,,,,,,,,,,,,,,,,,,,,,,,,,,,,,,,,,,,,,,,,,,,,,,,,,,,,,,,,,,,,,,,,,,,,,,,,,,,,,,,,,,,,,,,,,,,14,001,male,27,500,450,2022_Sep_20_1203,Experiment,2021.1.4,360.1176864389807,
,,,,,,,,,,,,,,,,,,,,,,,,,,,,,,,,,,,,,,,,,,,,,8,Scared,rating,1.0,12.813901099998475,,,,,,,,,,,,,,,,,,,,,,,,,,,,,,,,,,,,,,,,,,,,,,,,,,,,,,,,,,,,,,,,,,,,,,,,,,,,,,,,,,,,,,,,,,,,,,,,,,,,,,,,,,,,,,,,,,,14,001,male,27,500,450,2022_Sep_20_1203,Experiment,2021.1.4,360.1176864389807,
,,,,,,,,,,,,,,,,,,,,,,,,,,,,,,,,,,,,,,,,,,,,,9,Hostile,rating,1.0,16.642584400000487,,,,,,,,,,,,,,,,,,,,,,,,,,,,,,,,,,,,,,,,,,,,,,,,,,,,,,,,,,,,,,,,,,,,,,,,,,,,,,,,,,,,,,,,,,,,,,,,,,,,,,,,,,,,,,,,,,,14,001,male,27,500,450,2022_Sep_20_1203,Experiment,2021.1.4,360.1176864389807,
,,,,,,,,,,,,,,,,,,,,,,,,,,,,,,,,,,,,,,,,,,,,,10,Enthusiastic,rating,4.0,13.217438100000436,,,,,,,,,,,,,,,,,,,,,,,,,,,,,,,,,,,,,,,,,,,,,,,,,,,,,,,,,,,,,,,,,,,,,,,,,,,,,,,,,,,,,,,,,,,,,,,,,,,,,,,,,,,,,,,,,,,14,001,male,27,500,450,2022_Sep_20_1203,Experiment,2021.1.4,360.1176864389807,
,,,,,,,,,,,,,,,,,,,,,,,,,,,,,,,,,,,,,,,,,,,,,11,Proud,rating,3.0,10.691156099999716,,,,,,,,,,,,,,,,,,,,,,,,,,,,,,,,,,,,,,,,,,,,,,,,,,,,,,,,,,,,,,,,,,,,,,,,,,,,,,,,,,,,,,,,,,,,,,,,,,,,,,,,,,,,,,,,,,,14,001,male,27,500,450,2022_Sep_20_1203,Experiment,2021.1.4,360.1176864389807,
,,,,,,,,,,,,,,,,,,,,,,,,,,,,,,,,,,,,,,,,,,,,,12,Irritable,rating,3.0,12.327698700000838,,,,,,,,,,,,,,,,,,,,,,,,,,,,,,,,,,,,,,,,,,,,,,,,,,,,,,,,,,,,,,,,,,,,,,,,,,,,,,,,,,,,,,,,,,,,,,,,,,,,,,,,,,,,,,,,,,,14,001,male,27,500,450,2022_Sep_20_1203,Experiment,2021.1.4,360.1176864389807,
,,,,,,,,,,,,,,,,,,,,,,,,,,,,,,,,,,,,,,,,,,,,,13,Alert,rating,3.0,10.714816800000335,,,,,,,,,,,,,,,,,,,,,,,,,,,,,,,,,,,,,,,,,,,,,,,,,,,,,,,,,,,,,,,,,,,,,,,,,,,,,,,,,,,,,,,,,,,,,,,,,,,,,,,,,,,,,,,,,,,14,001,male,27,500,450,2022_Sep_20_1203,Experiment,2021.1.4,360.1176864389807,
,,,,,,,,,,,,,,,,,,,,,,,,,,,,,,,,,,,,,,,,,,,,,14,Ashamed,rating,1.0,10.551084900000205,,,,,,,,,,,,,,,,,,,,,,,,,,,,,,,,,,,,,,,,,,,,,,,,,,,,,,,,,,,,,,,,,,,,,,,,,,,,,,,,,,,,,,,,,,,,,,,,,,,,,,,,,,,,,,,,,,,14,001,male,27,500,450,2022_Sep_20_1203,Experiment,2021.1.4,360.1176864389807,
,,,,,,,,,,,,,,,,,,,,,,,,,,,,,,,,,,,,,,,,,,,,,15,Inspired,rating,2.0,14.465890900000886,,,,,,,,,,,,,,,,,,,,,,,,,,,,,,,,,,,,,,,,,,,,,,,,,,,,,,,,,,,,,,,,,,,,,,,,,,,,,,,,,,,,,,,,,,,,,,,,,,,,,,,,,,,,,,,,,,,14,001,male,27,500,450,2022_Sep_20_1203,Experiment,2021.1.4,360.1176864389807,
,,,,,,,,,,,,,,,,,,,,,,,,,,,,,,,,,,,,,,,,,,,,,16,Nervous,rating,1.0,14.571081799998865,,,,,,,,,,,,,,,,,,,,,,,,,,,,,,,,,,,,,,,,,,,,,,,,,,,,,,,,,,,,,,,,,,,,,,,,,,,,,,,,,,,,,,,,,,,,,,,,,,,,,,,,,,,,,,,,,,,14,001,male,27,500,450,2022_Sep_20_1203,Experiment,2021.1.4,360.1176864389807,
,,,,,,,,,,,,,,,,,,,,,,,,,,,,,,,,,,,,,,,,,,,,,17,Determined,rating,3.0,12.088336900000286,,,,,,,,,,,,,,,,,,,,,,,,,,,,,,,,,,,,,,,,,,,,,,,,,,,,,,,,,,,,,,,,,,,,,,,,,,,,,,,,,,,,,,,,,,,,,,,,,,,,,,,,,,,,,,,,,,,14,001,male,27,500,450,2022_Sep_20_1203,Experiment,2021.1.4,360.1176864389807,
,,,,,,,,,,,,,,,,,,,,,,,,,,,,,,,,,,,,,,,,,,,,,18,Attentive,rating,3.0,12.545776299999488,,,,,,,,,,,,,,,,,,,,,,,,,,,,,,,,,,,,,,,,,,,,,,,,,,,,,,,,,,,,,,,,,,,,,,,,,,,,,,,,,,,,,,,,,,,,,,,,,,,,,,,,,,,,,,,,,,,14,001,male,27,500,450,2022_Sep_20_1203,Experiment,2021.1.4,360.1176864389807,
,,,,,,,,,,,,,,,,,,,,,,,,,,,,,,,,,,,,,,,,,,,,,19,Jittery,rating,1.0,9.163159300000189,,,,,,,,,,,,,,,,,,,,,,,,,,,,,,,,,,,,,,,,,,,,,,,,,,,,,,,,,,,,,,,,,,,,,,,,,,,,,,,,,,,,,,,,,,,,,,,,,,,,,,,,,,,,,,,,,,,14,001,male,27,500,450,2022_Sep_20_1203,Experiment,2021.1.4,360.1176864389807,
,,,,,,,,,,,,,,,,,,,,,,,,,,,,,,,,,,,,,,,,,,,,,20,Active,rating,2.0,9.31529910000063,,,,,,,,,,,,,,,,,,,,,,,,,,,,,,,,,,,,,,,,,,,,,,,,,,,,,,,,,,,,,,,,,,,,,,,,,,,,,,,,,,,,,,,,,,,,,,,,,,,,,,,,,,,,,,,,,,,14,001,male,27,500,450,2022_Sep_20_1203,Experiment,2021.1.4,360.1176864389807,
,,,,,,,,,,,,,,,,,,,,,,,,,,,,,,,,,,,,,,,,,,,,,21,Afraid,rating,1.0,7.9648668999998335,,,,,,,,,,,,,,,,,,,,,,,,,,,,,,,,,,,,,,,,,,,,,,,,,,,,,,,,,,,,,,,,,,,,,,,,,,,,,,,,,,,,,,,,,,,,,,,,,,,,,,,,,,,,,,,,,,,14,001,male,27,500,450,2022_Sep_20_1203,Experiment,2021.1.4,360.1176864389807,
,,,,,,,,,,,,,,,,,,,,,,,,,,,,,,,,,,,,,,,,,,,,,22,Press the + button to submit your answers,description,,,,,,,,,,,,,,,,,,,,,,,,,,,,,,,,,,,,,,,,,,,,,,,,,,,,,,,,,,,,,,,,,,,,,,,,,,,,,,,,,,,,,,,,,,,,,,,,,,,,,,,,,,,,,,,,,,,,,14,001,male,27,500,450,2022_Sep_20_1203,Experiment,2021.1.4,360.1176864389807,
,,,,,,,,,,,,,,,,,,,,,,,,,,,,,,,,,,,,,,,,,,,,,,,,,,num_add,84.25816339999983,107.60539779999999,None,,,,,,,,,,,,,,,,,,,,,,,,,,,,,,,,,,,,,,,,,,,,,,,,,,,,,,,,,,,,,,,,,,,,,,,,,,,,,,,,,,,,,,,,,,,,,,,,,,,,,,,,,,,,,,,14,001,male,27,500,450,2022_Sep_20_1203,Experiment,2021.1.4,360.1176864389807,
,,,,,,,,,,,,,,,,,,,,,,,,,,,,,,,,,,,,,,,,,,,,,,,,,,,,,,191.91563680000036,None,num_add,34.88386739999987,,,,,,,,,,,,,,,,,,,,,,,,,,,,,,,,,,,,,,,,,,,,,,,,,,,,,,,,,,,,,,,,,,,,,,,,,,,,,,,,,,,,,,,,,,,,,,,,,,,,,,,,,,,14,001,male,27,500,450,2022_Sep_20_1203,Experiment,2021.1.4,360.1176864389807,
,,,,,,,,,,,,,,,,,,,,,,,,,,,,,,,,,,,,,,,,,,,,,,,,,,,,,,,,,,226.81028049999986,None,num_add,8.325151900000492,226.81028049999986,None,,,,,,,,,,,,,,,,,,,,,,,,,,,,,,,,,,,,,,,,,,,,,,,,,,,,,,,,,,,,,,,,,,,,,,,,,,,,,,,,,,,,,,,,,,,,,,,,,,,,,14,001,male,27,500,450,2022_Sep_20_1203,Experiment,2021.1.4,360.1176864389807,
,,,,,,,,,,,,,,,,,,,,,,,,,,,,,,,,,,,,,,,,,,,,,,,,,,,,,,,,,,,,,,,,235.15773210000043,None,num_add,12.105529799999204,,,,,,,,,,,,,,,,,,,,,,,,,,,,,,,,,,,,,,,,,,,,,,,,,,,,,,,,,,,,,,,,,,,,,,,,,,,,,,,,,,,,,,,,,,,,,,,,,14,001,male,27,500,450,2022_Sep_20_1203,Experiment,2021.1.4,360.1176864389807,
,,,,,,,,,,,,,,,,,,,,,,,,,,,,,,,,,,,,,,,,,,,,,,,,,,,,,,,,,,,,,,,,,,,,247.27341230000093,None,space,28.821914799998922,,,,,,,,,,,,,,,,,,,,,,,,,,,,,,,,,,,,,,,,,,,,,,,,,,,,,,,,,,,,,,,,,,,,,,,,,,,,,,,,,,,,,,,,,,,,,14,001,male,27,500,450,2022_Sep_20_1203,Experiment,2021.1.4,360.1176864389807,
images\S21_F_H_02.png,images\S21_F_H_02_scrambled.png,21,Happy,-0.2,F,0,0,practice,off,1,0.5,0.75,0.5,0.91,3,,,,,,,,,,,0,0,0,1,,,,,,,,,,,,,,,,,,,,,,,,,,,,,,,,,,,,,,,,,,,276.27557069999966,276.78097999999954,276.78097999999954,277.53630180000073,277.53630180000073,278.03903720000017,278.03903720000017,278.95543200000066,278.95543200000066,None,num_6,0.18877550000070187,278.95543200000066,None,,,,,,,,,,,,,,,,,,,,,,,,,,,,,,,,,,,,,,,,,,,,,,,,,,,,,,,,,,,,,,,,,,,,,,,,,,,,,,,14,001,male,27,500,450,2022_Sep_20_1203,Experiment,2021.1.4,360.1176864389807,
images\S22_M_S_02.png,images\S22_M_S_02_scrambled.png,22,Sad,0.2,M,0,0,practice,off,1,0.5,0.75,0.5,0.751,3,,,,,,,,,,,0,1,1,3,,,,,,,,,,,,,,,,,,,,,,,,,,,,,,,,,,,,,,,,,,,279.26076319999993,279.76337050000075,279.76337050000075,280.5131672000007,280.5131672000007,281.01871589999973,281.01871589999973,281.77398560000074,281.77398560000074,None,num_4,2.7457271000002947,281.77398560000074,None,,,,,,,,,,,,,,,,,,,,,,,,,,,,,,,,,,,,,,,,,,,,,,,,,,,,,,,,,,,,,,,,,,,,,,,,,,,,,,,14,001,male,27,500,450,2022_Sep_20_1203,Experiment,2021.1.4,360.1176864389807,
images\S22_M_S_02.png,images\S22_M_S_02_scrambled.png,22,Sad,0.2,M,0,0,practice,on,2,0.5,0.75,0.5,0.783,3,,,,,,,,,,,0,2,2,6,,,,,,,,,,,,,,,,,,,,,,,,,,,,,,,,,,,,,,,,,,,284.57300620000024,285.0756498999999,285.0756498999999,285.8283441000003,285.8283441000003,286.33080530000007,286.33080530000007,287.11947260000125,287.11947260000125,None,num_6,2.0643311999992875,287.11947260000125,None,,,,,,,,,,,,,,,,,,,,,,,,,,,,,,,,,,,,,,,,,,,,,,,,,,,,,,,,,,,,,,,,,,,,,,,,,,,,,,,14,001,male,27,500,450,2022_Sep_20_1203,Experiment,2021.1.4,360.1176864389807,
images\S22_M_H_02.png,images\S22_M_H_02_scrambled.png,22,Happy,-0.2,M,0,0,practice,off,1,0.5,0.75,0.5,0.883,3,,,,,,,,,,,0,3,3,2,,,,,,,,,,,,,,,,,,,,,,,,,,,,,,,,,,,,,,,,,,,289.27157090000037,289.7741810000007,289.7741810000007,290.52397180000116,290.52397180000116,291.0294180000001,291.0294180000001,291.91520800000035,291.91520800000035,None,num_6,0.396485199999006,291.91520800000035,None,,,,,,,,,,,,,,,,,,,,,,,,,,,,,,,,,,,,,,,,,,,,,,,,,,,,,,,,,,,,,,,,,,,,,,,,,,,,,,,14,001,male,27,500,450,2022_Sep_20_1203,Experiment,2021.1.4,360.1176864389807,
images\S22_M_S_03.png,images\S22_M_S_03_scrambled.png,22,Sad,0.3,M,0,0,practice,on,2,0.5,0.75,0.5,0.794,3,,,,,,,,,,,0,4,4,7,,,,,,,,,,,,,,,,,,,,,,,,,,,,,,,,,,,,,,,,,,,292.40392559999964,292.9093926000005,292.9093926000005,293.66186840000046,293.66186840000046,294.1645582000001,294.1645582000001,294.96433160000015,294.96433160000015,None,num_4,0.6353092999997898,294.96433160000015,None,,,,,,,,,,,,,,,,,,,,,,,,,,,,,,,,,,,,,,,,,,,,,,,,,,,,,,,,,,,,,,,,,,,,,,,,,,,,,,,14,001,male,27,500,450,2022_Sep_20_1203,Experiment,2021.1.4,360.1176864389807,
images\S21_F_H_01.png,images\S21_F_H_01_scrambled.png,21,Happy,-0.1,F,0,0,practice,off,1,0.5,0.75,0.5,0.853,3,,,,,,,,,,,0,5,5,0,,,,,,,,,,,,,,,,,,,,,,,,,,,,,,,,,,,,,,,,,,,295.68624439999985,296.18896529999984,296.18896529999984,296.944255800001,296.944255800001,297.4496710000003,297.4496710000003,298.3049487999997,298.3049487999997,None,num_6,0.5268968000000314,298.3049487999997,None,,,,,,,,,,,,,,,,,,,,,,,,,,,,,,,,,,,,,,,,,,,,,,,,,,,,,,,,,,,,,,,,,,,,,,,,,,,,,,,14,001,male,27,500,450,2022_Sep_20_1203,Experiment,2021.1.4,360.1176864389807,
images\S22_M_S_01.png,images\S22_M_S_01_scrambled.png,22,Sad,0.1,M,0,0,practice,on,2,0.5,0.75,0.5,0.867,3,,,,,,,,,,,0,6,6,5,,,,,,,,,,,,,,,,,,,,,,,,,,,,,,,,,,,,,,,,,,,298.92691039999954,299.4295973999997,299.4295973999997,300.18214030000127,300.18214030000127,300.6819131000011,300.6819131000011,301.554003700001,301.554003700001,None,num_6,1.1173417999998492,301.554003700001,None,,,,,,,,,,,,,,,,,,,,,,,,,,,,,,,,,,,,,,,,,,,,,,,,,,,,,,,,,,,,,,,,,,,,,,,,,,,,,,,14,001,male,27,500,450,2022_Sep_20_1203,Experiment,2021.1.4,360.1176864389807,
images\S22_M_S_03.png,images\S22_M_S_03_scrambled.png,22,Sad,0.3,M,0,0,practice,on,2,0.5,0.75,0.5,0.87,3,,,,,,,,,,,0,7,7,4,,,,,,,,,,,,,,,,,,,,,,,,,,,,,,,,,,,,,,,,,,,302.7451755000002,303.2450107000004,303.2450107000004,303.99478610000006,303.99478610000006,304.4947009999996,304.4947009999996,305.3694549000011,305.3694549000011,None,num_4,0.574091700000281,305.3694549000011,None,,,,,,,,,,,,,,,,,,,,,,,,,,,,,,,,,,,,,,,,,,,,,,,,,,,,,,,,,,,,,,,,,,,,,,,,,,,,,,,14,001,male,27,500,450,2022_Sep_20_1203,Experiment,2021.1.4,360.1176864389807,
,,,,,,,,,,,,,,,,,,,,,,,,,,,,,,,,,,,,,,,,,,,,,,,,,,,,,,,,,,,,,,,,,,,,,,,,,,,,,,,,,,,,,,305.9775081000007,None,space,100.0454297999986,,,,,,,,,,,,,,,,,,,,,,,,,,,,,,,,,,,,,,,,,,,,,,,,,,,,,,,,,,,,,,,,,,,,,,,,,,,14,001,male,27,500,450,2022_Sep_20_1203,Experiment,2021.1.4,360.1176864389807,
images\S6_M_S_01.png,images\S6_M_S_01_scrambled.png,6,sad,-10,male,3,,94,on,2,0.5,0.75,0.5,0.947,3,93,1,1,1,2,2,32,128,163,,,,,,0,0,0,0,,,,,,,,,,,,,,,,,,,,,,,,,,,,,,,,,,,,,,,,,,,,,,,,,,,,,,,,,406.52148230000057,407.0213412000012,407.0213412000012,407.77112970000053,407.77112970000053,408.276663300001,408.276663300001,409.22912220000035,409.22912220000035,None,num_4,0.27487420000034035,409.22912220000035,None,sad,0,Sad,409.52905696000016,None,None,409.52905696000016,None,,,,,,,,,,,,,,,,,,,,,,,,,,,,,,,,,,,,,,,,,,,,,,,,,,,,,14,001,male,27,500,450,2022_Sep_20_1203,Experiment,2021.1.4,360.1176864389807,
images\S10_M_S_01.png,images\S10_M_S_01_scrambled.png,10,sad,-10,male,3,,538,off,1,0.5,0.75,0.5,0.823,3,537,1,1,2,0,0,0,0,3,,,,,,0,1,1,1,,,,,,,,,,,,,,,,,,,,,,,,,,,,,,,,,,,,,,,,,,,,,,,,,,,,,,,,,409.6427358000001,410.1455566000004,410.1455566000004,410.8979710000003,410.8979710000003,411.4033625000011,411.4033625000011,412.23360909999974,412.23360909999974,None,num_6,0.12629980000019714,412.23360909999974,None,happy,0,Sad,412.3726011100007,None,None,412.3726011100007,None,,,,,,,,,,,,,,,,,,,,,,,,,,,,,,,,,,,,,,,,,,,,,,,,,,,,,14,001,male,27,500,450,2022_Sep_20_1203,Experiment,2021.1.4,360.1176864389807,
images\S1_F_S_03.png,images\S1_F_S_03_scrambled.png,1,sad,-30,female,1,,66,on,2,0.5,0.75,0.5,0.802,3,65,1,1,1,2,2,32,128,161,,,,,,0,2,2,2,,,,,,,,,,,,,,,,,,,,,,,,,,,,,,,,,,,,,,,,,,,,,,,,,,,,,,,,,412.48907900000086,412.99187019999954,412.99187019999954,413.74711019999995,413.74711019999995,414.246869300001,414.246869300001,415.05217260000063,415.05217260000063,None,num_4,0.6274032000001171,415.05217260000063,None,sad,0,Sad,415.7075545000007,None,None,415.7075545000007,None,,,,,,,,,,,,,,,,,,,,,,,,,,,,,,,,,,,,,,,,,,,,,,,,,,,,,14,001,male,27,500,450,2022_Sep_20_1203,Experiment,2021.1.4,360.1176864389807,
images\blank.jpg,images\blank.jpg,none,none,none,none,0,,602,on,2,0.5,0.75,0.5,0.843,0,601,2,1,1,3,3,48,192,240,,,,,,0,3,3,3,,,,,,,,,,,,,,,,,,,,,,,,,,,,,,,,,,,,,,,,,,,,,,,,,,,,,,,,,415.83282959999997,416.33796900000016,416.33796900000016,417.0932694000003,417.0932694000003,417.5960305999997,417.5960305999997,418.4400523000004,418.4400523000004,418.4400523000004,None,,418.4400523000004,None,miss,0,,421.44199493999986,None,None,421.44199493999986,None,,,,,,,,,,,,,,,,,,,,,,,,,,,,,,,,,,,,,,,,,,,,,,,,,,,,,14,001,male,27,500,450,2022_Sep_20_1203,Experiment,2021.1.4,360.1176864389807,
images\S3_F_H_02.png,images\S3_F_H_02_scrambled.png,3,happy,20,female,5,,314,on,2,0.5,0.75,0.5,0.864,3,313,3,1,1,2,2,32,128,165,,,,,,0,4,4,4,,,,,,,,,,,,,,,,,,,,,,,,,,,,,,,,,,,,,,,,,,,,,,,,,,,,,,,,,421.6004023000005,422.1028825000012,422.1028825000012,422.8525604999995,422.8525604999995,423.3580254999997,423.3580254999997,424.2215659000012,424.2215659000012,None,None,,424.2215659000012,421.6004023000005,miss,0,Happy,427.2206594700001,None,None,427.2206594700001,None,,,,,,,,,,,,,,,,,,,,,,,,,,,,,,,,,,,,,,,,,,,,,,,,,,,,,14,001,male,27,500,450,2022_Sep_20_1203,Experiment,2021.1.4,360.1176864389807,
images\S7_F_H_03.png,images\S7_F_H_03_scrambled.png,7,happy,30,female,6,,399,off,1,0.5,0.75,0.5,0.875,3,398,1,1,1,0,0,0,0,6,,,,,,0,5,5,5,,,,,,,,,,,,,,,,,,,,,,,,,,,,,,,,,,,,,,,,,,,,,,,,,,,,,,,,,427.30673300000126,427.80942830000095,427.80942830000095,428.55911840000044,428.55911840000044,429.05896920000123,429.05896920000123,429.93928419999975,429.93928419999975,427.30673300000126,num_6,0.5082672000007733,429.93928419999975,427.30673300000126,happy,0,Happy,430.4613149800007,None,None,430.4613149800007,None,,,,,,,,,,,,,,,,,,,,,,,,,,,,,,,,,,,,,,,,,,,,,,,,,,,,,14,001,male,27,500,450,2022_Sep_20_1203,Experiment,2021.1.4,360.1176864389807,
images\S2_M_S_02.png,images\S2_M_S_02_scrambled.png,2,sad,-20,male,2,,251,off,1,0.5,0.75,0.5,0.839,3,250,2,1,1,0,0,0,0,2,,,,,,0,6,6,6,,,,,,,,,,,,,,,,,,,,,,,,,,,,,,,,,,,,,,,,,,,,,,,,,,,,,,,,,430.54740200000015,431.04724590000114,431.04724590000114,431.7997840000007,431.7997840000007,432.2996254999998,432.2996254999998,433.14391780000005,433.14391780000005,None,num_4,0.5517474000007496,433.14391780000005,None,sad,0,Sad,433.7103032800005,None,None,433.7103032800005,None,,,,,,,,,,,,,,,,,,,,,,,,,,,,,,,,,,,,,,,,,,,,,,,,,,,,,14,001,male,27,500,450,2022_Sep_20_1203,Experiment,2021.1.4,360.1176864389807,
images\S4_M_H_01.png,images\S4_M_H_01_scrambled.png,4,happy,10,male,4,,439,on,2,0.5,0.75,0.5,0.913,3,438,1,1,1,2,2,32,128,164,,,,,,0,7,7,7,,,,,,,,,,,,,,,,,,,,,,,,,,,,,,,,,,,,,,,,,,,,,,,,,,,,,,,,,433.7992396000009,434.30463430000054,434.30463430000054,435.05991150000045,435.05991150000045,435.56531519999953,435.56531519999953,436.48452240000006,436.48452240000006,None,num_4,0.6027714000010747,436.48452240000006,None,sad,0,Happy,437.1009360799999,None,None,437.1009360799999,None,,,,,,,,,,,,,,,,,,,,,,,,,,,,,,,,,,,,,,,,,,,,,,,,,,,,,14,001,male,27,500,450,2022_Sep_20_1203,Experiment,2021.1.4,360.1176864389807,
images\S8_M_H_02.png,images\S8_M_H_02_scrambled.png,8,happy,20,male,5,,164,off,1,0.5,0.75,0.5,0.921,3,163,1,1,1,0,0,0,0,5,,,,,,0,8,8,8,,,,,,,,,,,,,,,,,,,,,,,,,,,,,,,,,,,,,,,,,,,,,,,,,,,,,,,,,437.2092293000005,437.71185719999994,437.71185719999994,438.46446149999974,438.46446149999974,438.9698182000011,438.9698182000011,439.8917313000002,439.8917313000002,None,num_6,0.7159535999999207,439.8917313000002,None,happy,0,Happy,440.6220595800005,None,None,440.6220595800005,None,,,,,,,,,,,,,,,,,,,,,,,,,,,,,,,,,,,,,,,,,,,,,,,,,,,,,14,001,male,27,500,450,2022_Sep_20_1203,Experiment,2021.1.4,360.1176864389807,
images\S5_F_H_02.png,images\S5_F_H_02_scrambled.png,5,happy,20,female,5,,26,off,1,0.5,0.75,0.5,0.765,3,25,2,1,2,0,0,0,0,5,,,,,,0,9,9,9,,,,,,,,,,,,,,,,,,,,,,,,,,,,,,,,,,,,,,,,,,,,,,,,,,,,,,,,,440.7053713000005,441.21080840000104,441.21080840000104,441.96333140000024,441.96333140000024,442.468837800001,442.468837800001,443.24071300000105,443.24071300000105,None,num_6,0.9587978999988991,443.24071300000105,None,happy,0,Happy,444.21262398,None,None,444.21262398,None,,,,,,,,,,,,,,,,,,,,,,,,,,,,,,,,,,,,,,,,,,,,,,,,,,,,,14,001,male,27,500,450,2022_Sep_20_1203,Experiment,2021.1.4,360.1176864389807,
images\blank.jpg,images\blank.jpg,none,none,none,none,0,,634,on,2,0.5,0.75,0.5,0.782,0,633,1,1,1,3,3,48,192,240,,,,,,0,10,10,10,,,,,,,,,,,,,,,,,,,,,,,,,,,,,,,,,,,,,,,,,,,,,,,,,,,,,,,,,444.2961821000008,444.79577080000126,444.79577080000126,445.54832850000093,445.54832850000093,446.04821919999995,446.04821919999995,446.8312536000012,446.8312536000012,446.8312536000012,None,,446.8312536000012,None,miss,0,,449.8332882400009,None,None,449.8332882400009,None,,,,,,,,,,,,,,,,,,,,,,,,,,,,,,,,,,,,,,,,,,,,,,,,,,,,,14,001,male,27,500,450,2022_Sep_20_1203,Experiment,2021.1.4,360.1176864389807,
images\blank.jpg,images\blank.jpg,none,none,none,none,0,,635,on,2,0.5,0.75,0.5,0.766,0,634,2,2,2,3,3,48,192,240,,,,,,0,11,11,11,,,,,,,,,,,,,,,,,,,,,,,,,,,,,,,,,,,,,,,,,,,,,,,,,,,,,,,,,449.86922570000024,450.3746299000013,450.3746299000013,451.1299517999996,451.1299517999996,451.6297704999997,451.6297704999997,452.39905949999957,452.39905949999957,452.39905949999957,None,,452.39905949999957,449.86922570000024,miss,0,,455.40378284000144,None,None,455.40378284000144,None,,,,,,,,,,,,,,,,,,,,,,,,,,,,,,,,,,,,,,,,,,,,,,,,,,,,,14,001,male,27,500,450,2022_Sep_20_1203,Experiment,2021.1.4,360.1176864389807,
images\S3_F_S_02.png,images\S3_F_S_02_scrambled.png,3,sad,-20,female,2,,197,on,2,0.5,0.75,0.5,0.913,3,196,3,1,1,2,2,32,128,162,,,,,,0,12,12,12,,,,,,,,,,,,,,,,,,,,,,,,,,,,,,,,,,,,,,,,,,,,,,,,,,,,,,,,,455.57867140000053,456.0811749000004,456.0811749000004,456.8338246000003,456.8338246000003,457.33921440000086,457.33921440000086,458.2612059000003,458.2612059000003,None,num_4,0.5059335999994801,458.2612059000003,455.57867140000053,sad,0,Sad,458.77758328000164,None,None,458.77758328000164,None,,,,,,,,,,,,,,,,,,,,,,,,,,,,,,,,,,,,,,,,,,,,,,,,,,,,,14,001,male,27,500,450,2022_Sep_20_1203,Experiment,2021.1.4,360.1176864389807,
images\blank.jpg,images\blank.jpg,none,none,none,none,0,,640,on,2,0.5,0.75,0.5,0.841,0,639,4,1,1,3,3,48,192,240,,,,,,0,13,13,13,,,,,,,,,,,,,,,,,,,,,,,,,,,,,,,,,,,,,,,,,,,,,,,,,,,,,,,,,458.8610538000012,459.36351410000134,459.36351410000134,460.1189054000006,460.1189054000006,460.62428590000127,460.62428590000127,461.4685773000001,461.4685773000001,461.4685773000001,None,,461.4685773000001,None,miss,0,,464.47307814000123,None,None,464.47307814000123,None,,,,,,,,,,,,,,,,,,,,,,,,,,,,,,,,,,,,,,,,,,,,,,,,,,,,,14,001,male,27,500,450,2022_Sep_20_1203,Experiment,2021.1.4,360.1176864389807,
images\S10_M_H_02.png,images\S10_M_H_02_scrambled.png,10,happy,20,male,5,,596,on,2,0.5,0.75,0.5,0.94,3,595,5,1,1,2,2,32,128,165,,,,,,0,14,14,14,,,,,,,,,,,,,,,,,,,,,,,,,,,,,,,,,,,,,,,,,,,,,,,,,,,,,,,,,464.6204794000005,465.1256222000011,465.1256222000011,465.8809465000013,465.8809465000013,466.3836914000003,466.3836914000003,467.3277202999998,467.3277202999998,None,num_6,0.5757497000013245,467.3277202999998,464.6204794000005,happy,0,Happy,467.91365898000004,None,None,467.91365898000004,None,,,,,,,,,,,,,,,,,,,,,,,,,,,,,,,,,,,,,,,,,,,,,,,,,,,,,14,001,male,27,500,450,2022_Sep_20_1203,Experiment,2021.1.4,360.1176864389807,
images\S3_F_S_02.png,images\S3_F_S_02_scrambled.png,3,sad,-20,female,2,,497,off,1,0.5,0.75,0.5,0.803,3,496,1,1,1,0,0,0,0,2,,,,,,0,15,15,15,,,,,,,,,,,,,,,,,,,,,,,,,,,,,,,,,,,,,,,,,,,,,,,,,,,,,,,,,467.9636268000013,468.46920070000124,468.46920070000124,469.2216672000013,469.2216672000013,469.7242586000011,469.7242586000011,470.5295719000005,470.5295719000005,None,num_4,0.4221319999996922,470.5295719000005,None,sad,0,Sad,470.97946346000026,None,None,470.97946346000026,None,,,,,,,,,,,,,,,,,,,,,,,,,,,,,,,,,,,,,,,,,,,,,,,,,,,,,14,001,male,27,500,450,2022_Sep_20_1203,Experiment,2021.1.4,360.1176864389807,
images\S9_F_H_02.png,images\S9_F_H_02_scrambled.png,9,happy,20,female,5,,530,off,1,0.5,0.75,0.5,0.776,3,529,2,1,1,0,0,0,0,5,,,,,,0,16,16,16,,,,,,,,,,,,,,,,,,,,,,,,,,,,,,,,,,,,,,,,,,,,,,,,,,,,,,,,,471.0876625000001,471.58753380000053,471.58753380000053,472.3372725999998,472.3372725999998,472.8428469999999,472.8428469999999,473.62319899999966,473.62319899999966,None,num_6,0.5360010999993392,473.62319899999966,None,happy,0,Happy,474.19228657000167,None,None,474.19228657000167,None,,,,,,,,,,,,,,,,,,,,,,,,,,,,,,,,,,,,,,,,,,,,,,,,,,,,,14,001,male,27,500,450,2022_Sep_20_1203,Experiment,2021.1.4,360.1176864389807,
images\S7_F_H_01.png,images\S7_F_H_01_scrambled.png,7,happy,10,female,4,,397,off,1,0.5,0.75,0.5,0.769,3,396,3,1,1,0,0,0,0,4,,,,,,0,17,17,17,,,,,,,,,,,,,,,,,,,,,,,,,,,,,,,,,,,,,,,,,,,,,,,,,,,,,,,,,474.300558500001,474.8033718000006,474.8033718000006,475.5557389000005,475.5557389000005,476.05851520000033,476.05851520000033,476.8303448000006,476.8303448000006,None,num_4,1.7453188999988924,476.8303448000006,None,sad,0,Happy,478.5853469400008,None,None,478.5853469400008,None,,,,,,,,,,,,,,,,,,,,,,,,,,,,,,,,,,,,,,,,,,,,,,,,,,,,,14,001,male,27,500,450,2022_Sep_20_1203,Experiment,2021.1.4,360.1176864389807,
images\S5_F_H_02.png,images\S5_F_H_02_scrambled.png,5,happy,20,female,5,,206,on,2,0.5,0.75,0.5,0.786,3,205,1,1,1,2,2,32,128,165,,,,,,0,18,18,18,,,,,,,,,,,,,,,,,,,,,,,,,,,,,,,,,,,,,,,,,,,,,,,,,,,,,,,,,478.6325536000004,479.13239989999965,479.13239989999965,479.88499670000056,479.88499670000056,480.3903581000013,480.3903581000013,481.17898480000076,481.17898480000076,None,num_6,0.4602116999994905,481.17898480000076,None,happy,0,Happy,481.6566330500009,None,None,481.6566330500009,None,,,,,,,,,,,,,,,,,,,,,,,,,,,,,,,,,,,,,,,,,,,,,,,,,,,,,14,001,male,27,500,450,2022_Sep_20_1203,Experiment,2021.1.4,360.1176864389807,
images\S8_M_S_03.png,images\S8_M_S_03_scrambled.png,8,sad,-30,male,1,,168,off,1,0.5,0.75,0.5,0.89,3,167,1,1,1,0,0,0,0,1,,,,,,0,19,19,19,,,,,,,,,,,,,,,,,,,,,,,,,,,,,,,,,,,,,,,,,,,,,,,,,,,,,,,,,481.7704410000006,482.2732845999999,482.2732845999999,483.0256554000007,483.0256554000007,483.52840690000085,483.52840690000085,484.4226064000013,484.4226064000013,None,num_4,0.6092778000001999,484.4226064000013,None,sad,0,Sad,485.0585070600009,None,None,485.0585070600009,None,,,,,,,,,,,,,,,,,,,,,,,,,,,,,,,,,,,,,,,,,,,,,,,,,,,,,14,001,male,27,500,450,2022_Sep_20_1203,Experiment,2021.1.4,360.1176864389807,
images\S7_F_H_03.png,images\S7_F_H_03_scrambled.png,7,happy,30,female,6,,159,off,1,0.5,0.75,0.5,0.828,3,158,2,1,1,0,0,0,0,6,,,,,,0,20,20,20,,,,,,,,,,,,,,,,,,,,,,,,,,,,,,,,,,,,,,,,,,,,,,,,,,,,,,,,,485.11388310000075,485.61375380000027,485.61375380000027,486.3691295999997,486.3691295999997,486.8745240999997,486.8745240999997,487.70477539999956,487.70477539999956,None,num_6,0.5987884999995003,487.70477539999956,None,happy,0,Happy,488.3323744600002,None,None,488.3323744600002,None,,,,,,,,,,,,,,,,,,,,,,,,,,,,,,,,,,,,,,,,,,,,,,,,,,,,,14,001,male,27,500,450,2022_Sep_20_1203,Experiment,2021.1.4,360.1176864389807,
images\blank.jpg,images\blank.jpg,none,none,none,none,0,,627,on,2,0.5,0.75,0.5,0.816,0,626,1,1,1,3,3,48,192,240,,,,,,0,21,21,21,,,,,,,,,,,,,,,,,,,,,,,,,,,,,,,,,,,,,,,,,,,,,,,,,,,,,,,,,488.4244147999998,488.9294421000013,488.9294421000013,489.6847209000007,489.6847209000007,490.1901188000011,490.1901188000011,491.0066069000004,491.0066069000004,491.0066069000004,None,,491.0066069000004,None,miss,0,,494.00845714000025,None,None,494.00845714000025,None,,,,,,,,,,,,,,,,,,,,,,,,,,,,,,,,,,,,,,,,,,,,,,,,,,,,,14,001,male,27,500,450,2022_Sep_20_1203,Experiment,2021.1.4,360.1176864389807,
images\S3_F_H_02.png,images\S3_F_H_02_scrambled.png,3,happy,20,female,5,,434,on,2,0.5,0.75,0.5,0.897,3,433,2,1,1,2,2,32,128,165,,,,,,0,22,22,22,,,,,,,,,,,,,,,,,,,,,,,,,,,,,,,,,,,,,,,,,,,,,,,,,,,,,,,,,494.12804049999977,494.6304020999996,494.6304020999996,495.3801586999998,495.3801586999998,495.8829760000008,495.8829760000008,496.77972299999965,496.77972299999965,None,num_6,1.2442659000007552,496.77972299999965,494.12804049999977,happy,0,Happy,498.043355490001,None,None,498.043355490001,None,,,,,,,,,,,,,,,,,,,,,,,,,,,,,,,,,,,,,,,,,,,,,,,,,,,,,14,001,male,27,500,450,2022_Sep_20_1203,Experiment,2021.1.4,360.1176864389807,
images\S3_F_H_01.png,images\S3_F_H_01_scrambled.png,3,happy,10,female,4,,73,on,2,0.5,0.75,0.5,0.768,3,72,3,2,1,2,2,32,128,164,,,,,,0,23,23,23,,,,,,,,,,,,,,,,,,,,,,,,,,,,,,,,,,,,,,,,,,,,,,,,,,,,,,,,,498.15153570000075,498.6542218000013,498.6542218000013,499.4094745000002,499.4094745000002,499.90931889999956,499.90931889999956,500.6841772000007,500.6841772000007,None,num_4,0.5954061000011279,500.6841772000007,None,sad,0,Happy,501.2951070100007,None,None,501.2951070100007,None,,,,,,,,,,,,,,,,,,,,,,,,,,,,,,,,,,,,,,,,,,,,,,,,,,,,,14,001,male,27,500,450,2022_Sep_20_1203,Experiment,2021.1.4,360.1176864389807,
images\S7_F_S_01.png,images\S7_F_S_01_scrambled.png,7,sad,-10,female,3,,280,off,1,0.5,0.75,0.5,0.918,3,279,1,1,1,0,0,0,0,3,,,,,,0,24,24,24,,,,,,,,,,,,,,,,,,,,,,,,,,,,,,,,,,,,,,,,,,,,,,,,,,,,,,,,,501.4032994999998,501.9059367000009,501.9059367000009,502.6586195,502.6586195,503.1639272000011,503.1639272000011,504.08875780000017,504.08875780000017,None,num_4,0.6391223000009632,504.08875780000017,None,sad,0,Sad,504.75243086000046,None,None,504.75243086000046,None,,,,,,,,,,,,,,,,,,,,,,,,,,,,,,,,,,,,,,,,,,,,,,,,,,,,,14,001,male,27,500,450,2022_Sep_20_1203,Experiment,2021.1.4,360.1176864389807,
images\S3_F_H_01.png,images\S3_F_H_01_scrambled.png,3,happy,10,female,4,,193,on,2,0.5,0.75,0.5,0.766,3,192,1,1,1,2,2,32,128,164,,,,,,0,25,25,25,,,,,,,,,,,,,,,,,,,,,,,,,,,,,,,,,,,,,,,,,,,,,,,,,,,,,,,,,504.80780740000046,505.30765190000056,505.30765190000056,506.0574224000011,506.0574224000011,506.55733789999977,506.55733789999977,507.3292870000005,507.3292870000005,None,num_6,1.0383250000013504,507.3292870000005,None,happy,0,Happy,508.38170928,None,None,508.38170928,None,,,,,,,,,,,,,,,,,,,,,,,,,,,,,,,,,,,,,,,,,,,,,,,,,,,,,14,001,male,27,500,450,2022_Sep_20_1203,Experiment,2021.1.4,360.1176864389807,
images\blank.jpg,images\blank.jpg,none,none,none,none,0,,638,on,2,0.5,0.75,0.5,0.824,0,637,2,1,1,3,3,48,192,240,,,,,,0,26,26,26,,,,,,,,,,,,,,,,,,,,,,,,,,,,,,,,,,,,,,,,,,,,,,,,,,,,,,,,,508.4651818000002,508.9705511000011,508.9705511000011,509.72574069999973,509.72574069999973,510.22852740000053,510.22852740000053,511.0558852000013,511.0558852000013,511.0558852000013,None,,511.0558852000013,None,miss,0,,514.0578101400006,None,None,514.0578101400006,None,,,,,,,,,,,,,,,,,,,,,,,,,,,,,,,,,,,,,,,,,,,,,,,,,,,,,14,001,male,27,500,450,2022_Sep_20_1203,Experiment,2021.1.4,360.1176864389807,
images\S6_M_H_02.png,images\S6_M_H_02_scrambled.png,6,happy,20,male,5,,32,off,1,0.5,0.75,0.5,0.941,3,31,1,1,1,0,0,0,0,5,,,,,,0,27,27,27,,,,,,,,,,,,,,,,,,,,,,,,,,,,,,,,,,,,,,,,,,,,,,,,,,,,,,,,,514.2161898000013,514.7214330999996,514.7214330999996,515.4741076999999,515.4741076999999,515.9794992999996,515.9794992999996,516.9263128000002,516.9263128000002,None,num_6,0.5290703999999096,516.9263128000002,514.2161898000013,happy,0,Happy,517.4705718800014,None,None,517.4705718800014,None,,,,,,,,,,,,,,,,,,,,,,,,,,,,,,,,,,,,,,,,,,,,,,,,,,,,,14,001,male,27,500,450,2022_Sep_20_1203,Experiment,2021.1.4,360.1176864389807,
images\S3_F_S_02.png,images\S3_F_S_02_scrambled.png,3,sad,-20,female,2,,377,off,1,0.5,0.75,0.5,0.916,3,376,2,1,1,0,0,0,0,2,,,,,,0,28,28,28,,,,,,,,,,,,,,,,,,,,,,,,,,,,,,,,,,,,,,,,,,,,,,,,,,,,,,,,,517.5205633000005,518.0259474000013,518.0259474000013,518.7812916000003,518.7812916000003,519.2840680999998,519.2840680999998,520.205857500001,520.205857500001,None,num_4,0.3381243000003451,520.205857500001,None,sad,0,Sad,520.5642266900013,None,None,520.5642266900013,None,,,,,,,,,,,,,,,,,,,,,,,,,,,,,,,,,,,,,,,,,,,,,,,,,,,,,14,001,male,27,500,450,2022_Sep_20_1203,Experiment,2021.1.4,360.1176864389807,
images\S1_F_S_03.png,images\S1_F_S_03_scrambled.png,1,sad,-30,female,1,,426,on,2,0.5,0.75,0.5,0.797,3,425,1,1,1,2,2,32,128,161,,,,,,0,29,29,29,,,,,,,,,,,,,,,,,,,,,,,,,,,,,,,,,,,,,,,,,,,,,,,,,,,,,,,,,520.6168236000012,521.116661,521.116661,521.8692244000013,521.8692244000013,522.3747218000008,522.3747218000008,523.1745572,523.1745572,None,num_4,1.0249096999996254,523.1745572,None,sad,0,Sad,524.2185759500007,None,None,524.2185759500007,None,,,,,,,,,,,,,,,,,,,,,,,,,,,,,,,,,,,,,,,,,,,,,,,,,,,,,14,001,male,27,500,450,2022_Sep_20_1203,Experiment,2021.1.4,360.1176864389807,
images\S1_F_S_01.png,images\S1_F_S_01_scrambled.png,1,sad,-10,female,3,,424,on,2,0.5,0.75,0.5,0.829,3,423,2,2,1,2,2,32,128,163,,,,,,0,30,30,30,,,,,,,,,,,,,,,,,,,,,,,,,,,,,,,,,,,,,,,,,,,,,,,,,,,,,,,,,524.3323399000001,524.8349644999998,524.8349644999998,525.5903369000007,525.5903369000007,526.0957036,526.0957036,526.9315497999996,526.9315497999996,None,num_6,0.48384660000010626,526.9315497999996,None,happy,0,Sad,527.4257956100009,None,None,527.4257956100009,None,,,,,,,,,,,,,,,,,,,,,,,,,,,,,,,,,,,,,,,,,,,,,,,,,,,,,14,001,male,27,500,450,2022_Sep_20_1203,Experiment,2021.1.4,360.1176864389807,
images\S1_F_S_01.png,images\S1_F_S_01_scrambled.png,1,sad,-10,female,3,,4,off,1,0.5,0.75,0.5,0.853,3,3,1,3,2,0,0,0,0,3,,,,,,0,31,31,31,,,,,,,,,,,,,,,,,,,,,,,,,,,,,,,,,,,,,,,,,,,,,,,,,,,,,,,,,527.489693200001,527.9951190000011,527.9951190000011,528.7448674999996,528.7448674999996,529.2503214000008,529.2503214000008,530.1056234000007,530.1056234000007,None,num_6,0.7023401999995258,530.1056234000007,None,happy,0,Sad,530.8193726099998,None,None,530.8193726099998,None,,,,,,,,,,,,,,,,,,,,,,,,,,,,,,,,,,,,,,,,,,,,,,,,,,,,,14,001,male,27,500,450,2022_Sep_20_1203,Experiment,2021.1.4,360.1176864389807,
images\S6_M_S_03.png,images\S6_M_S_03_scrambled.png,6,sad,-30,male,1,,36,off,1,0.5,0.75,0.5,0.775,3,35,2,1,1,0,0,0,0,1,,,,,,0,32,32,32,,,,,,,,,,,,,,,,,,,,,,,,,,,,,,,,,,,,,,,,,,,,,,,,,,,,,,,,,530.9360357000005,531.4356951000009,531.4356951000009,532.1854653999999,532.1854653999999,532.6881442000013,532.6881442000013,533.4656523000012,533.4656523000012,None,num_4,0.526197699999102,533.4656523000012,None,sad,0,Sad,534.0183953600008,None,None,534.0183953600008,None,,,,,,,,,,,,,,,,,,,,,,,,,,,,,,,,,,,,,,,,,,,,,,,,,,,,,14,001,male,27,500,450,2022_Sep_20_1203,Experiment,2021.1.4,360.1176864389807,
images\S3_F_H_01.png,images\S3_F_H_01_scrambled.png,3,happy,10,female,4,,13,off,1,0.5,0.75,0.5,0.759,3,12,3,1,1,0,0,0,0,4,,,,,,0,33,33,33,,,,,,,,,,,,,,,,,,,,,,,,,,,,,,,,,,,,,,,,,,,,,,,,,,,,,,,,,534.073778,534.5764142000007,534.5764142000007,535.3291170000011,535.3291170000011,535.828805000001,535.828805000001,536.5897667000008,536.5897667000008,None,num_6,0.5057622000003903,536.5897667000008,None,happy,0,Happy,537.1200340600008,None,None,537.1200340600008,None,,,,,,,,,,,,,,,,,,,,,,,,,,,,,,,,,,,,,,,,,,,,,,,,,,,,,14,001,male,27,500,450,2022_Sep_20_1203,Experiment,2021.1.4,360.1176864389807,
images\S8_M_H_02.png,images\S8_M_H_02_scrambled.png,8,happy,20,male,5,,44,off,1,0.5,0.75,0.5,0.949,3,43,4,1,1,0,0,0,0,5,,,,,,0,34,34,34,,,,,,,,,,,,,,,,,,,,,,,,,,,,,,,,,,,,,,,,,,,,,,,,,,,,,,,,,537.1867006000011,537.6894702999998,537.6894702999998,538.4418685,538.4418685,538.944620100001,538.944620100001,539.8969706000007,539.8969706000007,None,num_6,0.4308533000003081,539.8969706000007,None,happy,0,Happy,540.3553287600007,None,None,540.3553287600007,None,,,,,,,,,,,,,,,,,,,,,,,,,,,,,,,,,,,,,,,,,,,,,,,,,,,,,14,001,male,27,500,450,2022_Sep_20_1203,Experiment,2021.1.4,360.1176864389807,
images\S10_M_H_01.png,images\S10_M_H_01_scrambled.png,10,happy,10,male,4,,295,off,1,0.5,0.75,0.5,0.856,3,294,5,1,1,0,0,0,0,4,,,,,,0,35,35,35,,,,,,,,,,,,,,,,,,,,,,,,,,,,,,,,,,,,,,,,,,,,,,,,,,,,,,,,,540.4662509999998,540.9716607999999,540.9716607999999,541.7242071000001,541.7242071000001,542.2297225000002,542.2297225000002,543.0904589000002,543.0904589000002,None,num_6,0.4854549000010593,543.0904589000002,None,happy,0,Happy,543.5988054900008,None,None,543.5988054900008,None,,,,,,,,,,,,,,,,,,,,,,,,,,,,,,,,,,,,,,,,,,,,,,,,,,,,,14,001,male,27,500,450,2022_Sep_20_1203,Experiment,2021.1.4,360.1176864389807,
images\S9_F_H_01.png,images\S9_F_H_01_scrambled.png,9,happy,10,female,4,,109,on,2,0.5,0.75,0.5,0.916,3,108,1,1,2,2,2,32,128,164,,,,,,0,36,36,36,,,,,,,,,,,,,,,,,,,,,,,,,,,,,,,,,,,,,,,,,,,,,,,,,,,,,,,,,543.7124676000003,544.2151130000002,544.2151130000002,544.9704780000011,544.9704780000011,545.4730931000013,545.4730931000013,546.3950645000004,546.3950645000004,None,num_6,0.5721563999995851,546.3950645000004,None,happy,0,Happy,546.9948240600006,None,None,546.9948240600006,None,,,,,,,,,,,,,,,,,,,,,,,,,,,,,,,,,,,,,,,,,,,,,,,,,,,,,14,001,male,27,500,450,2022_Sep_20_1203,Experiment,2021.1.4,360.1176864389807,
images\S1_F_H_02.png,images\S1_F_H_02_scrambled.png,1,happy,20,female,5,,242,off,1,0.5,0.75,0.5,0.802,3,241,1,1,1,0,0,0,0,5,,,,,,0,37,37,37,,,,,,,,,,,,,,,,,,,,,,,,,,,,,,,,,,,,,,,,,,,,,,,,,,,,,,,,,547.0975326000007,547.6002288,547.6002288,548.3554832000009,548.3554832000009,548.8581572000003,548.8581572000003,549.6661992000008,549.6661992000008,None,num_6,0.42967830000088725,549.6661992000008,None,happy,0,Happy,550.1190162900002,None,None,550.1190162900002,None,,,,,,,,,,,,,,,,,,,,,,,,,,,,,,,,,,,,,,,,,,,,,,,,,,,,,14,001,male,27,500,450,2022_Sep_20_1203,Experiment,2021.1.4,360.1176864389807,
images\blank.jpg,images\blank.jpg,none,none,none,none,0,,612,on,2,0.5,0.75,0.5,0.766,0,611,1,1,1,3,3,48,192,240,,,,,,0,38,38,38,,,,,,,,,,,,,,,,,,,,,,,,,,,,,,,,,,,,,,,,,,,,,,,,,,,,,,,,,550.2050837999996,550.7103686999999,550.7103686999999,551.460118500001,551.460118500001,551.965530200001,551.965530200001,552.7346740000012,552.7346740000012,552.7346740000012,None,,552.7346740000012,None,miss,0,,555.7394062399999,None,None,555.7394062399999,None,,,,,,,,,,,,,,,,,,,,,,,,,,,,,,,,,,,,,,,,,,,,,,,,,,,,,14,001,male,27,500,450,2022_Sep_20_1203,Experiment,2021.1.4,360.1176864389807,
images\S8_M_S_01.png,images\S8_M_S_01_scrambled.png,8,sad,-10,male,3,,526,off,1,0.5,0.75,0.5,0.844,3,525,1,1,1,0,0,0,0,3,,,,,,0,39,39,39,,,,,,,,,,,,,,,,,,,,,,,,,,,,,,,,,,,,,,,,,,,,,,,,,,,,,,,,,555.8978578000006,556.4002399000001,556.4002399000001,557.1527686000009,557.1527686000009,557.6554176999998,557.6554176999998,558.5051459000006,558.5051459000006,None,num_6,0.6383301000005304,558.5051459000006,555.8978578000006,happy,0,Sad,559.1552325400007,None,None,559.1552325400007,None,,,,,,,,,,,,,,,,,,,,,,,,,,,,,,,,,,,,,,,,,,,,,,,,,,,,,14,001,male,27,500,450,2022_Sep_20_1203,Experiment,2021.1.4,360.1176864389807,
images\S4_M_S_03.png,images\S4_M_S_03_scrambled.png,4,sad,-30,male,1,,444,on,2,0.5,0.75,0.5,0.848,3,443,1,1,1,2,2,32,128,161,,,,,,0,40,40,40,,,,,,,,,,,,,,,,,,,,,,,,,,,,,,,,,,,,,,,,,,,,,,,,,,,,,,,,,559.2687776000002,559.771412600001,559.771412600001,560.5267268000007,560.5267268000007,561.0294876000007,561.0294876000007,561.8818693000012,561.8818693000012,None,num_4,0.38992919999873266,561.8818693000012,None,sad,0,Sad,562.2985558600012,None,None,562.2985558600012,None,,,,,,,,,,,,,,,,,,,,,,,,,,,,,,,,,,,,,,,,,,,,,,,,,,,,,14,001,male,27,500,450,2022_Sep_20_1203,Experiment,2021.1.4,360.1176864389807,
images\S3_F_S_02.png,images\S3_F_S_02_scrambled.png,3,sad,-20,female,2,,137,off,1,0.5,0.75,0.5,0.917,3,136,1,1,1,0,0,0,0,2,,,,,,0,41,41,41,,,,,,,,,,,,,,,,,,,,,,,,,,,,,,,,,,,,,,,,,,,,,,,,,,,,,,,,,562.3511722000003,562.853962000001,562.853962000001,563.6063424000004,563.6063424000004,564.1089654000007,564.1089654000007,565.0253321,565.0253321,None,num_4,0.46202159999847936,565.0253321,None,sad,0,Sad,565.5142573900011,None,None,565.5142573900011,None,,,,,,,,,,,,,,,,,,,,,,,,,,,,,,,,,,,,,,,,,,,,,,,,,,,,,14,001,male,27,500,450,2022_Sep_20_1203,Experiment,2021.1.4,360.1176864389807,
images\blank.jpg,images\blank.jpg,none,none,none,none,0,,632,on,2,0.5,0.75,0.5,0.781,0,631,1,1,1,3,3,48,192,240,,,,,,0,42,42,42,,,,,,,,,,,,,,,,,,,,,,,,,,,,,,,,,,,,,,,,,,,,,,,,,,,,,,,,,565.6003461,566.1055804000007,566.1055804000007,566.8608990000012,566.8608990000012,567.3662916000012,567.3662916000012,568.1467719000011,568.1467719000011,568.1467719000011,None,,568.1467719000011,None,miss,0,,571.1512953399997,None,None,571.1512953399997,None,,,,,,,,,,,,,,,,,,,,,,,,,,,,,,,,,,,,,,,,,,,,,,,,,,,,,14,001,male,27,500,450,2022_Sep_20_1203,Experiment,2021.1.4,360.1176864389807,
images\S10_M_H_02.png,images\S10_M_H_02_scrambled.png,10,happy,20,male,5,,536,off,1,0.5,0.75,0.5,0.893,3,535,1,1,1,0,0,0,0,5,,,,,,0,43,43,43,,,,,,,,,,,,,,,,,,,,,,,,,,,,,,,,,,,,,,,,,,,,,,,,,,,,,,,,,571.2681255000007,571.770546400001,571.770546400001,572.5258161000002,572.5258161000002,573.0285886000001,573.0285886000001,573.9254230999995,573.9254230999995,None,num_6,0.4821693000012601,573.9254230999995,571.2681255000007,happy,0,Happy,574.4338163900011,None,None,574.4338163900011,None,,,,,,,,,,,,,,,,,,,,,,,,,,,,,,,,,,,,,,,,,,,,,,,,,,,,,14,001,male,27,500,450,2022_Sep_20_1203,Experiment,2021.1.4,360.1176864389807,
images\S5_F_H_01.png,images\S5_F_H_01_scrambled.png,5,happy,10,female,4,,265,off,1,0.5,0.75,0.5,0.803,3,264,2,1,1,0,0,0,0,4,,,,,,0,44,44,44,,,,,,,,,,,,,,,,,,,,,,,,,,,,,,,,,,,,,,,,,,,,,,,,,,,,,,,,,574.5418425999997,575.0445949000004,575.0445949000004,575.7942476000007,575.7942476000007,576.2997335,576.2997335,577.1050302000003,577.1050302000003,None,num_6,0.7588353000010102,577.1050302000003,None,happy,0,Happy,577.8882482600002,None,None,577.8882482600002,None,,,,,,,,,,,,,,,,,,,,,,,,,,,,,,,,,,,,,,,,,,,,,,,,,,,,,14,001,male,27,500,450,2022_Sep_20_1203,Experiment,2021.1.4,360.1176864389807,
images\S3_F_S_02.png,images\S3_F_S_02_scrambled.png,3,sad,-20,female,2,,317,on,2,0.5,0.75,0.5,0.927,3,316,1,1,1,2,2,32,128,162,,,,,,0,45,45,45,,,,,,,,,,,,,,,,,,,,,,,,,,,,,,,,,,,,,,,,,,,,,,,,,,,,,,,,,577.9407933000002,578.4406373000002,578.4406373000002,579.1904062000012,579.1904062000012,579.6930804000003,579.6930804000003,580.6235740000011,580.6235740000011,None,num_4,0.7118102000004001,580.6235740000011,None,sad,0,Sad,581.3508584800002,None,None,581.3508584800002,None,,,,,,,,,,,,,,,,,,,,,,,,,,,,,,,,,,,,,,,,,,,,,,,,,,,,,14,001,male,27,500,450,2022_Sep_20_1203,Experiment,2021.1.4,360.1176864389807,
images\S2_M_S_01.png,images\S2_M_S_01_scrambled.png,2,sad,-10,male,3,,250,off,1,0.5,0.75,0.5,0.778,3,249,1,1,1,0,0,0,0,3,,,,,,0,46,46,46,,,,,,,,,,,,,,,,,,,,,,,,,,,,,,,,,,,,,,,,,,,,,,,,,,,,,,,,,581.4341651000013,581.93973,581.93973,582.694939500001,582.694939500001,583.2003370000002,583.2003370000002,583.9778229000003,583.9778229000003,None,num_4,0.6697327000001678,583.9778229000003,None,sad,0,Sad,584.66094118,None,None,584.66094118,None,,,,,,,,,,,,,,,,,,,,,,,,,,,,,,,,,,,,,,,,,,,,,,,,,,,,,14,001,male,27,500,450,2022_Sep_20_1203,Experiment,2021.1.4,360.1176864389807,
images\S7_F_S_03.png,images\S7_F_S_03_scrambled.png,7,sad,-30,female,1,,522,off,1,0.5,0.75,0.5,0.931,3,521,2,1,1,0,0,0,0,1,,,,,,0,47,47,47,,,,,,,,,,,,,,,,,,,,,,,,,,,,,,,,,,,,,,,,,,,,,,,,,,,,,,,,,584.7720274000003,585.2747336000011,585.2747336000011,586.0244180000009,586.0244180000009,586.5270385000003,586.5270385000003,587.460135700001,587.460135700001,None,num_4,0.39522910000050615,587.460135700001,None,sad,0,Sad,587.8710610800008,None,None,587.8710610800008,None,,,,,,,,,,,,,,,,,,,,,,,,,,,,,,,,,,,,,,,,,,,,,,,,,,,,,14,001,male,27,500,450,2022_Sep_20_1203,Experiment,2021.1.4,360.1176864389807,
images\S7_F_H_02.png,images\S7_F_H_02_scrambled.png,7,happy,20,female,5,,518,off,1,0.5,0.75,0.5,0.906,3,517,3,2,1,0,0,0,0,5,,,,,,0,48,48,48,,,,,,,,,,,,,,,,,,,,,,,,,,,,,,,,,,,,,,,,,,,,,,,,,,,,,,,,,587.9821382000009,588.487541800001,588.487541800001,589.2401411999999,589.2401411999999,589.7427961000012,589.7427961000012,590.6507591000009,590.6507591000009,None,num_6,0.6045204000001831,590.6507591000009,None,happy,0,Happy,591.2755705500003,None,None,591.2755705500003,None,,,,,,,,,,,,,,,,,,,,,,,,,,,,,,,,,,,,,,,,,,,,,,,,,,,,,14,001,male,27,500,450,2022_Sep_20_1203,Experiment,2021.1.4,360.1176864389807,
images\blank.jpg,images\blank.jpg,none,none,none,none,0,,626,on,2,0.5,0.75,0.5,0.879,0,625,1,1,1,3,3,48,192,240,,,,,,0,49,49,49,,,,,,,,,,,,,,,,,,,,,,,,,,,,,,,,,,,,,,,,,,,,,,,,,,,,,,,,,591.3590590000003,591.8587146000009,591.8587146000009,592.6085070999998,592.6085070999998,593.1083902000009,593.1083902000009,593.9943464999997,593.9943464999997,593.9943464999997,None,,593.9943464999997,None,miss,0,,596.996139840001,None,None,596.996139840001,None,,,,,,,,,,,,,,,,,,,,,,,,,,,,,,,,,,,,,,,,,,,,,,,,,,,,,14,001,male,27,500,450,2022_Sep_20_1203,Experiment,2021.1.4,360.1176864389807,
images\S4_M_H_03.png,images\S4_M_H_03_scrambled.png,4,happy,30,male,6,,441,on,2,0.5,0.75,0.5,0.835,3,440,2,1,1,2,2,32,128,166,,,,,,0,50,50,50,,,,,,,,,,,,,,,,,,,,,,,,,,,,,,,,,,,,,,,,,,,,,,,,,,,,,,,,,597.1572152000008,597.6624872000011,597.6624872000011,598.4150910999997,598.4150910999997,598.9176743999997,598.9176743999997,599.7562969999999,599.7562969999999,None,num_6,0.5074662000006356,599.7562969999999,597.1572152000008,happy,0,Happy,600.2840747900009,None,None,600.2840747900009,None,,,,,,,,,,,,,,,,,,,,,,,,,,,,,,,,,,,,,,,,,,,,,,,,,,,,,14,001,male,27,500,450,2022_Sep_20_1203,Experiment,2021.1.4,360.1176864389807,
images\S3_F_S_03.png,images\S3_F_S_03_scrambled.png,3,sad,-30,female,1,,18,off,1,0.5,0.75,0.5,0.753,3,17,1,1,1,0,0,0,0,1,,,,,,0,51,51,51,,,,,,,,,,,,,,,,,,,,,,,,,,,,,,,,,,,,,,,,,,,,,,,,,,,,,,,,,600.3951249000002,600.8976476999997,600.8976476999997,601.6502106999997,601.6502106999997,602.1555635000004,602.1555635000004,602.9108876999999,602.9108876999999,None,num_4,0.4163477999991301,602.9108876999999,None,sad,0,Sad,603.3524136300002,None,None,603.3524136300002,None,,,,,,,,,,,,,,,,,,,,,,,,,,,,,,,,,,,,,,,,,,,,,,,,,,,,,14,001,male,27,500,450,2022_Sep_20_1203,Experiment,2021.1.4,360.1176864389807,
images\S10_M_S_02.png,images\S10_M_S_02_scrambled.png,10,sad,-20,male,2,,179,off,1,0.5,0.75,0.5,0.904,3,178,2,1,1,0,0,0,0,2,,,,,,0,52,52,52,,,,,,,,,,,,,,,,,,,,,,,,,,,,,,,,,,,,,,,,,,,,,,,,,,,,,,,,,603.4634710000009,603.9633396000008,603.9633396000008,604.7131433000013,604.7131433000013,605.2129994000006,605.2129994000006,606.1209772000002,606.1209772000002,None,num_6,0.4147947000001295,606.1209772000002,None,happy,0,Sad,606.5515532099998,None,None,606.5515532099998,None,,,,,,,,,,,,,,,,,,,,,,,,,,,,,,,,,,,,,,,,,,,,,,,,,,,,,14,001,male,27,500,450,2022_Sep_20_1203,Experiment,2021.1.4,360.1176864389807,
images\S3_F_H_03.png,images\S3_F_H_03_scrambled.png,3,happy,30,female,6,,15,off,1,0.5,0.75,0.5,0.829,3,14,3,1,1,0,0,0,0,6,,,,,,0,53,53,53,,,,,,,,,,,,,,,,,,,,,,,,,,,,,,,,,,,,,,,,,,,,,,,,,,,,,,,,,606.6652651000004,607.1706919999997,607.1706919999997,607.9233753999997,607.9233753999997,608.4230490999998,608.4230490999998,609.2533447000005,609.2533447000005,None,num_6,0.4506605999995372,609.2533447000005,None,happy,0,Happy,609.7282181600003,None,None,609.7282181600003,None,,,,,,,,,,,,,,,,,,,,,,,,,,,,,,,,,,,,,,,,,,,,,,,,,,,,,14,001,male,27,500,450,2022_Sep_20_1203,Experiment,2021.1.4,360.1176864389807,
images\S4_M_S_02.png,images\S4_M_S_02_scrambled.png,4,sad,-20,male,2,,563,on,2,0.5,0.75,0.5,0.873,3,562,1,1,1,2,2,32,128,162,,,,,,0,54,54,54,,,,,,,,,,,,,,,,,,,,,,,,,,,,,,,,,,,,,,,,,,,,,,,,,,,,,,,,,609.8392838,610.3447751000003,610.3447751000003,611.0944646999997,611.0944646999997,611.599930800001,611.599930800001,612.4746874000011,612.4746874000011,None,num_4,0.37248320000071544,612.4746874000011,None,sad,0,Sad,612.8578117800007,None,None,612.8578117800007,None,,,,,,,,,,,,,,,,,,,,,,,,,,,,,,,,,,,,,,,,,,,,,,,,,,,,,14,001,male,27,500,450,2022_Sep_20_1203,Experiment,2021.1.4,360.1176864389807,
images\S1_F_H_01.png,images\S1_F_H_01_scrambled.png,1,happy,10,female,4,,421,on,2,0.5,0.75,0.5,0.85,3,420,2,1,1,2,2,32,128,164,,,,,,0,55,55,55,,,,,,,,,,,,,,,,,,,,,,,,,,,,,,,,,,,,,,,,,,,,,,,,,,,,,,,,,612.971735000001,613.4743973000004,613.4743973000004,614.2296755000007,614.2296755000007,614.7294431000009,614.7294431000009,615.5848262,615.5848262,None,num_6,0.4303562000004604,615.5848262,None,happy,0,Happy,616.0290478800016,None,None,616.0290478800016,None,,,,,,,,,,,,,,,,,,,,,,,,,,,,,,,,,,,,,,,,,,,,,,,,,,,,,14,001,male,27,500,450,2022_Sep_20_1203,Experiment,2021.1.4,360.1176864389807,
images\S3_F_S_03.png,images\S3_F_S_03_scrambled.png,3,sad,-30,female,1,,258,off,1,0.5,0.75,0.5,0.793,3,257,1,1,1,0,0,0,0,1,,,,,,0,56,56,56,,,,,,,,,,,,,,,,,,,,,,,,,,,,,,,,,,,,,,,,,,,,,,,,,,,,,,,,,616.0790768000006,616.5788756000002,616.5788756000002,617.3343569000008,617.3343569000008,617.8396721000008,617.8396721000008,618.6394985999996,618.6394985999996,None,num_4,0.4242434999996476,618.6394985999996,None,sad,0,Sad,619.0893600600011,None,None,619.0893600600011,None,,,,,,,,,,,,,,,,,,,,,,,,,,,,,,,,,,,,,,,,,,,,,,,,,,,,,14,001,male,27,500,450,2022_Sep_20_1203,Experiment,2021.1.4,360.1176864389807,
images\S4_M_S_02.png,images\S4_M_S_02_scrambled.png,4,sad,-20,male,2,,203,on,2,0.5,0.75,0.5,0.935,3,202,1,1,1,2,2,32,128,162,,,,,,0,57,57,57,,,,,,,,,,,,,,,,,,,,,,,,,,,,,,,,,,,,,,,,,,,,,,,,,,,,,,,,,619.1448773000011,619.6501633999997,619.6501633999997,620.4027748000008,620.4027748000008,620.9053774000004,620.9053774000004,621.8440843999997,621.8440843999997,None,num_4,0.41164279999975406,621.8440843999997,None,sad,0,Sad,622.2773092200005,None,None,622.2773092200005,None,,,,,,,,,,,,,,,,,,,,,,,,,,,,,,,,,,,,,,,,,,,,,,,,,,,,,14,001,male,27,500,450,2022_Sep_20_1203,Experiment,2021.1.4,360.1176864389807,
images\S9_F_S_02.png,images\S9_F_S_02_scrambled.png,9,sad,-20,female,2,,353,on,2,0.5,0.75,0.5,0.907,3,352,2,1,2,2,2,32,128,162,,,,,,0,58,58,58,,,,,,,,,,,,,,,,,,,,,,,,,,,,,,,,,,,,,,,,,,,,,,,,,,,,,,,,,622.3854069999998,622.8852540000007,622.8852540000007,623.6405997000002,623.6405997000002,624.1459959000003,624.1459959000003,625.0596755999995,625.0596755999995,None,num_6,1.6278507999995782,625.0596755999995,None,happy,0,Sad,626.7007454100003,None,None,626.7007454100003,None,,,,,,,,,,,,,,,,,,,,,,,,,,,,,,,,,,,,,,,,,,,,,,,,,,,,,14,001,male,27,500,450,2022_Sep_20_1203,Experiment,2021.1.4,360.1176864389807,
images\S1_F_H_03.png,images\S1_F_H_03_scrambled.png,1,happy,30,female,6,,303,on,2,0.5,0.75,0.5,0.883,3,302,3,1,1,2,2,32,128,166,,,,,,0,59,59,59,,,,,,,,,,,,,,,,,,,,,,,,,,,,,,,,,,,,,,,,,,,,,,,,,,,,,,,,,626.8062661000004,627.309068300001,627.309068300001,628.0643507000004,628.0643507000004,628.5696993000001,628.5696993000001,629.4555187000005,629.4555187000005,None,num_6,0.45596090000071854,629.4555187000005,None,happy,0,Happy,629.9221113800013,None,None,629.9221113800013,None,,,,,,,,,,,,,,,,,,,,,,,,,,,,,,,,,,,,,,,,,,,,,,,,,,,,,14,001,male,27,500,450,2022_Sep_20_1203,Experiment,2021.1.4,360.1176864389807,
images\S9_F_S_03.png,images\S9_F_S_03_scrambled.png,9,sad,-30,female,1,,354,on,2,0.5,0.75,0.5,0.853,3,353,4,1,1,2,2,32,128,161,,,,,,0,60,60,60,,,,,,,,,,,,,,,,,,,,,,,,,,,,,,,,,,,,,,,,,,,,,,,,,,,,,,,,,630.0330465999996,630.5328929000007,630.5328929000007,631.2854619999998,631.2854619999998,631.7881159000008,631.7881159000008,632.6405718000005,632.6405718000005,None,num_4,0.3586462000002939,632.6405718000005,None,sad,0,Sad,633.0154789500011,None,None,633.0154789500011,None,,,,,,,,,,,,,,,,,,,,,,,,,,,,,,,,,,,,,,,,,,,,,,,,,,,,,14,001,male,27,500,450,2022_Sep_20_1203,Experiment,2021.1.4,360.1176864389807,
images\S10_M_H_02.png,images\S10_M_H_02_scrambled.png,10,happy,20,male,5,,296,off,1,0.5,0.75,0.5,0.758,3,295,1,1,1,0,0,0,0,5,,,,,,0,61,61,61,,,,,,,,,,,,,,,,,,,,,,,,,,,,,,,,,,,,,,,,,,,,,,,,,,,,,,,,,633.0626669000012,633.5653511,633.5653511,634.3150662999997,634.3150662999997,634.8149664000011,634.8149664000011,635.5758060999997,635.5758060999997,None,num_6,0.40747410000039963,635.5758060999997,None,happy,0,Happy,635.9978883800013,None,None,635.9978883800013,None,,,,,,,,,,,,,,,,,,,,,,,,,,,,,,,,,,,,,,,,,,,,,,,,,,,,,14,001,male,27,500,450,2022_Sep_20_1203,Experiment,2021.1.4,360.1176864389807,
images\S3_F_S_01.png,images\S3_F_S_01_scrambled.png,3,sad,-10,female,3,,376,off,1,0.5,0.75,0.5,0.793,3,375,2,1,1,0,0,0,0,3,,,,,,0,62,62,62,,,,,,,,,,,,,,,,,,,,,,,,,,,,,,,,,,,,,,,,,,,,,,,,,,,,,,,,,636.0784115999995,636.5782458000012,636.5782458000012,637.3280185000003,637.3280185000003,637.8279347000007,637.8279347000007,638.6249285000013,638.6249285000013,None,num_4,0.3668130000005476,638.6249285000013,None,sad,0,Sad,639.0193261600016,None,None,639.0193261600016,None,,,,,,,,,,,,,,,,,,,,,,,,,,,,,,,,,,,,,,,,,,,,,,,,,,,,,14,001,male,27,500,450,2022_Sep_20_1203,Experiment,2021.1.4,360.1176864389807,
images\S3_F_H_03.png,images\S3_F_H_03_scrambled.png,3,happy,30,female,6,,435,on,2,0.5,0.75,0.5,0.814,3,434,1,2,1,2,2,32,128,166,,,,,,0,63,63,63,,,,,,,,,,,,,,,,,,,,,,,,,,,,,,,,,,,,,,,,,,,,,,,,,,,,,,,,,639.0802302000011,639.583053100001,639.583053100001,640.3354753000003,640.3354753000003,640.8352642999998,640.8352642999998,641.6545733000003,641.6545733000003,None,num_6,0.48074799999994866,641.6545733000003,None,happy,0,Happy,642.1459689800013,None,None,642.1459689800013,None,,,,,,,,,,,,,,,,,,,,,,,,,,,,,,,,,,,,,,,,,,,,,,,,,,,,,14,001,male,27,500,450,2022_Sep_20_1203,Experiment,2021.1.4,360.1176864389807,
images\S2_M_S_02.png,images\S2_M_S_02_scrambled.png,2,sad,-20,male,2,,131,off,1,0.5,0.75,0.5,0.932,3,130,1,1,1,0,0,0,0,2,,,,,,0,64,64,64,,,,,,,,,,,,,,,,,,,,,,,,,,,,,,,,,,,,,,,,,,,,,,,,,,,,,,,,,642.1959628000004,642.6987631000011,642.6987631000011,643.4540732000005,643.4540732000005,643.956527100001,643.956527100001,644.8951907999999,644.8951907999999,None,num_4,0.3281317000000854,644.8951907999999,None,sad,0,Sad,645.2451199600018,None,None,645.2451199600018,None,,,,,,,,,,,,,,,,,,,,,,,,,,,,,,,,,,,,,,,,,,,,,,,,,,,,,14,001,male,27,500,450,2022_Sep_20_1203,Experiment,2021.1.4,360.1176864389807,
images\S2_M_S_02.png,images\S2_M_S_02_scrambled.png,2,sad,-20,male,2,,551,on,2,0.5,0.75,0.5,0.773,3,550,1,2,2,2,2,32,128,162,,,,,,0,65,65,65,,,,,,,,,,,,,,,,,,,,,,,,,,,,,,,,,,,,,,,,,,,,,,,,,,,,,,,,,645.3088932999999,645.8087479000005,645.8087479000005,646.5612894000005,646.5612894000005,647.0640285000009,647.0640285000009,647.8414501999996,647.8414501999996,None,num_6,1.3898815000011382,647.8414501999996,None,happy,0,Sad,649.2410003100013,None,None,649.2410003100013,None,,,,,,,,,,,,,,,,,,,,,,,,,,,,,,,,,,,,,,,,,,,,,,,,,,,,,14,001,male,27,500,450,2022_Sep_20_1203,Experiment,2021.1.4,360.1176864389807,
images\S5_F_S_03.png,images\S5_F_S_03_scrambled.png,5,sad,-30,female,1,,270,off,1,0.5,0.75,0.5,0.796,3,269,1,1,1,0,0,0,0,1,,,,,,0,66,66,66,,,,,,,,,,,,,,,,,,,,,,,,,,,,,,,,,,,,,,,,,,,,,,,,,,,,,,,,,649.3465296000013,649.8493312999999,649.8493312999999,650.6016946,650.6016946,651.1044681000003,651.1044681000003,651.9042532000003,651.9042532000003,None,num_4,0.39124900000024354,651.9042532000003,None,sad,0,Sad,652.320659160001,None,None,652.320659160001,None,,,,,,,,,,,,,,,,,,,,,,,,,,,,,,,,,,,,,,,,,,,,,,,,,,,,,14,001,male,27,500,450,2022_Sep_20_1203,Experiment,2021.1.4,360.1176864389807,
images\S9_F_S_02.png,images\S9_F_S_02_scrambled.png,9,sad,-20,female,2,,413,off,1,0.5,0.75,0.5,0.791,3,412,2,1,1,0,0,0,0,2,,,,,,0,67,67,67,,,,,,,,,,,,,,,,,,,,,,,,,,,,,,,,,,,,,,,,,,,,,,,,,,,,,,,,,652.3844862000005,652.8898878,652.8898878,653.6424270000007,653.6424270000007,654.1478485000007,654.1478485000007,654.9420203999998,654.9420203999998,None,num_4,0.8735629999991943,654.9420203999998,None,sad,0,Sad,655.8306472800014,None,None,655.8306472800014,None,,,,,,,,,,,,,,,,,,,,,,,,,,,,,,,,,,,,,,,,,,,,,,,,,,,,,14,001,male,27,500,450,2022_Sep_20_1203,Experiment,2021.1.4,360.1176864389807,
images\blank.jpg,images\blank.jpg,none,none,none,none,0,,609,on,2,0.5,0.75,0.5,0.786,0,608,1,1,1,3,3,48,192,240,,,,,,0,68,68,68,,,,,,,,,,,,,,,,,,,,,,,,,,,,,,,,,,,,,,,,,,,,,,,,,,,,,,,,,655.9141435000001,656.4165869000008,656.4165869000008,657.1691343000002,657.1691343000002,657.6746073000013,657.6746073000013,658.4632194000005,658.4632194000005,658.4632194000005,None,,658.4632194000005,None,miss,0,,661.4679054400003,None,None,661.4679054400003,None,,,,,,,,,,,,,,,,,,,,,,,,,,,,,,,,,,,,,,,,,,,,,,,,,,,,,14,001,male,27,500,450,2022_Sep_20_1203,Experiment,2021.1.4,360.1176864389807,
images\S6_M_S_01.png,images\S6_M_S_01_scrambled.png,6,sad,-10,male,3,,214,on,2,0.5,0.75,0.5,0.949,3,213,2,1,1,2,2,32,128,163,,,,,,0,69,69,69,,,,,,,,,,,,,,,,,,,,,,,,,,,,,,,,,,,,,,,,,,,,,,,,,,,,,,,,,661.5874357000012,662.0899122999999,662.0899122999999,662.8452116000008,662.8452116000008,663.3477624999996,663.3477624999996,664.3031907000004,664.3031907000004,None,num_4,2.1519595999998273,664.3031907000004,661.5874357000012,sad,0,Sad,666.4662890800009,None,None,666.4662890800009,None,,,,,,,,,,,,,,,,,,,,,,,,,,,,,,,,,,,,,,,,,,,,,,,,,,,,,14,001,male,27,500,450,2022_Sep_20_1203,Experiment,2021.1.4,360.1176864389807,
images\S6_M_S_02.png,images\S6_M_S_02_scrambled.png,6,sad,-20,male,2,,515,off,1,0.5,0.75,0.5,0.768,3,514,1,2,1,0,0,0,0,2,,,,,,0,70,70,70,,,,,,,,,,,,,,,,,,,,,,,,,,,,,,,,,,,,,,,,,,,,,,,,,,,,,,,,,666.5495600000013,667.0549760000013,667.0549760000013,667.8075215999997,667.8075215999997,668.3074358000013,668.3074358000013,669.0794666000002,669.0794666000002,None,num_4,0.3596706999996968,669.0794666000002,None,sad,0,Sad,669.4653253600009,None,None,669.4653253600009,None,,,,,,,,,,,,,,,,,,,,,,,,,,,,,,,,,,,,,,,,,,,,,,,,,,,,,14,001,male,27,500,450,2022_Sep_20_1203,Experiment,2021.1.4,360.1176864389807,
images\S8_M_H_02.png,images\S8_M_H_02_scrambled.png,8,happy,20,male,5,,404,off,1,0.5,0.75,0.5,0.795,3,403,2,1,1,0,0,0,0,5,,,,,,0,71,71,71,,,,,,,,,,,,,,,,,,,,,,,,,,,,,,,,,,,,,,,,,,,,,,,,,,,,,,,,,669.5291933999997,670.0318230000012,670.0318230000012,670.7844820000009,670.7844820000009,671.2898430000005,671.2898430000005,672.0896193999997,672.0896193999997,None,num_6,0.49366469999949913,672.0896193999997,None,happy,0,Happy,672.5976942800007,None,None,672.5976942800007,None,,,,,,,,,,,,,,,,,,,,,,,,,,,,,,,,,,,,,,,,,,,,,,,,,,,,,14,001,male,27,500,450,2022_Sep_20_1203,Experiment,2021.1.4,360.1176864389807,
images\S9_F_H_01.png,images\S9_F_H_01_scrambled.png,9,happy,10,female,4,,229,on,2,0.5,0.75,0.5,0.914,3,228,1,1,1,2,2,32,128,164,,,,,,0,72,72,72,,,,,,,,,,,,,,,,,,,,,,,,,,,,,,,,,,,,,,,,,,,,,,,,,,,,,,,,,672.6449129000011,673.1475251000011,673.1475251000011,673.9000616000012,673.9000616000012,674.4026862999999,674.4026862999999,675.3191918000011,675.3191918000011,None,num_6,0.45622630000070785,675.3191918000011,None,happy,0,Happy,675.7940669900017,None,None,675.7940669900017,None,,,,,,,,,,,,,,,,,,,,,,,,,,,,,,,,,,,,,,,,,,,,,,,,,,,,,14,001,male,27,500,450,2022_Sep_20_1203,Experiment,2021.1.4,360.1176864389807,
images\S5_F_H_03.png,images\S5_F_H_03_scrambled.png,5,happy,30,female,6,,507,off,1,0.5,0.75,0.5,0.911,3,506,1,1,1,0,0,0,0,6,,,,,,0,73,73,73,,,,,,,,,,,,,,,,,,,,,,,,,,,,,,,,,,,,,,,,,,,,,,,,,,,,,,,,,675.8966675000011,676.3993025,676.3993025,677.1518469000002,677.1518469000002,677.6544720000002,677.6544720000002,678.5680705000013,678.5680705000013,None,num_6,0.4148576999996294,678.5680705000013,None,happy,0,Happy,679.0124505300009,None,None,679.0124505300009,None,,,,,,,,,,,,,,,,,,,,,,,,,,,,,,,,,,,,,,,,,,,,,,,,,,,,,14,001,male,27,500,450,2022_Sep_20_1203,Experiment,2021.1.4,360.1176864389807,
images\S10_M_S_01.png,images\S10_M_S_01_scrambled.png,10,sad,-10,male,3,,298,off,1,0.5,0.75,0.5,0.903,3,297,2,1,1,0,0,0,0,3,,,,,,0,74,74,74,,,,,,,,,,,,,,,,,,,,,,,,,,,,,,,,,,,,,,,,,,,,,,,,,,,,,,,,,679.0651400999996,679.5705615000006,679.5705615000006,680.3258791999997,680.3258791999997,680.828658800001,680.828658800001,681.7339351999999,681.7339351999999,None,num_6,0.3529467999996996,681.7339351999999,None,happy,0,Sad,682.1003374100001,None,None,682.1003374100001,None,,,,,,,,,,,,,,,,,,,,,,,,,,,,,,,,,,,,,,,,,,,,,,,,,,,,,14,001,male,27,500,450,2022_Sep_20_1203,Experiment,2021.1.4,360.1176864389807,
images\S1_F_H_02.png,images\S1_F_H_02_scrambled.png,1,happy,20,female,5,,122,off,1,0.5,0.75,0.5,0.751,3,121,3,1,1,0,0,0,0,5,,,,,,0,75,75,75,,,,,,,,,,,,,,,,,,,,,,,,,,,,,,,,,,,,,,,,,,,,,,,,,,,,,,,,,682.1641811000009,682.6640392999998,682.6640392999998,683.4194740000003,683.4194740000003,683.9248334000004,683.9248334000004,684.6772870000004,684.6772870000004,None,num_6,0.41832479999902716,684.6772870000004,None,happy,0,Happy,685.1190085900016,None,None,685.1190085900016,None,,,,,,,,,,,,,,,,,,,,,,,,,,,,,,,,,,,,,,,,,,,,,,,,,,,,,14,001,male,27,500,450,2022_Sep_20_1203,Experiment,2021.1.4,360.1176864389807,
images\S6_M_H_02.png,images\S6_M_H_02_scrambled.png,6,happy,20,male,5,,572,on,2,0.5,0.75,0.5,0.794,3,571,1,1,2,2,2,32,128,165,,,,,,0,76,76,76,,,,,,,,,,,,,,,,,,,,,,,,,,,,,,,,,,,,,,,,,,,,,,,,,,,,,,,,,685.1688129000013,685.6743685000001,685.6743685000001,686.4239908,686.4239908,686.9294944000012,686.9294944000012,687.7292696000004,687.7292696000004,None,num_6,0.5338313000011112,687.7292696000004,None,happy,0,Happy,688.2734432800007,None,None,688.2734432800007,None,,,,,,,,,,,,,,,,,,,,,,,,,,,,,,,,,,,,,,,,,,,,,,,,,,,,,14,001,male,27,500,450,2022_Sep_20_1203,Experiment,2021.1.4,360.1176864389807,
images\S4_M_S_03.png,images\S4_M_S_03_scrambled.png,4,sad,-30,male,1,,264,off,1,0.5,0.75,0.5,0.844,3,263,1,1,1,0,0,0,0,1,,,,,,0,77,77,77,,,,,,,,,,,,,,,,,,,,,,,,,,,,,,,,,,,,,,,,,,,,,,,,,,,,,,,,,688.3233873000008,688.8260375000009,688.8260375000009,689.5785746000001,689.5785746000001,690.0841262000013,690.0841262000013,690.9337188000009,690.9337188000009,None,num_4,0.45769599999948696,690.9337188000009,None,sad,0,Sad,691.4057797800015,None,None,691.4057797800015,None,,,,,,,,,,,,,,,,,,,,,,,,,,,,,,,,,,,,,,,,,,,,,,,,,,,,,14,001,male,27,500,450,2022_Sep_20_1203,Experiment,2021.1.4,360.1176864389807,
images\S9_F_S_03.png,images\S9_F_S_03_scrambled.png,9,sad,-30,female,1,,114,on,2,0.5,0.75,0.5,0.817,3,113,1,1,2,2,2,32,128,161,,,,,,0,78,78,78,,,,,,,,,,,,,,,,,,,,,,,,,,,,,,,,,,,,,,,,,,,,,,,,,,,,,,,,,691.4529784000006,691.9556247,691.9556247,692.7109490000003,692.7109490000003,693.213718500001,693.213718500001,694.0328171000001,694.0328171000001,None,num_4,0.3983963999999105,694.0328171000001,None,sad,0,Sad,694.4548347600012,None,None,694.4548347600012,None,,,,,,,,,,,,,,,,,,,,,,,,,,,,,,,,,,,,,,,,,,,,,,,,,,,,,14,001,male,27,500,450,2022_Sep_20_1203,Experiment,2021.1.4,360.1176864389807,
images\S8_M_H_01.png,images\S8_M_H_01_scrambled.png,8,happy,10,male,4,,283,off,1,0.5,0.75,0.5,0.885,3,282,1,1,1,0,0,0,0,4,,,,,,0,79,79,79,,,,,,,,,,,,,,,,,,,,,,,,,,,,,,,,,,,,,,,,,,,,,,,,,,,,,,,,,694.5575769999996,695.0602725000008,695.0602725000008,695.812818800001,695.812818800001,696.3183171000001,696.3183171000001,697.2096308,697.2096308,None,num_6,0.45359579999967536,697.2096308,None,happy,0,Happy,697.6760714800002,None,None,697.6760714800002,None,,,,,,,,,,,,,,,,,,,,,,,,,,,,,,,,,,,,,,,,,,,,,,,,,,,,,14,001,male,27,500,450,2022_Sep_20_1203,Experiment,2021.1.4,360.1176864389807,
images\S2_M_H_02.png,images\S2_M_H_02_scrambled.png,2,happy,20,male,5,,128,off,1,0.5,0.75,0.5,0.928,3,127,2,1,1,0,0,0,0,5,,,,,,0,80,80,80,,,,,,,,,,,,,,,,,,,,,,,,,,,,,,,,,,,,,,,,,,,,,,,,,,,,,,,,,697.7621462999996,698.2619973000001,698.2619973000001,699.0145370999999,699.0145370999999,699.5200225999997,699.5200225999997,700.4502733000008,700.4502733000008,None,num_6,0.396662600000127,700.4502733000008,None,happy,0,Happy,700.8611906800015,None,None,700.8611906800015,None,,,,,,,,,,,,,,,,,,,,,,,,,,,,,,,,,,,,,,,,,,,,,,,,,,,,,14,001,male,27,500,450,2022_Sep_20_1203,Experiment,2021.1.4,360.1176864389807,
images\S9_F_H_03.png,images\S9_F_H_03_scrambled.png,9,happy,30,female,6,,411,off,1,0.5,0.75,0.5,0.891,3,410,3,1,1,0,0,0,0,6,,,,,,0,81,81,81,,,,,,,,,,,,,,,,,,,,,,,,,,,,,,,,,,,,,,,,,,,,,,,,,,,,,,,,,700.9722620000011,701.4749595000012,701.4749595000012,702.2246603000003,702.2246603000003,702.7245026,702.7245026,703.6215859000004,703.6215859000004,None,num_6,0.5375734000008379,703.6215859000004,None,happy,0,Happy,704.1879774600002,None,None,704.1879774600002,None,,,,,,,,,,,,,,,,,,,,,,,,,,,,,,,,,,,,,,,,,,,,,,,,,,,,,14,001,male,27,500,450,2022_Sep_20_1203,Experiment,2021.1.4,360.1176864389807,
images\S3_F_H_03.png,images\S3_F_H_03_scrambled.png,3,happy,30,female,6,,135,off,1,0.5,0.75,0.5,0.764,3,134,4,1,2,0,0,0,0,6,,,,,,0,82,82,82,,,,,,,,,,,,,,,,,,,,,,,,,,,,,,,,,,,,,,,,,,,,,,,,,,,,,,,,,704.2434781000011,704.7461139999996,704.7461139999996,705.4987916999999,705.4987916999999,706.0042372000007,706.0042372000007,706.7704721999999,706.7704721999999,None,num_6,0.4374698999999964,706.7704721999999,None,happy,0,Happy,707.2288991900004,None,None,707.2288991900004,None,,,,,,,,,,,,,,,,,,,,,,,,,,,,,,,,,,,,,,,,,,,,,,,,,,,,,14,001,male,27,500,450,2022_Sep_20_1203,Experiment,2021.1.4,360.1176864389807,
images\blank.jpg,images\blank.jpg,none,none,none,none,0,,623,on,2,0.5,0.75,0.5,0.822,0,622,1,1,1,3,3,48,192,240,,,,,,0,83,83,83,,,,,,,,,,,,,,,,,,,,,,,,,,,,,,,,,,,,,,,,,,,,,,,,,,,,,,,,,707.3315932000005,707.8342157999996,707.8342157999996,708.5894657000008,708.5894657000008,709.0948495000011,709.0948495000011,709.9195958,709.9195958,709.9195958,None,,709.9195958,None,miss,0,,712.9242317400003,None,None,712.9242317400003,None,,,,,,,,,,,,,,,,,,,,,,,,,,,,,,,,,,,,,,,,,,,,,,,,,,,,,14,001,male,27,500,450,2022_Sep_20_1203,Experiment,2021.1.4,360.1176864389807,
images\S2_M_H_01.png,images\S2_M_H_01_scrambled.png,2,happy,10,male,4,,187,on,2,0.5,0.75,0.5,0.927,3,186,2,1,1,2,2,32,128,164,,,,,,0,84,84,84,,,,,,,,,,,,,,,,,,,,,,,,,,,,,,,,,,,,,,,,,,,,,,,,,,,,,,,,,713.0797548999999,713.5850994000011,713.5850994000011,714.3348055000006,714.3348055000006,714.8374248,714.8374248,715.7677567999999,715.7677567999999,None,num_6,0.5115162000001874,715.7677567999999,713.0797548999999,happy,0,Happy,716.2981870500007,None,None,716.2981870500007,None,,,,,,,,,,,,,,,,,,,,,,,,,,,,,,,,,,,,,,,,,,,,,,,,,,,,,14,001,male,27,500,450,2022_Sep_20_1203,Experiment,2021.1.4,360.1176864389807,
images\S4_M_S_01.png,images\S4_M_S_01_scrambled.png,4,sad,-10,male,3,,82,on,2,0.5,0.75,0.5,0.856,3,81,3,1,1,2,2,32,128,163,,,,,,0,85,85,85,,,,,,,,,,,,,,,,,,,,,,,,,,,,,,,,,,,,,,,,,,,,,,,,,,,,,,,,,716.4008407000001,716.9034819000008,716.9034819000008,717.6532975999999,717.6532975999999,718.1586470000002,718.1586470000002,719.0195750000003,719.0195750000003,None,num_4,0.32405849999850034,719.0195750000003,None,sad,0,Sad,719.363960390001,None,None,719.363960390001,None,,,,,,,,,,,,,,,,,,,,,,,,,,,,,,,,,,,,,,,,,,,,,,,,,,,,,14,001,male,27,500,450,2022_Sep_20_1203,Experiment,2021.1.4,360.1176864389807,
images\S4_M_H_03.png,images\S4_M_H_03_scrambled.png,4,happy,30,male,6,,501,off,1,0.5,0.75,0.5,0.948,3,500,1,2,1,0,0,0,0,6,,,,,,0,86,86,86,,,,,,,,,,,,,,,,,,,,,,,,,,,,,,,,,,,,,,,,,,,,,,,,,,,,,,,,,719.4138060000005,719.919356800001,719.919356800001,720.6746048000005,720.6746048000005,721.179986000001,721.179986000001,722.1297166000004,722.1297166000004,None,num_6,0.39735300000029383,722.1297166000004,None,happy,0,Happy,722.5378593800015,None,None,722.5378593800015,None,,,,,,,,,,,,,,,,,,,,,,,,,,,,,,,,,,,,,,,,,,,,,,,,,,,,,14,001,male,27,500,450,2022_Sep_20_1203,Experiment,2021.1.4,360.1176864389807,
images\S10_M_S_02.png,images\S10_M_S_02_scrambled.png,10,sad,-20,male,2,,419,off,1,0.5,0.75,0.5,0.885,3,418,2,1,1,0,0,0,0,2,,,,,,0,87,87,87,,,,,,,,,,,,,,,,,,,,,,,,,,,,,,,,,,,,,,,,,,,,,,,,,,,,,,,,,722.5850374000001,723.0904632000002,723.0904632000002,723.8402031000005,723.8402031000005,724.3400493999998,724.3400493999998,725.2288499000006,725.2288499000006,None,num_4,1.0427713000008225,725.2288499000006,None,sad,0,Sad,726.297940460001,None,None,726.297940460001,None,,,,,,,,,,,,,,,,,,,,,,,,,,,,,,,,,,,,,,,,,,,,,,,,,,,,,14,001,male,27,500,450,2022_Sep_20_1203,Experiment,2021.1.4,360.1176864389807,
images\S9_F_S_02.png,images\S9_F_S_02_scrambled.png,9,sad,-20,female,2,,53,off,1,0.5,0.75,0.5,0.871,3,52,3,1,2,0,0,0,0,2,,,,,,0,88,88,88,,,,,,,,,,,,,,,,,,,,,,,,,,,,,,,,,,,,,,,,,,,,,,,,,,,,,,,,,726.3505420000001,726.8531898000001,726.8531898000001,727.6030018000001,727.6030018000001,728.1028507999999,728.1028507999999,728.9803204,728.9803204,None,num_4,0.3148806000008335,728.9803204,None,sad,0,Sad,729.3052473799999,None,None,729.3052473799999,None,,,,,,,,,,,,,,,,,,,,,,,,,,,,,,,,,,,,,,,,,,,,,,,,,,,,,14,001,male,27,500,450,2022_Sep_20_1203,Experiment,2021.1.4,360.1176864389807,
images\S7_F_H_02.png,images\S7_F_H_02_scrambled.png,7,happy,20,female,5,,458,on,2,0.5,0.75,0.5,0.846,3,457,1,1,1,2,2,32,128,165,,,,,,0,89,89,89,,,,,,,,,,,,,,,,,,,,,,,,,,,,,,,,,,,,,,,,,,,,,,,,,,,,,,,,,729.3551684000013,729.8605943000002,729.8605943000002,730.6131724999996,730.6131724999996,731.1130332000012,731.1130332000012,731.9655017000005,731.9655017000005,None,num_6,0.3381368999998813,731.9655017000005,None,happy,0,Happy,732.3238702900017,None,None,732.3238702900017,None,,,,,,,,,,,,,,,,,,,,,,,,,,,,,,,,,,,,,,,,,,,,,,,,,,,,,14,001,male,27,500,450,2022_Sep_20_1203,Experiment,2021.1.4,360.1176864389807,
images\S6_M_H_01.png,images\S6_M_H_01_scrambled.png,6,happy,10,male,4,,31,off,1,0.5,0.75,0.5,0.773,3,30,1,1,1,0,0,0,0,4,,,,,,0,90,90,90,,,,,,,,,,,,,,,,,,,,,,,,,,,,,,,,,,,,,,,,,,,,,,,,,,,,,,,,,732.4319995000005,732.9347158,732.9347158,733.6872552000004,733.6872552000004,734.1898450000008,734.1898450000008,734.9646475999998,734.9646475999998,None,num_6,0.4027064000001701,734.9646475999998,None,happy,0,Happy,735.3950792600008,None,None,735.3950792600008,None,,,,,,,,,,,,,,,,,,,,,,,,,,,,,,,,,,,,,,,,,,,,,,,,,,,,,14,001,male,27,500,450,2022_Sep_20_1203,Experiment,2021.1.4,360.1176864389807,
images\S7_F_H_03.png,images\S7_F_H_03_scrambled.png,7,happy,30,female,6,,459,on,2,0.5,0.75,0.5,0.77,3,458,1,1,1,2,2,32,128,166,,,,,,0,91,91,91,,,,,,,,,,,,,,,,,,,,,,,,,,,,,,,,,,,,,,,,,,,,,,,,,,,,,,,,,735.4588481999999,735.9587100000008,735.9587100000008,736.7084707000013,736.7084707000013,737.214027,737.214027,737.985864100001,737.985864100001,None,num_6,0.4451222999996389,737.985864100001,None,happy,0,Happy,738.4412899800009,None,None,738.4412899800009,None,,,,,,,,,,,,,,,,,,,,,,,,,,,,,,,,,,,,,,,,,,,,,,,,,,,,,14,001,male,27,500,450,2022_Sep_20_1203,Experiment,2021.1.4,360.1176864389807,
images\S1_F_H_03.png,images\S1_F_H_03_scrambled.png,1,happy,30,female,6,,543,on,2,0.5,0.75,0.5,0.848,3,542,2,1,2,2,2,32,128,166,,,,,,0,92,92,92,,,,,,,,,,,,,,,,,,,,,,,,,,,,,,,,,,,,,,,,,,,,,,,,,,,,,,,,,738.4912411000005,738.9940373999998,738.9940373999998,739.7436512000004,739.7436512000004,740.2492032000009,740.2492032000009,741.1044373000004,741.1044373000004,None,num_6,0.3503127999993012,741.1044373000004,None,happy,0,Happy,741.470892450001,None,None,741.470892450001,None,,,,,,,,,,,,,,,,,,,,,,,,,,,,,,,,,,,,,,,,,,,,,,,,,,,,,14,001,male,27,500,450,2022_Sep_20_1203,Experiment,2021.1.4,360.1176864389807,
images\S2_M_S_03.png,images\S2_M_S_03_scrambled.png,2,sad,-30,male,1,,552,on,2,0.5,0.75,0.5,0.782,3,551,3,1,1,2,2,32,128,161,,,,,,0,93,93,93,,,,,,,,,,,,,,,,,,,,,,,,,,,,,,,,,,,,,,,,,,,,,,,,,,,,,,,,,741.5819534000002,742.0818085999999,742.0818085999999,742.8344477999999,742.8344477999999,743.3398302000005,743.3398302000005,744.1256365000008,744.1256365000008,None,num_4,0.4576430999986769,744.1256365000008,None,sad,0,Sad,744.6089613900003,None,None,744.6089613900003,None,,,,,,,,,,,,,,,,,,,,,,,,,,,,,,,,,,,,,,,,,,,,,,,,,,,,,14,001,male,27,500,450,2022_Sep_20_1203,Experiment,2021.1.4,360.1176864389807,
images\S4_M_S_01.png,images\S4_M_S_01_scrambled.png,4,sad,-10,male,3,,262,off,1,0.5,0.75,0.5,0.908,3,261,1,1,1,0,0,0,0,3,,,,,,0,94,94,94,,,,,,,,,,,,,,,,,,,,,,,,,,,,,,,,,,,,,,,,,,,,,,,,,,,,,,,,,744.6615535000001,745.161402400001,745.161402400001,745.9141200000013,745.9141200000013,746.4166598000011,746.4166598000011,747.3302466000005,747.3302466000005,None,num_4,0.3410095999988698,747.3302466000005,None,sad,0,Sad,747.6940914600018,None,None,747.6940914600018,None,,,,,,,,,,,,,,,,,,,,,,,,,,,,,,,,,,,,,,,,,,,,,,,,,,,,,14,001,male,27,500,450,2022_Sep_20_1203,Experiment,2021.1.4,360.1176864389807,
images\S9_F_S_03.png,images\S9_F_S_03_scrambled.png,9,sad,-30,female,1,,234,on,2,0.5,0.75,0.5,0.822,3,233,1,1,1,2,2,32,128,161,,,,,,0,95,95,95,,,,,,,,,,,,,,,,,,,,,,,,,,,,,,,,,,,,,,,,,,,,,,,,,,,,,,,,,747.7496427000005,748.2549326000008,748.2549326000008,749.0046684999998,749.0046684999998,749.5101284000011,749.5101284000011,750.3348937999999,750.3348937999999,None,num_4,0.336678399999073,750.3348937999999,None,sad,0,Sad,750.6874867800016,None,None,750.6874867800016,None,,,,,,,,,,,,,,,,,,,,,,,,,,,,,,,,,,,,,,,,,,,,,,,,,,,,,14,001,male,27,500,450,2022_Sep_20_1203,Experiment,2021.1.4,360.1176864389807,
images\S1_F_S_01.png,images\S1_F_S_01_scrambled.png,1,sad,-10,female,3,,364,off,1,0.5,0.75,0.5,0.854,3,363,1,1,1,0,0,0,0,3,,,,,,0,96,96,96,,,,,,,,,,,,,,,,,,,,,,,,,,,,,,,,,,,,,,,,,,,,,,,,,,,,,,,,,750.7346838000012,751.2345347999999,751.2345347999999,751.9898535000011,751.9898535000011,752.4924659999997,752.4924659999997,753.3505697,753.3505697,None,num_4,0.368797999999515,753.3505697,None,sad,0,Sad,753.739414220001,None,None,753.739414220001,None,,,,,,,,,,,,,,,,,,,,,,,,,,,,,,,,,,,,,,,,,,,,,,,,,,,,,14,001,male,27,500,450,2022_Sep_20_1203,Experiment,2021.1.4,360.1176864389807,
images\S5_F_S_01.png,images\S5_F_S_01_scrambled.png,5,sad,-10,female,3,,388,off,1,0.5,0.75,0.5,0.917,3,387,2,1,2,0,0,0,0,3,,,,,,0,97,97,97,,,,,,,,,,,,,,,,,,,,,,,,,,,,,,,,,,,,,,,,,,,,,,,,,,,,,,,,,753.8476147000001,754.350257,754.350257,755.1000029000006,755.1000029000006,755.6026484000013,755.6026484000013,756.5245692999997,756.5245692999997,None,num_4,0.6505885999995371,756.5245692999997,None,sad,0,Sad,757.1882262800009,None,None,757.1882262800009,None,,,,,,,,,,,,,,,,,,,,,,,,,,,,,,,,,,,,,,,,,,,,,,,,,,,,,14,001,male,27,500,450,2022_Sep_20_1203,Experiment,2021.1.4,360.1176864389807,
images\S6_M_H_01.png,images\S6_M_H_01_scrambled.png,6,happy,10,male,4,,511,off,1,0.5,0.75,0.5,0.861,3,510,3,1,1,0,0,0,0,4,,,,,,0,98,98,98,,,,,,,,,,,,,,,,,,,,,,,,,,,,,,,,,,,,,,,,,,,,,,,,,,,,,,,,,757.2354536000003,757.7408642000009,757.7408642000009,758.4935767000006,758.4935767000006,758.9932805000008,758.9932805000008,759.8597355000002,759.8597355000002,None,num_6,1.9955668999991758,759.8597355000002,None,happy,0,Happy,761.8701515800003,None,None,761.8701515800003,None,,,,,,,,,,,,,,,,,,,,,,,,,,,,,,,,,,,,,,,,,,,,,,,,,,,,,14,001,male,27,500,450,2022_Sep_20_1203,Experiment,2021.1.4,360.1176864389807,
images\S2_M_H_01.png,images\S2_M_H_01_scrambled.png,2,happy,10,male,4,,487,off,1,0.5,0.75,0.5,0.926,3,486,4,1,2,0,0,0,0,4,,,,,,0,99,99,99,,,,,,,,,,,,,,,,,,,,,,,,,,,,,,,,,,,,,,,,,,,,,,,,,,,,,,,,,761.9173456999997,762.4199642000003,762.4199642000003,763.1725047,763.1725047,763.6751913999997,763.6751913999997,764.6054249000008,764.6054249000008,None,num_6,0.28981560000102036,764.6054249000008,None,happy,0,Happy,764.9248515600011,None,None,764.9248515600011,None,,,,,,,,,,,,,,,,,,,,,,,,,,,,,,,,,,,,,,,,,,,,,,,,,,,,,14,001,male,27,500,450,2022_Sep_20_1203,Experiment,2021.1.4,360.1176864389807,
images\S2_M_S_01.png,images\S2_M_S_01_scrambled.png,2,sad,-10,male,3,,310,on,2,0.5,0.75,0.5,0.852,3,309,1,2,1,2,2,32,128,163,,,,,,0,100,100,100,,,,,,,,,,,,,,,,,,,,,,,,,,,,,,,,,,,,,,,,,,,,,,,,,,,,,,,,,764.9886192000013,765.488457200001,765.488457200001,766.2439555000001,766.2439555000001,766.7493173000003,766.7493173000003,767.6045682000004,767.6045682000004,None,num_6,0.41866939999999886,767.6045682000004,None,happy,0,Sad,768.0378295099999,None,None,768.0378295099999,None,,,,,,,,,,,,,,,,,,,,,,,,,,,,,,,,,,,,,,,,,,,,,,,,,,,,,14,001,male,27,500,450,2022_Sep_20_1203,Experiment,2021.1.4,360.1176864389807,
images\S5_F_S_02.png,images\S5_F_S_02_scrambled.png,5,sad,-20,female,2,,389,off,1,0.5,0.75,0.5,0.843,3,388,1,1,1,0,0,0,0,2,,,,,,0,101,101,101,,,,,,,,,,,,,,,,,,,,,,,,,,,,,,,,,,,,,,,,,,,,,,,,,,,,,,,,,768.1459856000001,768.6485950000006,768.6485950000006,769.3984215,769.3984215,769.9039326000002,769.9039326000002,770.7507826000001,770.7507826000001,None,num_4,0.30489090000082797,770.7507826000001,None,sad,0,Sad,771.0785860900014,None,None,771.0785860900014,None,,,,,,,,,,,,,,,,,,,,,,,,,,,,,,,,,,,,,,,,,,,,,,,,,,,,,14,001,male,27,500,450,2022_Sep_20_1203,Experiment,2021.1.4,360.1176864389807,
images\S4_M_S_03.png,images\S4_M_S_03_scrambled.png,4,sad,-30,male,1,,564,on,2,0.5,0.75,0.5,0.895,3,563,1,1,1,2,2,32,128,161,,,,,,0,102,102,102,,,,,,,,,,,,,,,,,,,,,,,,,,,,,,,,,,,,,,,,,,,,,,,,,,,,,,,,,771.1283948,771.6310374000004,771.6310374000004,772.3837328000009,772.3837328000009,772.8861992000002,772.8861992000002,773.7831849000013,773.7831849000013,None,num_4,0.3518442000004143,773.7831849000013,None,sad,0,Sad,774.1469203800007,None,None,774.1469203800007,None,,,,,,,,,,,,,,,,,,,,,,,,,,,,,,,,,,,,,,,,,,,,,,,,,,,,,14,001,male,27,500,450,2022_Sep_20_1203,Experiment,2021.1.4,360.1176864389807,
images\S8_M_H_03.png,images\S8_M_H_03_scrambled.png,8,happy,30,male,6,,465,on,2,0.5,0.75,0.5,0.876,3,464,2,1,1,2,2,32,128,166,,,,,,0,103,103,103,,,,,,,,,,,,,,,,,,,,,,,,,,,,,,,,,,,,,,,,,,,,,,,,,,,,,,,,,774.2274338000007,774.7301284000005,774.7301284000005,775.4826716000007,775.4826716000007,775.9852953999998,775.9852953999998,776.8655319999998,776.8655319999998,None,num_6,0.4857233000002452,776.8655319999998,None,happy,0,Happy,777.3793472600009,None,None,777.3793472600009,None,,,,,,,,,,,,,,,,,,,,,,,,,,,,,,,,,,,,,,,,,,,,,,,,,,,,,14,001,male,27,500,450,2022_Sep_20_1203,Experiment,2021.1.4,360.1176864389807,
images\S7_F_S_02.png,images\S7_F_S_02_scrambled.png,7,sad,-20,female,2,,461,on,2,0.5,0.75,0.5,0.757,3,460,3,1,1,2,2,32,128,162,,,,,,0,104,104,104,,,,,,,,,,,,,,,,,,,,,,,,,,,,,,,,,,,,,,,,,,,,,,,,,,,,,,,,,777.4930934000004,777.9929370000009,777.9929370000009,778.7454797999999,778.7454797999999,779.2509361000011,779.2509361000011,780.0146255,780.0146255,None,num_4,0.4402238999991823,780.0146255,None,sad,0,Sad,780.4699515800003,None,None,780.4699515800003,None,,,,,,,,,,,,,,,,,,,,,,,,,,,,,,,,,,,,,,,,,,,,,,,,,,,,,14,001,male,27,500,450,2022_Sep_20_1203,Experiment,2021.1.4,360.1176864389807,
images\S5_F_S_02.png,images\S5_F_S_02_scrambled.png,5,sad,-20,female,2,,569,on,2,0.5,0.75,0.5,0.903,3,568,4,1,2,2,2,32,128,162,,,,,,0,105,105,105,,,,,,,,,,,,,,,,,,,,,,,,,,,,,,,,,,,,,,,,,,,,,,,,,,,,,,,,,780.5338245000003,781.0393924,781.0393924,781.7945395000006,781.7945395000006,782.2972550000013,782.2972550000013,783.2052941000002,783.2052941000002,None,num_4,1.905787200001214,783.2052941000002,None,sad,0,Sad,785.1407448000009,None,None,785.1407448000009,None,,,,,,,,,,,,,,,,,,,,,,,,,,,,,,,,,,,,,,,,,,,,,,,,,,,,,14,001,male,27,500,450,2022_Sep_20_1203,Experiment,2021.1.4,360.1176864389807,
images\S8_M_S_03.png,images\S8_M_S_03_scrambled.png,8,sad,-30,male,1,,528,off,1,0.5,0.75,0.5,0.804,3,527,1,1,1,0,0,0,0,1,,,,,,0,106,106,106,,,,,,,,,,,,,,,,,,,,,,,,,,,,,,,,,,,,,,,,,,,,,,,,,,,,,,,,,785.1962741000007,785.6989078000006,785.6989078000006,786.4486766000009,786.4486766000009,786.9542136,786.9542136,787.7649933000012,787.7649933000012,None,num_4,0.31399429999873973,787.7649933000012,None,sad,0,Sad,788.0898049800016,None,None,788.0898049800016,None,,,,,,,,,,,,,,,,,,,,,,,,,,,,,,,,,,,,,,,,,,,,,,,,,,,,,14,001,male,27,500,450,2022_Sep_20_1203,Experiment,2021.1.4,360.1176864389807,
images\blank.jpg,images\blank.jpg,none,none,none,none,0,,620,on,2,0.5,0.75,0.5,0.873,0,619,1,1,1,3,3,48,192,240,,,,,,0,107,107,107,,,,,,,,,,,,,,,,,,,,,,,,,,,,,,,,,,,,,,,,,,,,,,,,,,,,,,,,,788.1733710000008,788.675776,788.675776,789.4282933000013,789.4282933000013,789.9281658,789.9281658,790.8029483999999,790.8029483999999,790.8029483999999,None,,790.8029483999999,None,miss,0,,793.8047367700001,None,None,793.8047367700001,None,,,,,,,,,,,,,,,,,,,,,,,,,,,,,,,,,,,,,,,,,,,,,,,,,,,,,14,001,male,27,500,450,2022_Sep_20_1203,Experiment,2021.1.4,360.1176864389807,
images\S9_F_S_01.png,images\S9_F_S_01_scrambled.png,9,sad,-10,female,3,,292,off,1,0.5,0.75,0.5,0.821,3,291,1,1,1,0,0,0,0,3,,,,,,0,108,108,108,,,,,,,,,,,,,,,,,,,,,,,,,,,,,,,,,,,,,,,,,,,,,,,,,,,,,,,,,793.9494051000001,794.4517408000011,794.4517408000011,795.2015133000004,795.2015133000004,795.7042517999998,795.7042517999998,796.5290291000001,796.5290291000001,None,num_6,0.3506154999995488,796.5290291000001,793.9494051000001,happy,0,Sad,796.8872839100004,None,None,796.8872839100004,None,,,,,,,,,,,,,,,,,,,,,,,,,,,,,,,,,,,,,,,,,,,,,,,,,,,,,14,001,male,27,500,450,2022_Sep_20_1203,Experiment,2021.1.4,360.1176864389807,
images\blank.jpg,images\blank.jpg,none,none,none,none,0,,641,on,2,0.5,0.75,0.5,0.903,0,640,1,1,1,3,3,48,192,240,,,,,,0,109,109,109,,,,,,,,,,,,,,,,,,,,,,,,,,,,,,,,,,,,,,,,,,,,,,,,,,,,,,,,,796.9789280000005,797.4843053000004,797.4843053000004,798.2395568000011,798.2395568000011,798.7449620999996,798.7449620999996,799.6502091000002,799.6502091000002,799.6502091000002,None,,799.6502091000002,None,miss,0,,802.6492884700001,None,None,802.6492884700001,None,,,,,,,,,,,,,,,,,,,,,,,,,,,,,,,,,,,,,,,,,,,,,,,,,,,,,14,001,male,27,500,450,2022_Sep_20_1203,Experiment,2021.1.4,360.1176864389807,
images\S7_F_H_01.png,images\S7_F_H_01_scrambled.png,7,happy,10,female,4,,337,on,2,0.5,0.75,0.5,0.939,3,336,2,1,1,2,2,32,128,164,,,,,,0,110,110,110,,,,,,,,,,,,,,,,,,,,,,,,,,,,,,,,,,,,,,,,,,,,,,,,,,,,,,,,,802.7660790999998,803.2712670000001,803.2712670000001,804.0238072000011,804.0238072000011,804.5293051000008,804.5293051000008,805.4705924999998,805.4705924999998,None,num_6,0.2568113999986963,805.4705924999998,802.7660790999998,happy,0,Happy,805.7537910600004,None,None,805.7537910600004,None,,,,,,,,,,,,,,,,,,,,,,,,,,,,,,,,,,,,,,,,,,,,,,,,,,,,,14,001,male,27,500,450,2022_Sep_20_1203,Experiment,2021.1.4,360.1176864389807,
images\S4_M_S_03.png,images\S4_M_S_03_scrambled.png,4,sad,-30,male,1,,144,off,1,0.5,0.75,0.5,0.931,3,143,1,1,1,0,0,0,0,1,,,,,,0,111,111,111,,,,,,,,,,,,,,,,,,,,,,,,,,,,,,,,,,,,,,,,,,,,,,,,,,,,,,,,,805.8148799999999,806.3203305000006,806.3203305000006,807.0729121000004,807.0729121000004,807.5754682000006,807.5754682000006,808.5085149999995,808.5085149999995,None,num_4,0.24209800000062387,808.5085149999995,None,sad,0,Sad,808.7667729500008,None,None,808.7667729500008,None,,,,,,,,,,,,,,,,,,,,,,,,,,,,,,,,,,,,,,,,,,,,,,,,,,,,,14,001,male,27,500,450,2022_Sep_20_1203,Experiment,2021.1.4,360.1176864389807,
images\S6_M_S_01.png,images\S6_M_S_01_scrambled.png,6,sad,-10,male,3,,574,on,2,0.5,0.75,0.5,0.943,3,573,1,1,1,2,2,32,128,163,,,,,,0,112,112,112,,,,,,,,,,,,,,,,,,,,,,,,,,,,,,,,,,,,,,,,,,,,,,,,,,,,,,,,,808.8167549000009,809.3194686000006,809.3194686000006,810.0747618000005,810.0747618000005,810.5774191,810.5774191,811.5243721999996,811.5243721999996,None,num_6,0.31508390000090003,811.5243721999996,None,happy,0,Sad,811.8519418100004,None,None,811.8519418100004,None,,,,,,,,,,,,,,,,,,,,,,,,,,,,,,,,,,,,,,,,,,,,,,,,,,,,,14,001,male,27,500,450,2022_Sep_20_1203,Experiment,2021.1.4,360.1176864389807,
images\S7_F_S_03.png,images\S7_F_S_03_scrambled.png,7,sad,-30,female,1,,342,on,2,0.5,0.75,0.5,0.867,3,341,2,1,1,2,2,32,128,161,,,,,,0,113,113,113,,,,,,,,,,,,,,,,,,,,,,,,,,,,,,,,,,,,,,,,,,,,,,,,,,,,,,,,,811.9102503000013,812.4156707000002,812.4156707000002,813.1709873,813.1709873,813.6735867999996,813.6735867999996,814.5427696000006,814.5427696000006,None,num_4,0.3764317999994091,814.5427696000006,None,sad,0,Sad,814.9454332600017,None,None,814.9454332600017,None,,,,,,,,,,,,,,,,,,,,,,,,,,,,,,,,,,,,,,,,,,,,,,,,,,,,,14,001,male,27,500,450,2022_Sep_20_1203,Experiment,2021.1.4,360.1176864389807,
images\S4_M_H_03.png,images\S4_M_H_03_scrambled.png,4,happy,30,male,6,,141,off,1,0.5,0.75,0.5,0.905,3,140,1,1,1,0,0,0,0,6,,,,,,0,114,114,114,,,,,,,,,,,,,,,,,,,,,,,,,,,,,,,,,,,,,,,,,,,,,,,,,,,,,,,,,815.0092935000011,815.511920500001,815.511920500001,816.2645491000003,816.2645491000003,816.7670804999998,816.7670804999998,817.6751600999996,817.6751600999996,None,num_6,0.29187649999948917,817.6751600999996,None,happy,0,Happy,817.97786198,None,None,817.97786198,None,,,,,,,,,,,,,,,,,,,,,,,,,,,,,,,,,,,,,,,,,,,,,,,,,,,,,14,001,male,27,500,450,2022_Sep_20_1203,Experiment,2021.1.4,360.1176864389807,
images\S7_F_H_01.png,images\S7_F_H_01_scrambled.png,7,happy,10,female,4,,217,on,2,0.5,0.75,0.5,0.829,3,216,1,1,1,2,2,32,128,164,,,,,,0,115,115,115,,,,,,,,,,,,,,,,,,,,,,,,,,,,,,,,,,,,,,,,,,,,,,,,,,,,,,,,,818.0278634000006,818.5276475999999,818.5276475999999,819.2801921000009,819.2801921000009,819.7856491000002,819.7856491000002,820.6188559000002,820.6188559000002,None,num_6,0.35629830000107177,820.6188559000002,None,happy,0,Happy,820.9991123600012,None,None,820.9991123600012,None,,,,,,,,,,,,,,,,,,,,,,,,,,,,,,,,,,,,,,,,,,,,,,,,,,,,,14,001,male,27,500,450,2022_Sep_20_1203,Experiment,2021.1.4,360.1176864389807,
images\S10_M_H_01.png,images\S10_M_H_01_scrambled.png,10,happy,10,male,4,,55,off,1,0.5,0.75,0.5,0.833,3,54,1,1,2,0,0,0,0,4,,,,,,0,116,116,116,,,,,,,,,,,,,,,,,,,,,,,,,,,,,,,,,,,,,,,,,,,,,,,,,,,,,,,,,821.0518732,821.5544888000004,821.5544888000004,822.3098738000008,822.3098738000008,822.8124979000004,822.8124979000004,823.6483136000006,823.6483136000006,None,num_6,0.28686669999842707,823.6483136000006,None,happy,0,Happy,823.9539127900007,None,None,823.9539127900007,None,,,,,,,,,,,,,,,,,,,,,,,,,,,,,,,,,,,,,,,,,,,,,,,,,,,,,14,001,male,27,500,450,2022_Sep_20_1203,Experiment,2021.1.4,360.1176864389807,
images\S9_F_S_03.png,images\S9_F_S_03_scrambled.png,9,sad,-30,female,1,,54,off,1,0.5,0.75,0.5,0.949,3,53,2,1,1,0,0,0,0,1,,,,,,0,117,117,117,,,,,,,,,,,,,,,,,,,,,,,,,,,,,,,,,,,,,,,,,,,,,,,,,,,,,,,,,824.0037412000001,824.5063683000008,824.5063683000008,825.259080400001,825.259080400001,825.7643829999997,825.7643829999997,826.7196253000002,826.7196253000002,None,num_4,0.32747720000043046,826.7196253000002,None,sad,0,Sad,827.069540460001,None,None,827.069540460001,None,,,,,,,,,,,,,,,,,,,,,,,,,,,,,,,,,,,,,,,,,,,,,,,,,,,,,14,001,male,27,500,450,2022_Sep_20_1203,Experiment,2021.1.4,360.1176864389807,
images\S9_F_H_03.png,images\S9_F_H_03_scrambled.png,9,happy,30,female,6,,471,on,2,0.5,0.75,0.5,0.923,3,470,1,2,1,2,2,32,128,166,,,,,,0,118,118,118,,,,,,,,,,,,,,,,,,,,,,,,,,,,,,,,,,,,,,,,,,,,,,,,,,,,,,,,,827.1333316,827.6359725000002,827.6359725000002,828.388681800001,828.388681800001,828.8940745,828.8940745,829.8213992000001,829.8213992000001,None,num_6,0.4097359999996115,829.8213992000001,None,happy,0,Happy,830.246273050001,None,None,830.246273050001,None,,,,,,,,,,,,,,,,,,,,,,,,,,,,,,,,,,,,,,,,,,,,,,,,,,,,,14,001,male,27,500,450,2022_Sep_20_1203,Experiment,2021.1.4,360.1176864389807,
images\S2_M_H_01.png,images\S2_M_H_01_scrambled.png,2,happy,10,male,4,,367,off,1,0.5,0.75,0.5,0.882,3,366,1,1,1,0,0,0,0,4,,,,,,0,119,119,119,,,,,,,,,,,,,,,,,,,,,,,,,,,,,,,,,,,,,,,,,,,,,,,,,,,,,,,,,830.2934634000012,830.7933229999999,830.7933229999999,831.5488068000013,831.5488068000013,832.0541976000004,832.0541976000004,832.9399028999997,832.9399028999997,None,num_6,1.0112541999988025,832.9399028999997,None,happy,0,Happy,833.96188368,None,None,833.96188368,None,,,,,,,,,,,,,,,,,,,,,,,,,,,,,,,,,,,,,,,,,,,,,,,,,,,,,14,001,male,27,500,450,2022_Sep_20_1203,Experiment,2021.1.4,360.1176864389807,
images\S7_F_H_03.png,images\S7_F_H_03_scrambled.png,7,happy,30,female,6,,39,off,1,0.5,0.75,0.5,0.798,3,38,2,1,1,0,0,0,0,6,,,,,,0,120,120,120,,,,,,,,,,,,,,,,,,,,,,,,,,,,,,,,,,,,,,,,,,,,,,,,,,,,,,,,,834.0117631000012,834.5144717000003,834.5144717000003,835.2641660000008,835.2641660000008,835.7696432000012,835.7696432000012,836.5693964000002,836.5693964000002,None,num_6,0.26144899999962945,836.5693964000002,None,happy,0,Happy,836.8442524500006,None,None,836.8442524500006,None,,,,,,,,,,,,,,,,,,,,,,,,,,,,,,,,,,,,,,,,,,,,,,,,,,,,,14,001,male,27,500,450,2022_Sep_20_1203,Experiment,2021.1.4,360.1176864389807,
images\S7_F_H_02.png,images\S7_F_H_02_scrambled.png,7,happy,20,female,5,,98,on,2,0.5,0.75,0.5,0.868,3,97,1,2,1,2,2,32,128,165,,,,,,0,121,121,121,,,,,,,,,,,,,,,,,,,,,,,,,,,,,,,,,,,,,,,,,,,,,,,,,,,,,,,,,836.894201000001,837.394059100001,837.394059100001,838.1494703999997,838.1494703999997,838.6492149000005,838.6492149000005,839.5239627999999,839.5239627999999,None,num_6,0.3947617000012542,839.5239627999999,None,happy,0,Happy,839.9293986800003,None,None,839.9293986800003,None,,,,,,,,,,,,,,,,,,,,,,,,,,,,,,,,,,,,,,,,,,,,,,,,,,,,,14,001,male,27,500,450,2022_Sep_20_1203,Experiment,2021.1.4,360.1176864389807,
images\S2_M_H_01.png,images\S2_M_H_01_scrambled.png,2,happy,10,male,4,,247,off,1,0.5,0.75,0.5,0.79,3,246,1,1,1,0,0,0,0,4,,,,,,0,122,122,122,,,,,,,,,,,,,,,,,,,,,,,,,,,,,,,,,,,,,,,,,,,,,,,,,,,,,,,,,839.976585800001,840.4793198999996,840.4793198999996,841.2289760000003,841.2289760000003,841.7344678000009,841.7344678000009,842.5313666000002,842.5313666000002,None,num_6,0.43570120000003953,842.5313666000002,None,happy,0,Happy,842.9896339600018,None,None,842.9896339600018,None,,,,,,,,,,,,,,,,,,,,,,,,,,,,,,,,,,,,,,,,,,,,,,,,,,,,,14,001,male,27,500,450,2022_Sep_20_1203,Experiment,2021.1.4,360.1176864389807,
images\S6_M_S_01.png,images\S6_M_S_01_scrambled.png,6,sad,-10,male,3,,154,off,1,0.5,0.75,0.5,0.85,3,153,2,1,1,0,0,0,0,3,,,,,,0,123,123,123,,,,,,,,,,,,,,,,,,,,,,,,,,,,,,,,,,,,,,,,,,,,,,,,,,,,,,,,,843.0561878999997,843.5589916000008,843.5589916000008,844.3142623000003,844.3142623000003,844.8196255000003,844.8196255000003,845.6749028000013,845.6749028000013,None,num_4,0.3564575000000332,845.6749028000013,None,sad,0,Sad,846.0581789600019,None,None,846.0581789600019,None,,,,,,,,,,,,,,,,,,,,,,,,,,,,,,,,,,,,,,,,,,,,,,,,,,,,,14,001,male,27,500,450,2022_Sep_20_1203,Experiment,2021.1.4,360.1176864389807,
images\S5_F_S_02.png,images\S5_F_S_02_scrambled.png,5,sad,-20,female,2,,449,on,2,0.5,0.75,0.5,0.785,3,448,1,1,1,2,2,32,128,162,,,,,,0,124,124,124,,,,,,,,,,,,,,,,,,,,,,,,,,,,,,,,,,,,,,,,,,,,,,,,,,,,,,,,,846.1108098000004,846.6136164,846.6136164,847.3659871,847.3659871,847.8687644000001,847.8687644000001,848.6573114000003,848.6573114000003,None,num_4,1.1581150000001799,848.6573114000003,None,sad,0,Sad,849.8431420600009,None,None,849.8431420600009,None,,,,,,,,,,,,,,,,,,,,,,,,,,,,,,,,,,,,,,,,,,,,,,,,,,,,,14,001,male,27,500,450,2022_Sep_20_1203,Experiment,2021.1.4,360.1176864389807,
images\S3_F_H_02.png,images\S3_F_H_02_scrambled.png,3,happy,20,female,5,,134,off,1,0.5,0.75,0.5,0.947,3,133,1,1,1,0,0,0,0,5,,,,,,0,125,125,125,,,,,,,,,,,,,,,,,,,,,,,,,,,,,,,,,,,,,,,,,,,,,,,,,,,,,,,,,849.8957465000003,850.3955882000009,850.3955882000009,851.1481913000007,851.1481913000007,851.6480394000009,851.6480394000009,852.5976843999997,852.5976843999997,None,num_4,0.4654653000015969,852.5976843999997,None,sad,0,Happy,853.0753236400014,None,None,853.0753236400014,None,,,,,,,,,,,,,,,,,,,,,,,,,,,,,,,,,,,,,,,,,,,,,,,,,,,,,14,001,male,27,500,450,2022_Sep_20_1203,Experiment,2021.1.4,360.1176864389807,
images\S2_M_H_02.png,images\S2_M_H_02_scrambled.png,2,happy,20,male,5,,248,off,1,0.5,0.75,0.5,0.779,3,247,2,1,2,0,0,0,0,5,,,,,,0,126,126,126,,,,,,,,,,,,,,,,,,,,,,,,,,,,,,,,,,,,,,,,,,,,,,,,,,,,,,,,,853.125308300001,853.6279524000001,853.6279524000001,854.3805248999997,854.3805248999997,854.8859266,854.8859266,855.6691081000008,855.6691081000008,None,num_6,0.337823899999421,855.6691081000008,None,happy,0,Happy,856.0216471800013,None,None,856.0216471800013,None,,,,,,,,,,,,,,,,,,,,,,,,,,,,,,,,,,,,,,,,,,,,,,,,,,,,,14,001,male,27,500,450,2022_Sep_20_1203,Experiment,2021.1.4,360.1176864389807,
images\S10_M_S_01.png,images\S10_M_S_01_scrambled.png,10,sad,-10,male,3,,478,on,2,0.5,0.75,0.5,0.925,3,477,1,1,1,2,2,32,128,163,,,,,,0,127,127,127,,,,,,,,,,,,,,,,,,,,,,,,,,,,,,,,,,,,,,,,,,,,,,,,,,,,,,,,,856.0688427000005,856.5714717999999,856.5714717999999,857.3241698000002,857.3241698000002,857.8295017,857.8295017,858.7597506000002,858.7597506000002,None,num_6,0.28746439999849827,858.7597506000002,None,happy,0,Sad,859.0625320100007,None,None,859.0625320100007,None,,,,,,,,,,,,,,,,,,,,,,,,,,,,,,,,,,,,,,,,,,,,,,,,,,,,,14,001,male,27,500,450,2022_Sep_20_1203,Experiment,2021.1.4,360.1176864389807,
images\S8_M_H_02.png,images\S8_M_H_02_scrambled.png,8,happy,20,male,5,,584,on,2,0.5,0.75,0.5,0.803,3,583,2,1,1,2,2,32,128,165,,,,,,0,128,128,128,,,,,,,,,,,,,,,,,,,,,,,,,,,,,,,,,,,,,,,,,,,,,,,,,,,,,,,,,859.1179000000011,859.620529400001,859.620529400001,860.3730933999996,860.3730933999996,860.8786400000008,860.8786400000008,861.6866933000001,861.6866933000001,None,num_6,0.36869579999984126,861.6866933000001,None,happy,0,Happy,862.0838153600016,None,None,862.0838153600016,None,,,,,,,,,,,,,,,,,,,,,,,,,,,,,,,,,,,,,,,,,,,,,,,,,,,,,14,001,male,27,500,450,2022_Sep_20_1203,Experiment,2021.1.4,360.1176864389807,
images\S9_F_S_02.png,images\S9_F_S_02_scrambled.png,9,sad,-20,female,2,,113,on,2,0.5,0.75,0.5,0.805,3,112,3,1,1,2,2,32,128,162,,,,,,0,129,129,129,,,,,,,,,,,,,,,,,,,,,,,,,,,,,,,,,,,,,,,,,,,,,,,,,,,,,,,,,862.1364172000012,862.6391400000011,862.6391400000011,863.3944255000006,863.3944255000006,863.8942002000003,863.8942002000003,864.7050985000005,864.7050985000005,None,num_4,0.3106193000003259,864.7050985000005,None,sad,0,Sad,865.0299608800015,None,None,865.0299608800015,None,,,,,,,,,,,,,,,,,,,,,,,,,,,,,,,,,,,,,,,,,,,,,,,,,,,,,14,001,male,27,500,450,2022_Sep_20_1203,Experiment,2021.1.4,360.1176864389807,
images\S5_F_H_01.png,images\S5_F_H_01_scrambled.png,5,happy,10,female,4,,145,off,1,0.5,0.75,0.5,0.833,3,144,1,1,1,0,0,0,0,4,,,,,,0,130,130,130,,,,,,,,,,,,,,,,,,,,,,,,,,,,,,,,,,,,,,,,,,,,,,,,,,,,,,,,,865.0771777000009,865.5798656000006,865.5798656000006,866.3351421999996,866.3351421999996,866.8378086000012,866.8378086000012,867.6736101000006,867.6736101000006,None,num_6,0.4538881999997102,867.6736101000006,None,happy,0,Happy,868.1568041999999,None,space,868.1568041999999,None,135.26533150000068,,,,,,,,,,,,,,,,,,,,,,,,,,,,,,,,,,,,,,,,,,,,,,,,,,,,14,001,male,27,500,450,2022_Sep_20_1203,Experiment,2021.1.4,360.1176864389807,
images\S1_F_S_02.png,images\S1_F_S_02_scrambled.png,1,sad,-20,female,2,,305,on,2,0.5,0.75,0.5,0.855,3,304,1,1,1,2,2,32,128,162,,,,,,0,131,131,131,,,,,,,,,,,,,,,,,,,,,,,,,,,,,,,,,,,,,,,,,,,,,,,,,,,,,,,,,1003.5149734999995,1004.0176284000008,1004.0176284000008,1004.770167300001,1004.770167300001,1005.2756411000009,1005.2756411000009,1006.1308626999999,1006.1308626999999,None,num_4,0.38835349999862956,1006.1308626999999,None,sad,0,Sad,1006.5308619800016,None,None,1006.5308619800016,None,,,,,,,,,,,,,,,,,,,,,,,,,,,,,,,,,,,,,,,,,,,,,,,,,,,,,14,001,male,27,500,450,2022_Sep_20_1203,Experiment,2021.1.4,360.1176864389807,
images\S2_M_H_03.png,images\S2_M_H_03_scrambled.png,2,happy,30,male,6,,429,on,2,0.5,0.75,0.5,0.763,3,428,2,1,1,2,2,32,128,166,,,,,,0,132,132,132,,,,,,,,,,,,,,,,,,,,,,,,,,,,,,,,,,,,,,,,,,,,,,,,,,,,,,,,,1006.6418174999999,1007.1416583999999,1007.1416583999999,1007.8943861000007,1007.8943861000007,1008.3968495999998,1008.3968495999998,1009.1660898000009,1009.1660898000009,None,num_6,0.4006657999998424,1009.1660898000009,None,happy,0,Happy,1009.5770378800007,None,None,1009.5770378800007,None,,,,,,,,,,,,,,,,,,,,,,,,,,,,,,,,,,,,,,,,,,,,,,,,,,,,,14,001,male,27,500,450,2022_Sep_20_1203,Experiment,2021.1.4,360.1176864389807,
images\S6_M_S_02.png,images\S6_M_S_02_scrambled.png,6,sad,-20,male,2,,155,off,1,0.5,0.75,0.5,0.773,3,154,1,1,1,0,0,0,0,2,,,,,,0,133,133,133,,,,,,,,,,,,,,,,,,,,,,,,,,,,,,,,,,,,,,,,,,,,,,,,,,,,,,,,,1009.6242307000011,1010.1240954000004,1010.1240954000004,1010.873898400001,1010.873898400001,1011.3793795000001,1011.3793795000001,1012.1541479000007,1012.1541479000007,None,num_4,0.3566279000006034,1012.1541479000007,None,sad,0,Sad,1012.5261055800001,None,None,1012.5261055800001,None,,,,,,,,,,,,,,,,,,,,,,,,,,,,,,,,,,,,,,,,,,,,,,,,,,,,,14,001,male,27,500,450,2022_Sep_20_1203,Experiment,2021.1.4,360.1176864389807,
images\S8_M_H_03.png,images\S8_M_H_03_scrambled.png,8,happy,30,male,6,,45,off,1,0.5,0.75,0.5,0.842,3,44,2,1,1,0,0,0,0,6,,,,,,0,134,134,134,,,,,,,,,,,,,,,,,,,,,,,,,,,,,,,,,,,,,,,,,,,,,,,,,,,,,,,,,1012.5899886000007,1013.0898195999998,1013.0898195999998,1013.8452354000001,1013.8452354000001,1014.350636000001,1014.350636000001,1015.1948743000012,1015.1948743000012,None,num_6,0.29995749999943655,1015.1948743000012,None,happy,0,Happy,1015.5085242800014,None,None,1015.5085242800014,None,,,,,,,,,,,,,,,,,,,,,,,,,,,,,,,,,,,,,,,,,,,,,,,,,,,,,14,001,male,27,500,450,2022_Sep_20_1203,Experiment,2021.1.4,360.1176864389807,
images\S7_F_S_02.png,images\S7_F_S_02_scrambled.png,7,sad,-20,female,2,,281,off,1,0.5,0.75,0.5,0.797,3,280,3,1,1,0,0,0,0,2,,,,,,0,135,135,135,,,,,,,,,,,,,,,,,,,,,,,,,,,,,,,,,,,,,,,,,,,,,,,,,,,,,,,,,1015.558505500001,1016.0611557000011,1016.0611557000011,1016.8164503000007,1016.8164503000007,1017.3191270000007,1017.3191270000007,1018.1188499,1018.1188499,None,num_4,0.33660020000024815,1018.1188499,None,sad,0,Sad,1018.4802470300019,None,None,1018.4802470300019,None,,,,,,,,,,,,,,,,,,,,,,,,,,,,,,,,,,,,,,,,,,,,,,,,,,,,,14,001,male,27,500,450,2022_Sep_20_1203,Experiment,2021.1.4,360.1176864389807,
images\S6_M_H_01.png,images\S6_M_H_01_scrambled.png,6,happy,10,male,4,,391,off,1,0.5,0.75,0.5,0.88,3,390,4,1,1,0,0,0,0,4,,,,,,0,136,136,136,,,,,,,,,,,,,,,,,,,,,,,,,,,,,,,,,,,,,,,,,,,,,,,,,,,,,,,,,1018.5325912000008,1019.0352084000006,1019.0352084000006,1019.7906034000007,1019.7906034000007,1020.2932300000011,1020.2932300000011,1021.1791735999996,1021.1791735999996,None,num_6,0.44362659999933385,1021.1791735999996,None,happy,0,Happy,1021.6456323600014,None,None,1021.6456323600014,None,,,,,,,,,,,,,,,,,,,,,,,,,,,,,,,,,,,,,,,,,,,,,,,,,,,,,14,001,male,27,500,450,2022_Sep_20_1203,Experiment,2021.1.4,360.1176864389807,
images\S10_M_H_01.png,images\S10_M_H_01_scrambled.png,10,happy,10,male,4,,475,on,2,0.5,0.75,0.5,0.796,3,474,1,1,2,2,2,32,128,164,,,,,,0,137,137,137,,,,,,,,,,,,,,,,,,,,,,,,,,,,,,,,,,,,,,,,,,,,,,,,,,,,,,,,,1021.7093886000002,1022.2149234999997,1022.2149234999997,1022.9701865999996,1022.9701865999996,1023.4699779000002,1023.4699779000002,1024.2698566,1024.2698566,None,num_6,0.33692490000066755,1024.2698566,None,happy,0,Happy,1024.6168371800013,None,None,1024.6168371800013,None,,,,,,,,,,,,,,,,,,,,,,,,,,,,,,,,,,,,,,,,,,,,,,,,,,,,,14,001,male,27,500,450,2022_Sep_20_1203,Experiment,2021.1.4,360.1176864389807,
images\S8_M_S_01.png,images\S8_M_S_01_scrambled.png,8,sad,-10,male,3,,166,off,1,0.5,0.75,0.5,0.872,3,165,1,1,1,0,0,0,0,3,,,,,,0,138,138,138,,,,,,,,,,,,,,,,,,,,,,,,,,,,,,,,,,,,,,,,,,,,,,,,,,,,,,,,,1024.6640337999997,1025.1695149999996,1025.1695149999996,1025.9191951000012,1025.9191951000012,1026.424773300001,1026.424773300001,1027.3022535,1027.3022535,None,num_4,0.3124692999990657,1027.3022535,None,sad,0,Sad,1027.6325638500002,None,None,1027.6325638500002,None,,,,,,,,,,,,,,,,,,,,,,,,,,,,,,,,,,,,,,,,,,,,,,,,,,,,,14,001,male,27,500,450,2022_Sep_20_1203,Experiment,2021.1.4,360.1176864389807,
images\S7_F_H_02.png,images\S7_F_H_02_scrambled.png,7,happy,20,female,5,,38,off,1,0.5,0.75,0.5,0.861,3,37,2,1,1,0,0,0,0,5,,,,,,0,139,139,139,,,,,,,,,,,,,,,,,,,,,,,,,,,,,,,,,,,,,,,,,,,,,,,,,,,,,,,,,1027.6825453000001,1028.1823995000013,1028.1823995000013,1028.9351032000013,1028.9351032000013,1029.440415500001,1029.440415500001,1030.3041513999997,1030.3041513999997,None,num_6,0.27069350000056147,1030.3041513999997,None,happy,0,Happy,1030.6039022600016,None,None,1030.6039022600016,None,,,,,,,,,,,,,,,,,,,,,,,,,,,,,,,,,,,,,,,,,,,,,,,,,,,,,14,001,male,27,500,450,2022_Sep_20_1203,Experiment,2021.1.4,360.1176864389807,
