image_face,image_scram,avatar,emo,emotion,sex,trigeeg,dac,trial_no,NMES,stimtime,baseline,iti,face,scr_face,resp_time,index,count_NMES,count_avatar,count_emotion,dac1,dac2,dac1_output,dac2_output,trigs_out,nmes,practice_trials.thisRepN,practice_trials.thisTrialN,practice_trials.thisN,practice_trials.thisIndex,real_trials.thisRepN,real_trials.thisTrialN,real_trials.thisN,real_trials.thisIndex,trials.thisRepN,trials.thisTrialN,trials.thisN,trials.thisIndex,position,Welcome.started,Welcome.stopped,Welcome_resp.keys,Welcome_resp.rt,text_2.started,text_2.stopped,form_2.index,form_2.itemText,form_2.type,form_2.response,form_2.rt,key_resp_4.keys,key_resp_4.rt,key_resp_4.started,key_resp_4.stopped,instructions.started,instructions.stopped,end_instr.keys,end_instr.rt,instructions_2.started,instructions_2.stopped,end_instr_2.keys,end_instr_2.rt,end_instr_2.started,end_instr_2.stopped,instruct_keypress.started,instruct_keypress.stopped,end_instruct_keypress.keys,end_instruct_keypress.rt,start_practice.started,start_practice.stopped,start_practice_resp.keys,start_practice_resp.rt,prac_baseline.started,prac_baseline.stopped,prac_iti.started,prac_iti.stopped,prac_stimulus.started,prac_stimulus.stopped,prac_scram_stim.started,prac_scram_stim.stopped,prac_stimulus_resp.started,prac_stimulus_resp.stopped,prac_resp.keys,prac_resp.rt,prac_resp.started,prac_resp.stopped,transition_to_real.started,transition_to_real.stopped,end_transition_to_real.keys,end_transition_to_real.rt,fixation_cross.started,fixation_cross.stopped,tr_iti.started,tr_iti.stopped,stimulus.started,stimulus.stopped,scram_stim.started,scram_stim.stopped,response_txt.started,response_txt.stopped,response.keys,response.rt,response.started,response.stopped,participant_Resp,grouping,corAnswer,break_msg.started,break_msg.stopped,end_break.keys,end_break.started,end_break.stopped,end_break.rt,text.started,text.stopped,key_resp_3.keys,key_resp_3.rt,key_resp_3.started,key_resp_3.stopped,fix_cross_comf.started,fix_cross_comf.stopped,stimulation_comf.started,stimulation_comf.stopped,rate_instr.started,rate_instr.stopped,comfort_rating.response,comfort_rating.rt,comfort_rating.started,comfort_rating.stopped,resp_form.keys,resp_form.rt,resp_form.started,resp_form.stopped,survey_instructions.started,survey_instructions.stopped,key_resp_2.keys,key_resp_2.rt,key_resp_2.started,key_resp_2.stopped,form.index,form.itemText,form.type,form.response,form.rt,key_resp.keys,key_resp.rt,key_resp.started,key_resp.stopped,text_3.started,text_3.stopped,rate_smile.response,rate_smile.rt,rate_smile.started,rate_smile.stopped,key_resp_5.keys,key_resp_5.rt,key_resp_5.started,key_resp_5.stopped,end_msg.started,end_msg.stopped,end_resp.keys,end_resp.rt,end_resp.started,end_resp.stopped,participant,session,gender,age,LEFT,RIGHT,date,expName,psychopyVersion,frameRate,
,,,,,,,,,,,,,,,,,,,,,,,,,,,,,,,,,,,,,,H-S,45.292828499999814,None,num_add,10.635146599999644,,,,,,,,,,,,,,,,,,,,,,,,,,,,,,,,,,,,,,,,,,,,,,,,,,,,,,,,,,,,,,,,,,,,,,,,,,,,,,,,,,,,,,,,,,,,,,,,,,,,,,,,,,,,,,,,,,,,,,,,,,15,001,male,28,450,475,2022_Oct_04_1101,Experiment,2021.1.4,360.45648209764374,
,,,,,,,,,,,,,,,,,,,,,,,,,,,,,,,,,,,,,,,,,,,55.950004100000115,58.01325749999978,1,"This scale consistes of a number of words that describe different feelings and emotion. Read each item and then list the number from the scale below each word. Indicate (by clicking) to what extend you feel this way RIGHT NOW, that is, AT THE PRESENT MOMENT.",description,,,,,,,,,,,,,,,,,,,,,,,,,,,,,,,,,,,,,,,,,,,,,,,,,,,,,,,,,,,,,,,,,,,,,,,,,,,,,,,,,,,,,,,,,,,,,,,,,,,,,,,,,,,,,,,,,,,,,15,001,male,28,450,475,2022_Oct_04_1101,Experiment,2021.1.4,360.45648209764374,
,,,,,,,,,,,,,,,,,,,,,,,,,,,,,,,,,,,,,,,,,,,,,2,Interested,rating,4.0,19.6752192999993,,,,,,,,,,,,,,,,,,,,,,,,,,,,,,,,,,,,,,,,,,,,,,,,,,,,,,,,,,,,,,,,,,,,,,,,,,,,,,,,,,,,,,,,,,,,,,,,,,,,,,,,,,,,,,,,,,,15,001,male,28,450,475,2022_Oct_04_1101,Experiment,2021.1.4,360.45648209764374,
,,,,,,,,,,,,,,,,,,,,,,,,,,,,,,,,,,,,,,,,,,,,,3,Distressed,rating,2.0,24.45838950000052,,,,,,,,,,,,,,,,,,,,,,,,,,,,,,,,,,,,,,,,,,,,,,,,,,,,,,,,,,,,,,,,,,,,,,,,,,,,,,,,,,,,,,,,,,,,,,,,,,,,,,,,,,,,,,,,,,,15,001,male,28,450,475,2022_Oct_04_1101,Experiment,2021.1.4,360.45648209764374,
,,,,,,,,,,,,,,,,,,,,,,,,,,,,,,,,,,,,,,,,,,,,,4,Excited,rating,4.0,26.86825190000036,,,,,,,,,,,,,,,,,,,,,,,,,,,,,,,,,,,,,,,,,,,,,,,,,,,,,,,,,,,,,,,,,,,,,,,,,,,,,,,,,,,,,,,,,,,,,,,,,,,,,,,,,,,,,,,,,,,15,001,male,28,450,475,2022_Oct_04_1101,Experiment,2021.1.4,360.45648209764374,
,,,,,,,,,,,,,,,,,,,,,,,,,,,,,,,,,,,,,,,,,,,,,5,Upset,rating,1.0,34.4866662000004,,,,,,,,,,,,,,,,,,,,,,,,,,,,,,,,,,,,,,,,,,,,,,,,,,,,,,,,,,,,,,,,,,,,,,,,,,,,,,,,,,,,,,,,,,,,,,,,,,,,,,,,,,,,,,,,,,,15,001,male,28,450,475,2022_Oct_04_1101,Experiment,2021.1.4,360.45648209764374,
,,,,,,,,,,,,,,,,,,,,,,,,,,,,,,,,,,,,,,,,,,,,,6,Strong,rating,4.0,39.163741299999856,,,,,,,,,,,,,,,,,,,,,,,,,,,,,,,,,,,,,,,,,,,,,,,,,,,,,,,,,,,,,,,,,,,,,,,,,,,,,,,,,,,,,,,,,,,,,,,,,,,,,,,,,,,,,,,,,,,15,001,male,28,450,475,2022_Oct_04_1101,Experiment,2021.1.4,360.45648209764374,
,,,,,,,,,,,,,,,,,,,,,,,,,,,,,,,,,,,,,,,,,,,,,7,Guilty,rating,1.0,13.689346000000114,,,,,,,,,,,,,,,,,,,,,,,,,,,,,,,,,,,,,,,,,,,,,,,,,,,,,,,,,,,,,,,,,,,,,,,,,,,,,,,,,,,,,,,,,,,,,,,,,,,,,,,,,,,,,,,,,,,15,001,male,28,450,475,2022_Oct_04_1101,Experiment,2021.1.4,360.45648209764374,
,,,,,,,,,,,,,,,,,,,,,,,,,,,,,,,,,,,,,,,,,,,,,8,Scared,rating,3.0,19.369824100000187,,,,,,,,,,,,,,,,,,,,,,,,,,,,,,,,,,,,,,,,,,,,,,,,,,,,,,,,,,,,,,,,,,,,,,,,,,,,,,,,,,,,,,,,,,,,,,,,,,,,,,,,,,,,,,,,,,,15,001,male,28,450,475,2022_Oct_04_1101,Experiment,2021.1.4,360.45648209764374,
,,,,,,,,,,,,,,,,,,,,,,,,,,,,,,,,,,,,,,,,,,,,,9,Hostile,rating,1.0,17.191720000000714,,,,,,,,,,,,,,,,,,,,,,,,,,,,,,,,,,,,,,,,,,,,,,,,,,,,,,,,,,,,,,,,,,,,,,,,,,,,,,,,,,,,,,,,,,,,,,,,,,,,,,,,,,,,,,,,,,,15,001,male,28,450,475,2022_Oct_04_1101,Experiment,2021.1.4,360.45648209764374,
,,,,,,,,,,,,,,,,,,,,,,,,,,,,,,,,,,,,,,,,,,,,,10,Enthusiastic,rating,5.0,14.6275298999999,,,,,,,,,,,,,,,,,,,,,,,,,,,,,,,,,,,,,,,,,,,,,,,,,,,,,,,,,,,,,,,,,,,,,,,,,,,,,,,,,,,,,,,,,,,,,,,,,,,,,,,,,,,,,,,,,,,15,001,male,28,450,475,2022_Oct_04_1101,Experiment,2021.1.4,360.45648209764374,
,,,,,,,,,,,,,,,,,,,,,,,,,,,,,,,,,,,,,,,,,,,,,11,Proud,rating,5.0,18.21638019999955,,,,,,,,,,,,,,,,,,,,,,,,,,,,,,,,,,,,,,,,,,,,,,,,,,,,,,,,,,,,,,,,,,,,,,,,,,,,,,,,,,,,,,,,,,,,,,,,,,,,,,,,,,,,,,,,,,,15,001,male,28,450,475,2022_Oct_04_1101,Experiment,2021.1.4,360.45648209764374,
,,,,,,,,,,,,,,,,,,,,,,,,,,,,,,,,,,,,,,,,,,,,,12,Irritable,rating,2.0,22.031793900000594,,,,,,,,,,,,,,,,,,,,,,,,,,,,,,,,,,,,,,,,,,,,,,,,,,,,,,,,,,,,,,,,,,,,,,,,,,,,,,,,,,,,,,,,,,,,,,,,,,,,,,,,,,,,,,,,,,,15,001,male,28,450,475,2022_Oct_04_1101,Experiment,2021.1.4,360.45648209764374,
,,,,,,,,,,,,,,,,,,,,,,,,,,,,,,,,,,,,,,,,,,,,,13,Alert,rating,3.0,20.344250099999954,,,,,,,,,,,,,,,,,,,,,,,,,,,,,,,,,,,,,,,,,,,,,,,,,,,,,,,,,,,,,,,,,,,,,,,,,,,,,,,,,,,,,,,,,,,,,,,,,,,,,,,,,,,,,,,,,,,15,001,male,28,450,475,2022_Oct_04_1101,Experiment,2021.1.4,360.45648209764374,
,,,,,,,,,,,,,,,,,,,,,,,,,,,,,,,,,,,,,,,,,,,,,14,Ashamed,rating,1.0,15.831730799999605,,,,,,,,,,,,,,,,,,,,,,,,,,,,,,,,,,,,,,,,,,,,,,,,,,,,,,,,,,,,,,,,,,,,,,,,,,,,,,,,,,,,,,,,,,,,,,,,,,,,,,,,,,,,,,,,,,,15,001,male,28,450,475,2022_Oct_04_1101,Experiment,2021.1.4,360.45648209764374,
,,,,,,,,,,,,,,,,,,,,,,,,,,,,,,,,,,,,,,,,,,,,,15,Inspired,rating,4.0,17.286635399999795,,,,,,,,,,,,,,,,,,,,,,,,,,,,,,,,,,,,,,,,,,,,,,,,,,,,,,,,,,,,,,,,,,,,,,,,,,,,,,,,,,,,,,,,,,,,,,,,,,,,,,,,,,,,,,,,,,,15,001,male,28,450,475,2022_Oct_04_1101,Experiment,2021.1.4,360.45648209764374,
,,,,,,,,,,,,,,,,,,,,,,,,,,,,,,,,,,,,,,,,,,,,,16,Nervous,rating,3.0,13.964806200000567,,,,,,,,,,,,,,,,,,,,,,,,,,,,,,,,,,,,,,,,,,,,,,,,,,,,,,,,,,,,,,,,,,,,,,,,,,,,,,,,,,,,,,,,,,,,,,,,,,,,,,,,,,,,,,,,,,,15,001,male,28,450,475,2022_Oct_04_1101,Experiment,2021.1.4,360.45648209764374,
,,,,,,,,,,,,,,,,,,,,,,,,,,,,,,,,,,,,,,,,,,,,,17,Determined,rating,5.0,13.983201699999881,,,,,,,,,,,,,,,,,,,,,,,,,,,,,,,,,,,,,,,,,,,,,,,,,,,,,,,,,,,,,,,,,,,,,,,,,,,,,,,,,,,,,,,,,,,,,,,,,,,,,,,,,,,,,,,,,,,15,001,male,28,450,475,2022_Oct_04_1101,Experiment,2021.1.4,360.45648209764374,
,,,,,,,,,,,,,,,,,,,,,,,,,,,,,,,,,,,,,,,,,,,,,18,Attentive,rating,4.0,12.324437499999476,,,,,,,,,,,,,,,,,,,,,,,,,,,,,,,,,,,,,,,,,,,,,,,,,,,,,,,,,,,,,,,,,,,,,,,,,,,,,,,,,,,,,,,,,,,,,,,,,,,,,,,,,,,,,,,,,,,15,001,male,28,450,475,2022_Oct_04_1101,Experiment,2021.1.4,360.45648209764374,
,,,,,,,,,,,,,,,,,,,,,,,,,,,,,,,,,,,,,,,,,,,,,19,Jittery,rating,2.0,15.57231419999971,,,,,,,,,,,,,,,,,,,,,,,,,,,,,,,,,,,,,,,,,,,,,,,,,,,,,,,,,,,,,,,,,,,,,,,,,,,,,,,,,,,,,,,,,,,,,,,,,,,,,,,,,,,,,,,,,,,15,001,male,28,450,475,2022_Oct_04_1101,Experiment,2021.1.4,360.45648209764374,
,,,,,,,,,,,,,,,,,,,,,,,,,,,,,,,,,,,,,,,,,,,,,20,Active,rating,4.0,12.322974200000317,,,,,,,,,,,,,,,,,,,,,,,,,,,,,,,,,,,,,,,,,,,,,,,,,,,,,,,,,,,,,,,,,,,,,,,,,,,,,,,,,,,,,,,,,,,,,,,,,,,,,,,,,,,,,,,,,,,15,001,male,28,450,475,2022_Oct_04_1101,Experiment,2021.1.4,360.45648209764374,
,,,,,,,,,,,,,,,,,,,,,,,,,,,,,,,,,,,,,,,,,,,,,21,Afraid,rating,3.0,10.075521199999457,,,,,,,,,,,,,,,,,,,,,,,,,,,,,,,,,,,,,,,,,,,,,,,,,,,,,,,,,,,,,,,,,,,,,,,,,,,,,,,,,,,,,,,,,,,,,,,,,,,,,,,,,,,,,,,,,,,15,001,male,28,450,475,2022_Oct_04_1101,Experiment,2021.1.4,360.45648209764374,
,,,,,,,,,,,,,,,,,,,,,,,,,,,,,,,,,,,,,,,,,,,,,22,Press the + button to submit your answers,description,,,,,,,,,,,,,,,,,,,,,,,,,,,,,,,,,,,,,,,,,,,,,,,,,,,,,,,,,,,,,,,,,,,,,,,,,,,,,,,,,,,,,,,,,,,,,,,,,,,,,,,,,,,,,,,,,,,,,15,001,male,28,450,475,2022_Oct_04_1101,Experiment,2021.1.4,360.45648209764374,
,,,,,,,,,,,,,,,,,,,,,,,,,,,,,,,,,,,,,,,,,,,,,,,,,,num_add,96.44692639999994,65.96913719999975,None,,,,,,,,,,,,,,,,,,,,,,,,,,,,,,,,,,,,,,,,,,,,,,,,,,,,,,,,,,,,,,,,,,,,,,,,,,,,,,,,,,,,,,,,,,,,,,,,,,,,,,,,,,,,,,,15,001,male,28,450,475,2022_Oct_04_1101,Experiment,2021.1.4,360.45648209764374,
,,,,,,,,,,,,,,,,,,,,,,,,,,,,,,,,,,,,,,,,,,,,,,,,,,,,,,162.46182940000017,None,num_add,28.602164700000685,,,,,,,,,,,,,,,,,,,,,,,,,,,,,,,,,,,,,,,,,,,,,,,,,,,,,,,,,,,,,,,,,,,,,,,,,,,,,,,,,,,,,,,,,,,,,,,,,,,,,,,,,,,15,001,male,28,450,475,2022_Oct_04_1101,Experiment,2021.1.4,360.45648209764374,
,,,,,,,,,,,,,,,,,,,,,,,,,,,,,,,,,,,,,,,,,,,,,,,,,,,,,,,,,,191.07234189999963,None,num_add,10.455819599999813,191.07234189999963,None,,,,,,,,,,,,,,,,,,,,,,,,,,,,,,,,,,,,,,,,,,,,,,,,,,,,,,,,,,,,,,,,,,,,,,,,,,,,,,,,,,,,,,,,,,,,,,,,,,,,,15,001,male,28,450,475,2022_Oct_04_1101,Experiment,2021.1.4,360.45648209764374,
,,,,,,,,,,,,,,,,,,,,,,,,,,,,,,,,,,,,,,,,,,,,,,,,,,,,,,,,,,,,,,,,201.54967390000002,None,num_add,10.530410500000471,,,,,,,,,,,,,,,,,,,,,,,,,,,,,,,,,,,,,,,,,,,,,,,,,,,,,,,,,,,,,,,,,,,,,,,,,,,,,,,,,,,,,,,,,,,,,,,,,15,001,male,28,450,475,2022_Oct_04_1101,Experiment,2021.1.4,360.45648209764374,
,,,,,,,,,,,,,,,,,,,,,,,,,,,,,,,,,,,,,,,,,,,,,,,,,,,,,,,,,,,,,,,,,,,,212.08810040000026,None,space,23.216000700000222,,,,,,,,,,,,,,,,,,,,,,,,,,,,,,,,,,,,,,,,,,,,,,,,,,,,,,,,,,,,,,,,,,,,,,,,,,,,,,,,,,,,,,,,,,,,,15,001,male,28,450,475,2022_Oct_04_1101,Experiment,2021.1.4,360.45648209764374,
images\S22_M_S_03.png,images\S22_M_S_03_scrambled.png,22,Sad,0.3,M,0,0,practice,on,2,0.5,0.75,0.5,0.794,3,,,,,,,,,,,0,0,0,7,,,,,,,,,,,,,,,,,,,,,,,,,,,,,,,,,,,,,,,,,,,235.4697368999996,235.97242790000018,235.97242790000018,236.72496669999964,236.72496669999964,237.22482450000007,237.22482450000007,238.02184450000004,238.02184450000004,None,num_4,1.8188664999997854,238.02184450000004,None,,,,,,,,,,,,,,,,,,,,,,,,,,,,,,,,,,,,,,,,,,,,,,,,,,,,,,,,,,,,,,,,,,,,,,,,,,,,,,,15,001,male,28,450,475,2022_Oct_04_1101,Experiment,2021.1.4,360.45648209764374,
images\S22_M_S_03.png,images\S22_M_S_03_scrambled.png,22,Sad,0.3,M,0,0,practice,on,2,0.5,0.75,0.5,0.87,3,,,,,,,,,,,0,1,1,4,,,,,,,,,,,,,,,,,,,,,,,,,,,,,,,,,,,,,,,,,,,239.8962230999996,240.39885700000013,240.39885700000013,241.15152039999975,241.15152039999975,241.6512557999995,241.6512557999995,242.52321380000012,242.52321380000012,None,num_4,0.957368200000019,242.52321380000012,None,,,,,,,,,,,,,,,,,,,,,,,,,,,,,,,,,,,,,,,,,,,,,,,,,,,,,,,,,,,,,,,,,,,,,,,,,,,,,,,15,001,male,28,450,475,2022_Oct_04_1101,Experiment,2021.1.4,360.45648209764374,
images\S22_M_S_02.png,images\S22_M_S_02_scrambled.png,22,Sad,0.2,M,0,0,practice,on,2,0.5,0.75,0.5,0.783,3,,,,,,,,,,,0,2,2,6,,,,,,,,,,,,,,,,,,,,,,,,,,,,,,,,,,,,,,,,,,,243.57010360000004,244.0727119000003,244.0727119000003,244.82529559999966,244.82529559999966,245.32787519999965,245.32787519999965,246.1137702999995,246.1137702999995,None,num_4,1.662714699999924,246.1137702999995,None,,,,,,,,,,,,,,,,,,,,,,,,,,,,,,,,,,,,,,,,,,,,,,,,,,,,,,,,,,,,,,,,,,,,,,,,,,,,,,,15,001,male,28,450,475,2022_Oct_04_1101,Experiment,2021.1.4,360.45648209764374,
images\S21_F_H_01.png,images\S21_F_H_01_scrambled.png,21,Happy,-0.1,F,0,0,practice,off,1,0.5,0.75,0.5,0.853,3,,,,,,,,,,,0,3,3,0,,,,,,,,,,,,,,,,,,,,,,,,,,,,,,,,,,,,,,,,,,,247.8632103,248.36596259999988,248.36596259999988,249.1212918000001,249.1212918000001,249.6266386999996,249.6266386999996,250.4818454999995,250.4818454999995,None,num_4,0.7751312000000325,250.4818454999995,None,,,,,,,,,,,,,,,,,,,,,,,,,,,,,,,,,,,,,,,,,,,,,,,,,,,,,,,,,,,,,,,,,,,,,,,,,,,,,,,15,001,male,28,450,475,2022_Oct_04_1101,Experiment,2021.1.4,360.45648209764374,
images\S22_M_H_02.png,images\S22_M_H_02_scrambled.png,22,Happy,-0.2,M,0,0,practice,off,1,0.5,0.75,0.5,0.883,3,,,,,,,,,,,0,4,4,2,,,,,,,,,,,,,,,,,,,,,,,,,,,,,,,,,,,,,,,,,,,251.37325059999966,251.87600120000025,251.87600120000025,252.62842920000003,252.62842920000003,253.13117330000023,253.13117330000023,254.01693009999963,254.01693009999963,None,num_4,0.6875664999997753,254.01693009999963,None,,,,,,,,,,,,,,,,,,,,,,,,,,,,,,,,,,,,,,,,,,,,,,,,,,,,,,,,,,,,,,,,,,,,,,,,,,,,,,,15,001,male,28,450,475,2022_Oct_04_1101,Experiment,2021.1.4,360.45648209764374,
images\S22_M_S_02.png,images\S22_M_S_02_scrambled.png,22,Sad,0.2,M,0,0,practice,off,1,0.5,0.75,0.5,0.751,3,,,,,,,,,,,0,5,5,3,,,,,,,,,,,,,,,,,,,,,,,,,,,,,,,,,,,,,,,,,,,254.7777529999994,255.27760070000022,255.27760070000022,256.03294089999963,256.03294089999963,256.53275459999986,256.53275459999986,257.2909017000002,257.2909017000002,None,num_6,0.5655507000001307,257.2909017000002,None,,,,,,,,,,,,,,,,,,,,,,,,,,,,,,,,,,,,,,,,,,,,,,,,,,,,,,,,,,,,,,,,,,,,,,,,,,,,,,,15,001,male,28,450,475,2022_Oct_04_1101,Experiment,2021.1.4,360.45648209764374,
images\S22_M_S_01.png,images\S22_M_S_01_scrambled.png,22,Sad,0.1,M,0,0,practice,on,2,0.5,0.75,0.5,0.867,3,,,,,,,,,,,0,6,6,5,,,,,,,,,,,,,,,,,,,,,,,,,,,,,,,,,,,,,,,,,,,257.9406693000001,258.44327859999976,258.44327859999976,259.1986330999998,259.1986330999998,259.70137199999954,259.70137199999954,260.56762960000015,260.56762960000015,None,num_6,1.6808483000004344,260.56762960000015,None,,,,,,,,,,,,,,,,,,,,,,,,,,,,,,,,,,,,,,,,,,,,,,,,,,,,,,,,,,,,,,,,,,,,,,,,,,,,,,,15,001,male,28,450,475,2022_Oct_04_1101,Experiment,2021.1.4,360.45648209764374,
images\S21_F_H_02.png,images\S21_F_H_02_scrambled.png,21,Happy,-0.2,F,0,0,practice,off,1,0.5,0.75,0.5,0.91,3,,,,,,,,,,,0,7,7,1,,,,,,,,,,,,,,,,,,,,,,,,,,,,,,,,,,,,,,,,,,,262.3337639000001,262.83640190000006,262.83640190000006,263.5917779000001,263.5917779000001,264.0971496000002,264.0971496000002,265.0108553,265.0108553,None,num_4,0.6136059000000387,265.0108553,None,,,,,,,,,,,,,,,,,,,,,,,,,,,,,,,,,,,,,,,,,,,,,,,,,,,,,,,,,,,,,,,,,,,,,,,,,,,,,,,15,001,male,28,450,475,2022_Oct_04_1101,Experiment,2021.1.4,360.45648209764374,
,,,,,,,,,,,,,,,,,,,,,,,,,,,,,,,,,,,,,,,,,,,,,,,,,,,,,,,,,,,,,,,,,,,,,,,,,,,,,,,,,,,,,,265.6605158000002,None,space,16.883475600000565,,,,,,,,,,,,,,,,,,,,,,,,,,,,,,,,,,,,,,,,,,,,,,,,,,,,,,,,,,,,,,,,,,,,,,,,,,,15,001,male,28,450,475,2022_Oct_04_1101,Experiment,2021.1.4,360.45648209764374,
images\S9_F_H_01.png,images\S9_F_H_01_scrambled.png,9,happy,10,female,4,,469,on,2,0.5,0.75,0.5,0.817,3,468,1,1,1,2,2,32,128,164,,,,,,0,0,0,0,,,,,,,,,,,,,,,,,,,,,,,,,,,,,,,,,,,,,,,,,,,,,,,,,,,,,,,,,283.03851459999987,283.54392180000013,283.54392180000013,284.29654459999983,284.29654459999983,284.8018940000002,284.8018940000002,285.62384310000016,285.62384310000016,None,num_4,0.488914599999589,285.62384310000016,None,happy,1,Happy,286.1292186999999,None,None,286.1292186999999,None,,,,,,,,,,,,,,,,,,,,,,,,,,,,,,,,,,,,,,,,,,,,,,,,,,,,,15,001,male,28,450,475,2022_Oct_04_1101,Experiment,2021.1.4,360.45648209764374,
images\S5_F_S_03.png,images\S5_F_S_03_scrambled.png,5,sad,-30,female,1,,450,on,2,0.5,0.75,0.5,0.779,3,449,2,1,1,2,2,32,128,161,,,,,,0,1,1,1,,,,,,,,,,,,,,,,,,,,,,,,,,,,,,,,,,,,,,,,,,,,,,,,,,,,,,,,,286.2153191999996,286.7179293999998,286.7179293999998,287.46770109999943,287.46770109999943,287.9703625000002,287.9703625000002,288.75343429999975,288.75343429999975,None,num_4,0.6712140999998155,288.75343429999975,None,happy,1,Sad,289.4337739399996,None,None,289.4337739399996,None,,,,,,,,,,,,,,,,,,,,,,,,,,,,,,,,,,,,,,,,,,,,,,,,,,,,,15,001,male,28,450,475,2022_Oct_04_1101,Experiment,2021.1.4,360.45648209764374,
images\S5_F_S_02.png,images\S5_F_S_02_scrambled.png,5,sad,-20,female,2,,449,on,2,0.5,0.75,0.5,0.785,3,448,3,2,1,2,2,32,128,162,,,,,,0,2,2,2,,,,,,,,,,,,,,,,,,,,,,,,,,,,,,,,,,,,,,,,,,,,,,,,,,,,,,,,,289.5170694999997,290.0196968,290.0196968,290.76946380000027,290.76946380000027,291.2720905999995,291.2720905999995,292.0608725000002,292.0608725000002,None,num_4,0.7157090999999127,292.0608725000002,None,happy,1,Sad,292.78834406000004,None,None,292.78834406000004,None,,,,,,,,,,,,,,,,,,,,,,,,,,,,,,,,,,,,,,,,,,,,,,,,,,,,,15,001,male,28,450,475,2022_Oct_04_1101,Experiment,2021.1.4,360.45648209764374,
images\S2_M_H_02.png,images\S2_M_H_02_scrambled.png,2,happy,20,male,5,,188,on,2,0.5,0.75,0.5,0.925,3,187,4,1,1,2,2,32,128,165,,,,,,0,3,3,3,,,,,,,,,,,,,,,,,,,,,,,,,,,,,,,,,,,,,,,,,,,,,,,,,,,,,,,,,292.8965780999997,293.3964458999999,293.3964458999999,294.15185199999996,294.15185199999996,294.6571806000002,294.6571806000002,295.5846867999999,295.5846867999999,None,num_4,0.9680341000002954,295.5846867999999,None,happy,1,Happy,296.57046617999964,None,None,296.57046617999964,None,,,,,,,,,,,,,,,,,,,,,,,,,,,,,,,,,,,,,,,,,,,,,,,,,,,,,15,001,male,28,450,475,2022_Oct_04_1101,Experiment,2021.1.4,360.45648209764374,
images\S9_F_S_01.png,images\S9_F_S_01_scrambled.png,9,sad,-10,female,3,,232,on,2,0.5,0.75,0.5,0.849,3,231,5,1,1,2,2,32,128,163,,,,,,0,4,4,4,,,,,,,,,,,,,,,,,,,,,,,,,,,,,,,,,,,,,,,,,,,,,,,,,,,,,,,,,296.65376659999947,297.1564045999994,297.1564045999994,297.90897849999965,297.90897849999965,298.4116342999996,298.4116342999996,299.2669025999994,299.2669025999994,None,num_6,0.3339882000000216,299.2669025999994,None,sad,1,Sad,299.61404459999994,None,None,299.61404459999994,None,,,,,,,,,,,,,,,,,,,,,,,,,,,,,,,,,,,,,,,,,,,,,,,,,,,,,15,001,male,28,450,475,2022_Oct_04_1101,Experiment,2021.1.4,360.45648209764374,
images\S10_M_S_03.png,images\S10_M_S_03_scrambled.png,10,sad,-30,male,1,,600,on,2,0.5,0.75,0.5,0.911,3,599,6,1,1,2,2,32,128,161,,,,,,0,5,5,5,,,,,,,,,,,,,,,,,,,,,,,,,,,,,,,,,,,,,,,,,,,,,,,,,,,,,,,,,299.7194945000001,300.2221677999996,300.2221677999996,300.9746618999998,300.9746618999998,301.47455939999963,301.47455939999963,302.38814209999964,302.38814209999964,None,None,,302.38814209999964,None,miss,1,Sad,305.3899801199999,None,None,305.3899801199999,None,,,,,,,,,,,,,,,,,,,,,,,,,,,,,,,,,,,,,,,,,,,,,,,,,,,,,15,001,male,28,450,475,2022_Oct_04_1101,Experiment,2021.1.4,360.45648209764374,
images\S3_F_H_03.png,images\S3_F_H_03_scrambled.png,3,happy,30,female,6,,435,on,2,0.5,0.75,0.5,0.814,3,434,7,1,1,2,2,32,128,166,,,,,,0,6,6,6,,,,,,,,,,,,,,,,,,,,,,,,,,,,,,,,,,,,,,,,,,,,,,,,,,,,,,,,,305.47328070000003,305.9786973999999,305.9786973999999,306.7313710999997,306.7313710999997,307.23671169999943,307.23671169999943,308.0530324000001,308.0530324000001,305.47328070000003,num_4,0.48338390000026266,308.0530324000001,305.47328070000003,happy,1,Happy,308.55009948000003,None,None,308.55009948000003,None,,,,,,,,,,,,,,,,,,,,,,,,,,,,,,,,,,,,,,,,,,,,,,,,,,,,,15,001,male,28,450,475,2022_Oct_04_1101,Experiment,2021.1.4,360.45648209764374,
images\S8_M_H_02.png,images\S8_M_H_02_scrambled.png,8,happy,20,male,5,,524,off,1,0.5,0.75,0.5,0.807,3,523,1,1,1,0,0,0,0,5,,,,,,0,7,7,7,,,,,,,,,,,,,,,,,,,,,,,,,,,,,,,,,,,,,,,,,,,,,,,,,,,,,,,,,308.66119660000004,309.16672240000025,309.16672240000025,309.91914219999944,309.91914219999944,310.4189919999999,310.4189919999999,311.2326541000002,311.2326541000002,None,num_4,1.1838065000001734,311.2326541000002,None,happy,1,Happy,312.4322625800001,None,None,312.4322625800001,None,,,,,,,,,,,,,,,,,,,,,,,,,,,,,,,,,,,,,,,,,,,,,,,,,,,,,15,001,male,28,450,475,2022_Oct_04_1101,Experiment,2021.1.4,360.45648209764374,
images\S10_M_S_02.png,images\S10_M_S_02_scrambled.png,10,sad,-20,male,2,,239,on,2,0.5,0.75,0.5,0.931,3,238,1,1,1,2,2,32,128,162,,,,,,0,8,8,8,,,,,,,,,,,,,,,,,,,,,,,,,,,,,,,,,,,,,,,,,,,,,,,,,,,,,,,,,312.51277800000025,313.01820489999955,313.01820489999955,313.7679400999996,313.7679400999996,314.27068859999963,314.27068859999963,315.20648189999974,315.20648189999974,None,num_4,1.2980553000006694,315.20648189999974,None,happy,1,Sad,316.5143330399994,None,None,316.5143330399994,None,,,,,,,,,,,,,,,,,,,,,,,,,,,,,,,,,,,,,,,,,,,,,,,,,,,,,15,001,male,28,450,475,2022_Oct_04_1101,Experiment,2021.1.4,360.45648209764374,
images\S4_M_S_02.png,images\S4_M_S_02_scrambled.png,4,sad,-20,male,2,,503,off,1,0.5,0.75,0.5,0.914,3,502,1,1,2,0,0,0,0,2,,,,,,0,9,9,9,,,,,,,,,,,,,,,,,,,,,,,,,,,,,,,,,,,,,,,,,,,,,,,,,,,,,,,,,316.5976257000002,317.1030579999997,317.1030579999997,317.85571639999944,317.85571639999944,318.3582280999999,318.3582280999999,319.2774058999994,319.2774058999994,None,num_6,0.6833270999995875,319.2774058999994,None,sad,1,Sad,319.97438797999945,None,None,319.97438797999945,None,,,,,,,,,,,,,,,,,,,,,,,,,,,,,,,,,,,,,,,,,,,,,,,,,,,,,15,001,male,28,450,475,2022_Oct_04_1101,Experiment,2021.1.4,360.45648209764374,
images\S3_F_H_01.png,images\S3_F_H_01_scrambled.png,3,happy,10,female,4,,433,on,2,0.5,0.75,0.5,0.865,3,432,1,1,1,2,2,32,128,164,,,,,,0,10,10,10,,,,,,,,,,,,,,,,,,,,,,,,,,,,,,,,,,,,,,,,,,,,,,,,,,,,,,,,,320.057683,320.5630775999998,320.5630775999998,321.3184325000002,321.3184325000002,321.8210186999995,321.8210186999995,322.69301350000023,322.69301350000023,None,num_6,1.2275365999994392,322.69301350000023,None,sad,1,Happy,323.9259545399998,None,None,323.9259545399998,None,,,,,,,,,,,,,,,,,,,,,,,,,,,,,,,,,,,,,,,,,,,,,,,,,,,,,15,001,male,28,450,475,2022_Oct_04_1101,Experiment,2021.1.4,360.45648209764374,
images\blank.jpg,images\blank.jpg,none,none,none,none,0,,621,on,2,0.5,0.75,0.5,0.827,0,620,2,1,1,3,3,48,192,240,,,,,,0,11,11,11,,,,,,,,,,,,,,,,,,,,,,,,,,,,,,,,,,,,,,,,,,,,,,,,,,,,,,,,,324.0485864000002,324.5535407999996,324.5535407999996,325.3088534999997,325.3088534999997,325.8086801999998,325.8086801999998,326.6418232999995,326.6418232999995,326.6418232999995,None,,326.6418232999995,None,miss,1,,329.64087512000003,None,None,329.64087512000003,None,,,,,,,,,,,,,,,,,,,,,,,,,,,,,,,,,,,,,,,,,,,,,,,,,,,,,15,001,male,28,450,475,2022_Oct_04_1101,Experiment,2021.1.4,360.45648209764374,
images\S9_F_H_01.png,images\S9_F_H_01_scrambled.png,9,happy,10,female,4,,169,off,1,0.5,0.75,0.5,0.856,3,168,1,1,1,0,0,0,0,4,,,,,,0,12,12,12,,,,,,,,,,,,,,,,,,,,,,,,,,,,,,,,,,,,,,,,,,,,,,,,,,,,,,,,,329.7577126999995,330.26289970000016,330.26289970000016,331.0155450000002,331.0155450000002,331.51530529999945,331.51530529999945,332.3705530999996,332.3705530999996,None,num_4,0.5662050000000818,332.3705530999996,329.7577126999995,happy,1,Happy,332.9537664999998,None,None,332.9537664999998,None,,,,,,,,,,,,,,,,,,,,,,,,,,,,,,,,,,,,,,,,,,,,,,,,,,,,,15,001,male,28,450,475,2022_Oct_04_1101,Experiment,2021.1.4,360.45648209764374,
images\S10_M_S_01.png,images\S10_M_S_01_scrambled.png,10,sad,-10,male,3,,418,off,1,0.5,0.75,0.5,0.842,3,417,2,1,1,0,0,0,0,3,,,,,,0,13,13,13,,,,,,,,,,,,,,,,,,,,,,,,,,,,,,,,,,,,,,,,,,,,,,,,,,,,,,,,,333.06201169999986,333.5618674999996,333.5618674999996,334.31164739999986,334.31164739999986,334.8170743999999,334.8170743999999,335.6613416,335.6613416,None,num_4,0.2992775000002439,335.6613416,None,happy,1,Sad,335.96945953999943,None,None,335.96945953999943,None,,,,,,,,,,,,,,,,,,,,,,,,,,,,,,,,,,,,,,,,,,,,,,,,,,,,,15,001,male,28,450,475,2022_Oct_04_1101,Experiment,2021.1.4,360.45648209764374,
images\S2_M_H_02.png,images\S2_M_H_02_scrambled.png,2,happy,20,male,5,,128,off,1,0.5,0.75,0.5,0.928,3,127,3,1,1,0,0,0,0,5,,,,,,0,14,14,14,,,,,,,,,,,,,,,,,,,,,,,,,,,,,,,,,,,,,,,,,,,,,,,,,,,,,,,,,336.01666399999976,336.52210379999997,336.52210379999997,337.2774215999998,337.2774215999998,337.78281549999974,337.78281549999974,338.71306000000004,338.71306000000004,None,num_4,0.2477552000000287,338.71306000000004,None,happy,1,Happy,338.98525313999994,None,None,338.98525313999994,None,,,,,,,,,,,,,,,,,,,,,,,,,,,,,,,,,,,,,,,,,,,,,,,,,,,,,15,001,male,28,450,475,2022_Oct_04_1101,Experiment,2021.1.4,360.45648209764374,
images\S3_F_H_03.png,images\S3_F_H_03_scrambled.png,3,happy,30,female,6,,75,on,2,0.5,0.75,0.5,0.865,3,74,1,1,1,2,2,32,128,166,,,,,,0,15,15,15,,,,,,,,,,,,,,,,,,,,,,,,,,,,,,,,,,,,,,,,,,,,,,,,,,,,,,,,,339.0379581999996,339.54070859999956,339.54070859999956,340.2903865999997,340.2903865999997,340.79022629999963,340.79022629999963,341.66218579999986,341.66218579999986,None,num_4,0.058822699999836914,341.66218579999986,None,happy,1,Happy,341.7483623800004,None,None,341.7483623800004,None,,,,,,,,,,,,,,,,,,,,,,,,,,,,,,,,,,,,,,,,,,,,,,,,,,,,,15,001,male,28,450,475,2022_Oct_04_1101,Experiment,2021.1.4,360.45648209764374,
images\S6_M_S_02.png,images\S6_M_S_02_scrambled.png,6,sad,-20,male,2,,515,off,1,0.5,0.75,0.5,0.768,3,514,1,1,1,0,0,0,0,2,,,,,,0,16,16,16,,,,,,,,,,,,,,,,,,,,,,,,,,,,,,,,,,,,,,,,,,,,,,,,,,,,,,,,,341.8565300999999,342.3563930999999,342.3563930999999,343.1117052999998,343.1117052999998,343.6171439999998,343.6171439999998,344.38908230000015,344.38908230000015,None,num_6,0.3240014999992127,344.38908230000015,None,sad,1,Sad,344.7418441600004,None,None,344.7418441600004,None,,,,,,,,,,,,,,,,,,,,,,,,,,,,,,,,,,,,,,,,,,,,,,,,,,,,,15,001,male,28,450,475,2022_Oct_04_1101,Experiment,2021.1.4,360.45648209764374,
images\S1_F_H_01.png,images\S1_F_H_01_scrambled.png,1,happy,10,female,4,,61,on,2,0.5,0.75,0.5,0.779,3,60,1,1,1,2,2,32,128,164,,,,,,0,17,17,17,,,,,,,,,,,,,,,,,,,,,,,,,,,,,,,,,,,,,,,,,,,,,,,,,,,,,,,,,344.8306160000002,345.33327050000025,345.33327050000025,346.0857873999994,346.0857873999994,346.5913277999998,346.5913277999998,347.3771085999997,347.3771085999997,None,num_6,1.4794550000005984,347.3771085999997,None,sad,1,Happy,348.8654592399996,None,None,348.8654592399996,None,,,,,,,,,,,,,,,,,,,,,,,,,,,,,,,,,,,,,,,,,,,,,,,,,,,,,15,001,male,28,450,475,2022_Oct_04_1101,Experiment,2021.1.4,360.45648209764374,
images\S1_F_S_01.png,images\S1_F_S_01_scrambled.png,1,sad,-10,female,3,,304,on,2,0.5,0.75,0.5,0.782,3,303,2,2,1,2,2,32,128,163,,,,,,0,18,18,18,,,,,,,,,,,,,,,,,,,,,,,,,,,,,,,,,,,,,,,,,,,,,,,,,,,,,,,,,348.9487917999995,349.4515507999995,349.4515507999995,350.20681199999945,350.20681199999945,350.7065849999999,350.7065849999999,351.49249379999947,351.49249379999947,None,num_4,0.6121495999996114,351.49249379999947,None,happy,1,Sad,352.1116891399995,None,None,352.1116891399995,None,,,,,,,,,,,,,,,,,,,,,,,,,,,,,,,,,,,,,,,,,,,,,,,,,,,,,15,001,male,28,450,475,2022_Oct_04_1101,Experiment,2021.1.4,360.45648209764374,
images\S7_F_S_01.png,images\S7_F_S_01_scrambled.png,7,sad,-10,female,3,,220,on,2,0.5,0.75,0.5,0.927,3,219,3,1,2,2,2,32,128,163,,,,,,0,19,19,19,,,,,,,,,,,,,,,,,,,,,,,,,,,,,,,,,,,,,,,,,,,,,,,,,,,,,,,,,352.1977932,352.7005419999996,352.7005419999996,353.4529941999999,353.4529941999999,353.9583864999995,353.9583864999995,354.89150789999985,354.89150789999985,None,num_4,0.3410499000001437,354.89150789999985,None,happy,1,Sad,355.24410473999956,None,None,355.24410473999956,None,,,,,,,,,,,,,,,,,,,,,,,,,,,,,,,,,,,,,,,,,,,,,,,,,,,,,15,001,male,28,450,475,2022_Oct_04_1101,Experiment,2021.1.4,360.45648209764374,
images\S10_M_S_03.png,images\S10_M_S_03_scrambled.png,10,sad,-30,male,1,,180,off,1,0.5,0.75,0.5,0.904,3,179,1,1,1,0,0,0,0,1,,,,,,0,20,20,20,,,,,,,,,,,,,,,,,,,,,,,,,,,,,,,,,,,,,,,,,,,,,,,,,,,,,,,,,355.29129920000014,355.79116650000014,355.79116650000014,356.5465039999999,356.5465039999999,357.04631359999985,357.04631359999985,357.95717669999976,357.95717669999976,None,num_4,0.2680689999997412,357.95717669999976,None,happy,1,Sad,358.2349802600003,None,None,358.2349802600003,None,,,,,,,,,,,,,,,,,,,,,,,,,,,,,,,,,,,,,,,,,,,,,,,,,,,,,15,001,male,28,450,475,2022_Oct_04_1101,Experiment,2021.1.4,360.45648209764374,
images\S5_F_H_03.png,images\S5_F_H_03_scrambled.png,5,happy,30,female,6,,327,on,2,0.5,0.75,0.5,0.789,3,326,1,1,1,2,2,32,128,166,,,,,,0,21,21,21,,,,,,,,,,,,,,,,,,,,,,,,,,,,,,,,,,,,,,,,,,,,,,,,,,,,,,,,,358.3431426999996,358.8457761999998,358.8457761999998,359.59833699999945,359.59833699999945,360.1009447999995,360.1009447999995,360.8923827999997,360.8923827999997,None,num_4,0.33233349999954953,360.8923827999997,None,happy,1,Happy,361.2394771799996,None,None,361.2394771799996,None,,,,,,,,,,,,,,,,,,,,,,,,,,,,,,,,,,,,,,,,,,,,,,,,,,,,,15,001,male,28,450,475,2022_Oct_04_1101,Experiment,2021.1.4,360.45648209764374,
images\S4_M_H_01.png,images\S4_M_H_01_scrambled.png,4,happy,10,male,4,,499,off,1,0.5,0.75,0.5,0.8,3,498,1,1,1,0,0,0,0,4,,,,,,0,22,22,22,,,,,,,,,,,,,,,,,,,,,,,,,,,,,,,,,,,,,,,,,,,,,,,,,,,,,,,,,361.3310363999999,361.8337461000001,361.8337461000001,362.58639609999955,362.58639609999955,363.0917621999997,363.0917621999997,363.89702429999943,363.89702429999943,None,num_6,0.4554637000001094,363.89702429999943,None,sad,1,Happy,364.3579600399996,None,None,364.3579600399996,None,,,,,,,,,,,,,,,,,,,,,,,,,,,,,,,,,,,,,,,,,,,,,,,,,,,,,15,001,male,28,450,475,2022_Oct_04_1101,Experiment,2021.1.4,360.45648209764374,
images\S7_F_S_03.png,images\S7_F_S_03_scrambled.png,7,sad,-30,female,1,,402,off,1,0.5,0.75,0.5,0.918,3,401,2,1,1,0,0,0,0,1,,,,,,0,23,23,23,,,,,,,,,,,,,,,,,,,,,,,,,,,,,,,,,,,,,,,,,,,,,,,,,,,,,,,,,364.44403020000027,364.9467361999996,364.9467361999996,365.69644079999944,365.69644079999944,366.20186730000023,366.20186730000023,367.1266268999998,367.1266268999998,None,num_6,0.41795790000014676,367.1266268999998,None,sad,1,Sad,367.56253687999975,None,None,367.56253687999975,None,,,,,,,,,,,,,,,,,,,,,,,,,,,,,,,,,,,,,,,,,,,,,,,,,,,,,15,001,male,28,450,475,2022_Oct_04_1101,Experiment,2021.1.4,360.45648209764374,
images\S10_M_H_02.png,images\S10_M_H_02_scrambled.png,10,happy,20,male,5,,56,off,1,0.5,0.75,0.5,0.898,3,55,3,1,1,0,0,0,0,5,,,,,,0,24,24,24,,,,,,,,,,,,,,,,,,,,,,,,,,,,,,,,,,,,,,,,,,,,,,,,,,,,,,,,,367.64867270000013,368.1512415999996,368.1512415999996,368.9066335999996,368.9066335999996,369.41200449999997,369.41200449999997,370.31176049999976,370.31176049999976,None,num_4,0.32107970000015484,370.31176049999976,None,happy,1,Happy,370.65895925999956,None,None,370.65895925999956,None,,,,,,,,,,,,,,,,,,,,,,,,,,,,,,,,,,,,,,,,,,,,,,,,,,,,,15,001,male,28,450,475,2022_Oct_04_1101,Experiment,2021.1.4,360.45648209764374,
images\S2_M_H_01.png,images\S2_M_H_01_scrambled.png,2,happy,10,male,4,,127,off,1,0.5,0.75,0.5,0.751,3,126,4,1,1,0,0,0,0,4,,,,,,0,25,25,25,,,,,,,,,,,,,,,,,,,,,,,,,,,,,,,,,,,,,,,,,,,,,,,,,,,,,,,,,370.76985969999987,371.2725155999997,371.2725155999997,372.0250858999998,372.0250858999998,372.527685,372.527685,373.28297550000025,373.28297550000025,None,num_6,0.41399939999973867,373.28297550000025,None,sad,1,Happy,373.70516715999946,None,None,373.70516715999946,None,,,,,,,,,,,,,,,,,,,,,,,,,,,,,,,,,,,,,,,,,,,,,,,,,,,,,15,001,male,28,450,475,2022_Oct_04_1101,Experiment,2021.1.4,360.45648209764374,
images\S6_M_S_01.png,images\S6_M_S_01_scrambled.png,6,sad,-10,male,3,,574,on,2,0.5,0.75,0.5,0.943,3,573,1,1,1,2,2,32,128,163,,,,,,0,26,26,26,,,,,,,,,,,,,,,,,,,,,,,,,,,,,,,,,,,,,,,,,,,,,,,,,,,,,,,,,373.8161500999995,374.31599430000006,374.31599430000006,375.06575729999986,375.06575729999986,375.5712945999994,375.5712945999994,376.5181217999998,376.5181217999998,None,num_6,0.41047419999995327,376.5181217999998,None,sad,1,Sad,376.94298278,None,None,376.94298278,None,,,,,,,,,,,,,,,,,,,,,,,,,,,,,,,,,,,,,,,,,,,,,,,,,,,,,15,001,male,28,450,475,2022_Oct_04_1101,Experiment,2021.1.4,360.45648209764374,
images\S2_M_S_03.png,images\S2_M_S_03_scrambled.png,2,sad,-30,male,1,,252,off,1,0.5,0.75,0.5,0.921,3,251,1,1,1,0,0,0,0,1,,,,,,0,27,27,27,,,,,,,,,,,,,,,,,,,,,,,,,,,,,,,,,,,,,,,,,,,,,,,,,,,,,,,,,377.0290494000001,377.5317911000002,377.5317911000002,378.28703849999965,378.28703849999965,378.79242350000004,378.79242350000004,379.71710689999964,379.71710689999964,None,num_6,0.3954556999997294,379.71710689999964,None,sad,1,Sad,380.12811027999993,None,None,380.12811027999993,None,,,,,,,,,,,,,,,,,,,,,,,,,,,,,,,,,,,,,,,,,,,,,,,,,,,,,15,001,male,28,450,475,2022_Oct_04_1101,Experiment,2021.1.4,360.45648209764374,
images\S3_F_S_01.png,images\S3_F_S_01_scrambled.png,3,sad,-10,female,3,,556,on,2,0.5,0.75,0.5,0.909,3,555,1,1,1,2,2,32,128,163,,,,,,0,28,28,28,,,,,,,,,,,,,,,,,,,,,,,,,,,,,,,,,,,,,,,,,,,,,,,,,,,,,,,,,380.2141869999996,380.7140233,380.7140233,381.4638027000001,381.4638027000001,381.9665450000002,381.9665450000002,382.8772871000001,382.8772871000001,None,num_4,1.4673852999994779,382.8772871000001,None,happy,1,Sad,384.35177824000016,None,None,384.35177824000016,None,,,,,,,,,,,,,,,,,,,,,,,,,,,,,,,,,,,,,,,,,,,,,,,,,,,,,15,001,male,28,450,475,2022_Oct_04_1101,Experiment,2021.1.4,360.45648209764374,
images\S5_F_H_03.png,images\S5_F_H_03_scrambled.png,5,happy,30,female,6,,27,off,1,0.5,0.75,0.5,0.825,3,26,1,1,1,0,0,0,0,6,,,,,,0,29,29,29,,,,,,,,,,,,,,,,,,,,,,,,,,,,,,,,,,,,,,,,,,,,,,,,,,,,,,,,,384.39900940000007,384.9016509000003,384.9016509000003,385.65700860000015,385.65700860000015,386.1568090999999,386.1568090999999,386.98713880000014,386.98713880000014,None,num_4,0.3252578999999969,386.98713880000014,None,happy,1,Happy,387.3314819999996,None,None,387.3314819999996,None,,,,,,,,,,,,,,,,,,,,,,,,,,,,,,,,,,,,,,,,,,,,,,,,,,,,,15,001,male,28,450,475,2022_Oct_04_1101,Experiment,2021.1.4,360.45648209764374,
images\S9_F_H_03.png,images\S9_F_H_03_scrambled.png,9,happy,30,female,6,,471,on,2,0.5,0.75,0.5,0.923,3,470,1,1,2,2,2,32,128,166,,,,,,0,30,30,30,,,,,,,,,,,,,,,,,,,,,,,,,,,,,,,,,,,,,,,,,,,,,,,,,,,,,,,,,387.44251819999954,387.94513970000025,387.94513970000025,388.6977114000001,388.6977114000001,389.1974997999996,389.1974997999996,390.1222824999995,390.1222824999995,None,num_4,0.35836569999992207,390.1222824999995,None,happy,1,Happy,390.49437558000005,None,None,390.49437558000005,None,,,,,,,,,,,,,,,,,,,,,,,,,,,,,,,,,,,,,,,,,,,,,,,,,,,,,15,001,male,28,450,475,2022_Oct_04_1101,Experiment,2021.1.4,360.45648209764374,
images\S9_F_H_03.png,images\S9_F_H_03_scrambled.png,9,happy,30,female,6,,51,off,1,0.5,0.75,0.5,0.906,3,50,1,2,3,0,0,0,0,6,,,,,,0,31,31,31,,,,,,,,,,,,,,,,,,,,,,,,,,,,,,,,,,,,,,,,,,,,,,,,,,,,,,,,,390.5415605999997,391.04142090000005,391.04142090000005,391.7967748000001,391.7967748000001,392.3021934999997,392.3021934999997,393.21017800000027,393.21017800000027,None,num_4,0.4388684000005014,393.21017800000027,None,happy,1,Happy,393.66849072,None,None,393.66849072,None,,,,,,,,,,,,,,,,,,,,,,,,,,,,,,,,,,,,,,,,,,,,,,,,,,,,,15,001,male,28,450,475,2022_Oct_04_1101,Experiment,2021.1.4,360.45648209764374,
images\S2_M_S_01.png,images\S2_M_S_01_scrambled.png,2,sad,-10,male,3,,550,on,2,0.5,0.75,0.5,0.765,3,549,1,1,1,2,2,32,128,163,,,,,,0,32,32,32,,,,,,,,,,,,,,,,,,,,,,,,,,,,,,,,,,,,,,,,,,,,,,,,,,,,,,,,,393.7794466999994,394.28211719999945,394.28211719999945,395.03743639999993,395.03743639999993,395.54006649999974,395.54006649999974,396.31205390000014,396.31205390000014,None,num_6,0.42460770000070625,396.31205390000014,None,sad,1,Sad,396.75081047999953,None,None,396.75081047999953,None,,,,,,,,,,,,,,,,,,,,,,,,,,,,,,,,,,,,,,,,,,,,,,,,,,,,,15,001,male,28,450,475,2022_Oct_04_1101,Experiment,2021.1.4,360.45648209764374,
images\S1_F_S_01.png,images\S1_F_S_01_scrambled.png,1,sad,-10,female,3,,364,off,1,0.5,0.75,0.5,0.854,3,363,1,1,2,0,0,0,0,3,,,,,,0,33,33,33,,,,,,,,,,,,,,,,,,,,,,,,,,,,,,,,,,,,,,,,,,,,,,,,,,,,,,,,,396.79797020000024,397.30061810000007,397.30061810000007,398.0503983999997,398.0503983999997,398.55298140000014,398.55298140000014,399.4111944999995,399.4111944999995,None,num_4,0.28538879999996425,399.4111944999995,None,happy,1,Sad,399.70819193999955,None,None,399.70819193999955,None,,,,,,,,,,,,,,,,,,,,,,,,,,,,,,,,,,,,,,,,,,,,,,,,,,,,,15,001,male,28,450,475,2022_Oct_04_1101,Experiment,2021.1.4,360.45648209764374,
images\S2_M_H_03.png,images\S2_M_H_03_scrambled.png,2,happy,30,male,6,,429,on,2,0.5,0.75,0.5,0.763,3,428,1,1,1,2,2,32,128,166,,,,,,0,34,34,34,,,,,,,,,,,,,,,,,,,,,,,,,,,,,,,,,,,,,,,,,,,,,,,,,,,,,,,,,399.7887234,400.2941278999997,400.2941278999997,401.04388149999977,401.04388149999977,401.54664049999974,401.54664049999974,402.3129693000001,402.3129693000001,None,num_4,0.40745090000018536,402.3129693000001,None,happy,1,Happy,402.7489283800001,None,None,402.7489283800001,None,,,,,,,,,,,,,,,,,,,,,,,,,,,,,,,,,,,,,,,,,,,,,,,,,,,,,15,001,male,28,450,475,2022_Oct_04_1101,Experiment,2021.1.4,360.45648209764374,
images\blank.jpg,images\blank.jpg,none,none,none,none,0,,638,on,2,0.5,0.75,0.5,0.824,0,637,2,1,1,3,3,48,192,240,,,,,,0,35,35,35,,,,,,,,,,,,,,,,,,,,,,,,,,,,,,,,,,,,,,,,,,,,,,,,,,,,,,,,,402.8380367999998,403.3432052999997,403.3432052999997,404.0958578,404.0958578,404.60124629999973,404.60124629999973,405.4315335000001,405.4315335000001,405.4315335000001,None,,405.4315335000001,None,miss,1,,408.43617423999945,None,None,408.43617423999945,None,,,,,,,,,,,,,,,,,,,,,,,,,,,,,,,,,,,,,,,,,,,,,,,,,,,,,15,001,male,28,450,475,2022_Oct_04_1101,Experiment,2021.1.4,360.45648209764374,
images\S2_M_S_02.png,images\S2_M_S_02_scrambled.png,2,sad,-20,male,2,,431,on,2,0.5,0.75,0.5,0.775,3,430,3,1,1,2,2,32,128,162,,,,,,0,36,36,36,,,,,,,,,,,,,,,,,,,,,,,,,,,,,,,,,,,,,,,,,,,,,,,,,,,,,,,,,408.5973591000002,409.0997367,409.0997367,409.8523247000003,409.8523247000003,410.35494860000017,410.35494860000017,411.1296775999999,411.1296775999999,None,num_4,1.7911040999997567,411.1296775999999,408.5973591000002,happy,1,Sad,412.92912004000004,None,None,412.92912004000004,None,,,,,,,,,,,,,,,,,,,,,,,,,,,,,,,,,,,,,,,,,,,,,,,,,,,,,15,001,male,28,450,475,2022_Oct_04_1101,Experiment,2021.1.4,360.45648209764374,
images\S10_M_H_03.png,images\S10_M_H_03_scrambled.png,10,happy,30,male,6,,417,off,1,0.5,0.75,0.5,0.88,3,416,1,1,1,0,0,0,0,6,,,,,,0,37,37,37,,,,,,,,,,,,,,,,,,,,,,,,,,,,,,,,,,,,,,,,,,,,,,,,,,,,,,,,,413.00965559999986,413.51516600000014,413.51516600000014,414.2648266999995,414.2648266999995,414.7674884999997,414.7674884999997,415.65330689999973,415.65330689999973,None,num_4,0.34737219999988156,415.65330689999973,None,happy,1,Happy,416.01427347999976,None,None,416.01427347999976,None,,,,,,,,,,,,,,,,,,,,,,,,,,,,,,,,,,,,,,,,,,,,,,,,,,,,,15,001,male,28,450,475,2022_Oct_04_1101,Experiment,2021.1.4,360.45648209764374,
images\S8_M_H_02.png,images\S8_M_H_02_scrambled.png,8,happy,20,male,5,,584,on,2,0.5,0.75,0.5,0.803,3,583,1,1,1,2,2,32,128,165,,,,,,0,38,38,38,,,,,,,,,,,,,,,,,,,,,,,,,,,,,,,,,,,,,,,,,,,,,,,,,,,,,,,,,416.0614969999997,416.5669367999999,416.5669367999999,417.31948029999967,417.31948029999967,417.82210639999994,417.82210639999994,418.62740719999965,418.62740719999965,None,num_6,0.44519510000009177,418.62740719999965,None,sad,1,Happy,419.07997993999993,None,None,419.07997993999993,None,,,,,,,,,,,,,,,,,,,,,,,,,,,,,,,,,,,,,,,,,,,,,,,,,,,,,15,001,male,28,450,475,2022_Oct_04_1101,Experiment,2021.1.4,360.45648209764374,
images\S4_M_H_01.png,images\S4_M_H_01_scrambled.png,4,happy,10,male,4,,79,on,2,0.5,0.75,0.5,0.943,3,78,2,1,1,2,2,32,128,164,,,,,,0,39,39,39,,,,,,,,,,,,,,,,,,,,,,,,,,,,,,,,,,,,,,,,,,,,,,,,,,,,,,,,,419.1272116,419.62983540000005,419.62983540000005,420.38242160000027,420.38242160000027,420.88500529999965,420.88500529999965,421.83199349999995,421.83199349999995,None,num_6,0.4087654000004477,421.83199349999995,None,sad,1,Happy,422.25409856000005,None,None,422.25409856000005,None,,,,,,,,,,,,,,,,,,,,,,,,,,,,,,,,,,,,,,,,,,,,,,,,,,,,,15,001,male,28,450,475,2022_Oct_04_1101,Experiment,2021.1.4,360.45648209764374,
images\S2_M_H_02.png,images\S2_M_H_02_scrambled.png,2,happy,20,male,5,,8,off,1,0.5,0.75,0.5,0.782,3,7,1,1,1,0,0,0,0,5,,,,,,0,40,40,40,,,,,,,,,,,,,,,,,,,,,,,,,,,,,,,,,,,,,,,,,,,,,,,,,,,,,,,,,422.3123743999995,422.81497149999996,422.81497149999996,423.56753149999986,423.56753149999986,424.0701795999994,424.0701795999994,424.8561474999997,424.8561474999997,None,num_4,0.304434399999991,424.8561474999997,None,happy,1,Happy,425.1753337799997,None,None,425.1753337799997,None,,,,,,,,,,,,,,,,,,,,,,,,,,,,,,,,,,,,,,,,,,,,,,,,,,,,,15,001,male,28,450,475,2022_Oct_04_1101,Experiment,2021.1.4,360.45648209764374,
images\S9_F_H_01.png,images\S9_F_H_01_scrambled.png,9,happy,10,female,4,,529,off,1,0.5,0.75,0.5,0.82,3,528,2,1,1,0,0,0,0,4,,,,,,0,41,41,41,,,,,,,,,,,,,,,,,,,,,,,,,,,,,,,,,,,,,,,,,,,,,,,,,,,,,,,,,425.2225582000001,425.7251867999994,425.7251867999994,426.4777598999999,426.4777598999999,426.98315999999977,426.98315999999977,427.80790350000007,427.80790350000007,None,num_6,0.3373068000000785,427.80790350000007,None,sad,1,Happy,428.15777715999974,None,None,428.15777715999974,None,,,,,,,,,,,,,,,,,,,,,,,,,,,,,,,,,,,,,,,,,,,,,,,,,,,,,15,001,male,28,450,475,2022_Oct_04_1101,Experiment,2021.1.4,360.45648209764374,
images\S9_F_S_03.png,images\S9_F_S_03_scrambled.png,9,sad,-30,female,1,,534,off,1,0.5,0.75,0.5,0.91,3,533,3,2,1,0,0,0,0,1,,,,,,0,42,42,42,,,,,,,,,,,,,,,,,,,,,,,,,,,,,,,,,,,,,,,,,,,,,,,,,,,,,,,,,428.2688459000001,428.77160579999963,428.77160579999963,429.52125739999974,429.52125739999974,430.02672449999955,430.02672449999955,430.94305259999965,430.94305259999965,None,num_4,0.28930709999985993,430.94305259999965,None,happy,1,Sad,431.2374108399997,None,None,431.2374108399997,None,,,,,,,,,,,,,,,,,,,,,,,,,,,,,,,,,,,,,,,,,,,,,,,,,,,,,15,001,male,28,450,475,2022_Oct_04_1101,Experiment,2021.1.4,360.45648209764374,
images\S9_F_H_01.png,images\S9_F_H_01_scrambled.png,9,happy,10,female,4,,229,on,2,0.5,0.75,0.5,0.914,3,228,1,3,1,2,2,32,128,164,,,,,,0,43,43,43,,,,,,,,,,,,,,,,,,,,,,,,,,,,,,,,,,,,,,,,,,,,,,,,,,,,,,,,,431.2845765000002,431.78719529999944,431.78719529999944,432.5397557999995,432.5397557999995,433.0395921999998,433.0395921999998,433.9561090999996,433.9561090999996,None,num_4,0.38849190000019007,433.9561090999996,None,happy,1,Happy,434.36705506000015,None,None,434.36705506000015,None,,,,,,,,,,,,,,,,,,,,,,,,,,,,,,,,,,,,,,,,,,,,,,,,,,,,,15,001,male,28,450,475,2022_Oct_04_1101,Experiment,2021.1.4,360.45648209764374,
images\S2_M_H_01.png,images\S2_M_H_01_scrambled.png,2,happy,10,male,4,,427,on,2,0.5,0.75,0.5,0.774,3,426,2,1,2,2,2,32,128,164,,,,,,0,44,44,44,,,,,,,,,,,,,,,,,,,,,,,,,,,,,,,,,,,,,,,,,,,,,,,,,,,,,,,,,434.4169575999995,434.92239400000017,434.92239400000017,435.6748981999999,435.6748981999999,436.1775693999998,436.1775693999998,436.95510190000005,436.95510190000005,None,num_4,0.22986160000073141,436.95510190000005,None,happy,1,Happy,437.2050945200002,None,None,437.2050945200002,None,,,,,,,,,,,,,,,,,,,,,,,,,,,,,,,,,,,,,,,,,,,,,,,,,,,,,15,001,male,28,450,475,2022_Oct_04_1101,Experiment,2021.1.4,360.45648209764374,
images\S1_F_H_01.png,images\S1_F_H_01_scrambled.png,1,happy,10,female,4,,1,off,1,0.5,0.75,0.5,0.759,3,0,1,1,3,0,0,0,0,4,,,,,,0,45,45,45,,,,,,,,,,,,,,,,,,,,,,,,,,,,,,,,,,,,,,,,,,,,,,,,,,,,,,,,,437.2549713999997,437.75763860000006,437.75763860000006,438.51018159999967,438.51018159999967,439.01001709999946,439.01001709999946,439.77100789999986,439.77100789999986,None,num_4,0.43754030000036437,439.77100789999986,None,happy,1,Happy,440.22350687999966,None,None,440.22350687999966,None,,,,,,,,,,,,,,,,,,,,,,,,,,,,,,,,,,,,,,,,,,,,,,,,,,,,,15,001,male,28,450,475,2022_Oct_04_1101,Experiment,2021.1.4,360.45648209764374,
images\S2_M_S_03.png,images\S2_M_S_03_scrambled.png,2,sad,-30,male,1,,312,on,2,0.5,0.75,0.5,0.95,3,311,1,1,1,2,2,32,128,161,,,,,,0,46,46,46,,,,,,,,,,,,,,,,,,,,,,,,,,,,,,,,,,,,,,,,,,,,,,,,,,,,,,,,,440.27070339999955,440.77624689999993,440.77624689999993,441.5286793999994,441.5286793999994,442.03140669999993,442.03140669999993,442.98378330000014,442.98378330000014,None,num_6,0.35265590000017255,442.98378330000014,None,sad,1,Sad,443.3503216799996,None,None,443.3503216799996,None,,,,,,,,,,,,,,,,,,,,,,,,,,,,,,,,,,,,,,,,,,,,,,,,,,,,,15,001,male,28,450,475,2022_Oct_04_1101,Experiment,2021.1.4,360.45648209764374,
images\blank.jpg,images\blank.jpg,none,none,none,none,0,,611,on,2,0.5,0.75,0.5,0.847,0,610,2,1,1,3,3,48,192,240,,,,,,0,47,47,47,,,,,,,,,,,,,,,,,,,,,,,,,,,,,,,,,,,,,,,,,,,,,,,,,,,,,,,,,443.43384590000005,443.9362732999998,443.9362732999998,444.6888137999995,444.6888137999995,445.19151839999995,445.19151839999995,446.0383944999994,446.0383944999994,446.0383944999994,None,,446.0383944999994,None,miss,1,,449.0430863399995,None,None,449.0430863399995,None,,,,,,,,,,,,,,,,,,,,,,,,,,,,,,,,,,,,,,,,,,,,,,,,,,,,,15,001,male,28,450,475,2022_Oct_04_1101,Experiment,2021.1.4,360.45648209764374,
images\blank.jpg,images\blank.jpg,none,none,none,none,0,,613,on,2,0.5,0.75,0.5,0.916,0,612,3,2,2,3,3,48,192,240,,,,,,0,48,48,48,,,,,,,,,,,,,,,,,,,,,,,,,,,,,,,,,,,,,,,,,,,,,,,,,,,,,,,,,449.07079749999957,449.57341149999957,449.57341149999957,450.3259745999994,450.3259745999994,450.8314994000002,450.8314994000002,451.7477557000002,451.7477557000002,451.7477557000002,None,,451.7477557000002,449.07079749999957,miss,1,,454.7496203399994,None,None,454.7496203399994,None,,,,,,,,,,,,,,,,,,,,,,,,,,,,,,,,,,,,,,,,,,,,,,,,,,,,,15,001,male,28,450,475,2022_Oct_04_1101,Experiment,2021.1.4,360.45648209764374,
images\S3_F_H_02.png,images\S3_F_H_02_scrambled.png,3,happy,20,female,5,,134,off,1,0.5,0.75,0.5,0.947,3,133,1,1,1,0,0,0,0,5,,,,,,0,49,49,49,,,,,,,,,,,,,,,,,,,,,,,,,,,,,,,,,,,,,,,,,,,,,,,,,,,,,,,,,454.8940725000002,455.39663500000006,455.39663500000006,456.1491752000002,456.1491752000002,456.6518315000003,456.6518315000003,457.60157119999985,457.60157119999985,None,num_4,0.3429218999999648,457.60157119999985,454.8940725000002,happy,1,Happy,457.95418727999964,None,None,457.95418727999964,None,,,,,,,,,,,,,,,,,,,,,,,,,,,,,,,,,,,,,,,,,,,,,,,,,,,,,15,001,male,28,450,475,2022_Oct_04_1101,Experiment,2021.1.4,360.45648209764374,
images\S10_M_H_02.png,images\S10_M_H_02_scrambled.png,10,happy,20,male,5,,536,off,1,0.5,0.75,0.5,0.893,3,535,2,1,2,0,0,0,0,5,,,,,,0,50,50,50,,,,,,,,,,,,,,,,,,,,,,,,,,,,,,,,,,,,,,,,,,,,,,,,,,,,,,,,,458.0013687999999,458.50123470000017,458.50123470000017,459.2537720999999,459.2537720999999,459.75364309999986,459.75364309999986,460.65057309999975,460.65057309999975,None,num_4,0.3822253999996974,460.65057309999975,None,happy,1,Happy,461.0561470399996,None,None,461.0561470399996,None,,,,,,,,,,,,,,,,,,,,,,,,,,,,,,,,,,,,,,,,,,,,,,,,,,,,,15,001,male,28,450,475,2022_Oct_04_1101,Experiment,2021.1.4,360.45648209764374,
images\S2_M_H_01.png,images\S2_M_H_01_scrambled.png,2,happy,10,male,4,,67,on,2,0.5,0.75,0.5,0.762,3,66,1,1,1,2,2,32,128,164,,,,,,0,51,51,51,,,,,,,,,,,,,,,,,,,,,,,,,,,,,,,,,,,,,,,,,,,,,,,,,,,,,,,,,461.10596910000004,461.608612,461.608612,462.36393510000016,462.36393510000016,462.86666330000025,462.86666330000025,463.63300009999966,463.63300009999966,None,num_6,0.3435355999999956,463.63300009999966,None,sad,1,Happy,463.9828667399995,None,None,463.9828667399995,None,,,,,,,,,,,,,,,,,,,,,,,,,,,,,,,,,,,,,,,,,,,,,,,,,,,,,15,001,male,28,450,475,2022_Oct_04_1101,Experiment,2021.1.4,360.45648209764374,
images\S7_F_H_02.png,images\S7_F_H_02_scrambled.png,7,happy,20,female,5,,518,off,1,0.5,0.75,0.5,0.906,3,517,1,1,1,0,0,0,0,5,,,,,,0,52,52,52,,,,,,,,,,,,,,,,,,,,,,,,,,,,,,,,,,,,,,,,,,,,,,,,,,,,,,,,,464.06617709999955,464.5688137999996,464.5688137999996,465.32412980000026,465.32412980000026,465.82398379999995,465.82398379999995,466.73206479999953,466.73206479999953,None,num_4,0.2685694000001604,466.73206479999953,None,happy,1,Happy,467.01527717999994,None,None,467.01527717999994,None,,,,,,,,,,,,,,,,,,,,,,,,,,,,,,,,,,,,,,,,,,,,,,,,,,,,,15,001,male,28,450,475,2022_Oct_04_1101,Experiment,2021.1.4,360.45648209764374,
images\S3_F_S_03.png,images\S3_F_S_03_scrambled.png,3,sad,-30,female,1,,558,on,2,0.5,0.75,0.5,0.775,3,557,1,1,1,2,2,32,128,161,,,,,,0,53,53,53,,,,,,,,,,,,,,,,,,,,,,,,,,,,,,,,,,,,,,,,,,,,,,,,,,,,,,,,,467.0985773000002,467.6039890000002,467.6039890000002,468.35659639999994,468.35659639999994,468.8591544000001,468.8591544000001,469.63677579999967,469.63677579999967,None,num_6,0.3321002000002409,469.63677579999967,None,sad,1,Sad,469.9950319600004,None,None,469.9950319600004,None,,,,,,,,,,,,,,,,,,,,,,,,,,,,,,,,,,,,,,,,,,,,,,,,,,,,,15,001,male,28,450,475,2022_Oct_04_1101,Experiment,2021.1.4,360.45648209764374,
images\S1_F_H_03.png,images\S1_F_H_03_scrambled.png,1,happy,30,female,6,,63,on,2,0.5,0.75,0.5,0.78,3,62,2,1,1,2,2,32,128,166,,,,,,0,54,54,54,,,,,,,,,,,,,,,,,,,,,,,,,,,,,,,,,,,,,,,,,,,,,,,,,,,,,,,,,470.1032046999999,470.6058301000003,470.6058301000003,471.3555854999995,471.3555854999995,471.8554457,471.8554457,472.6414348999997,472.6414348999997,None,num_4,0.2474651000002268,472.6414348999997,None,happy,1,Happy,472.9163852599997,None,None,472.9163852599997,None,,,,,,,,,,,,,,,,,,,,,,,,,,,,,,,,,,,,,,,,,,,,,,,,,,,,,15,001,male,28,450,475,2022_Oct_04_1101,Experiment,2021.1.4,360.45648209764374,
images\S7_F_S_01.png,images\S7_F_S_01_scrambled.png,7,sad,-10,female,3,,340,on,2,0.5,0.75,0.5,0.923,3,339,3,1,1,2,2,32,128,163,,,,,,0,55,55,55,,,,,,,,,,,,,,,,,,,,,,,,,,,,,,,,,,,,,,,,,,,,,,,,,,,,,,,,,472.96622209999987,473.47169459999986,473.47169459999986,474.22697739999967,474.22697739999967,474.72956669999985,474.72956669999985,475.6570972999998,475.6570972999998,None,num_6,0.2794260000000577,475.6570972999998,None,sad,1,Sad,475.96535815999977,None,None,475.96535815999977,None,,,,,,,,,,,,,,,,,,,,,,,,,,,,,,,,,,,,,,,,,,,,,,,,,,,,,15,001,male,28,450,475,2022_Oct_04_1101,Experiment,2021.1.4,360.45648209764374,
images\S2_M_H_03.png,images\S2_M_H_03_scrambled.png,2,happy,30,male,6,,489,off,1,0.5,0.75,0.5,0.789,3,488,1,1,1,0,0,0,0,6,,,,,,0,56,56,56,,,,,,,,,,,,,,,,,,,,,,,,,,,,,,,,,,,,,,,,,,,,,,,,,,,,,,,,,476.0180518999996,476.52082710000013,476.52082710000013,477.27608340000006,477.27608340000006,477.77863999999954,477.77863999999954,478.57008570000016,478.57008570000016,None,num_4,0.270422999999937,478.57008570000016,None,happy,1,Happy,478.8505564800003,None,None,478.8505564800003,None,,,,,,,,,,,,,,,,,,,,,,,,,,,,,,,,,,,,,,,,,,,,,,,,,,,,,15,001,male,28,450,475,2022_Oct_04_1101,Experiment,2021.1.4,360.45648209764374,
images\S5_F_H_01.png,images\S5_F_H_01_scrambled.png,5,happy,10,female,4,,265,off,1,0.5,0.75,0.5,0.803,3,264,2,1,1,0,0,0,0,4,,,,,,0,57,57,57,,,,,,,,,,,,,,,,,,,,,,,,,,,,,,,,,,,,,,,,,,,,,,,,,,,,,,,,,478.9338219000001,479.4336666999998,479.4336666999998,480.1863384999997,480.1863384999997,480.6860743999996,480.6860743999996,481.49148719999994,481.49148719999994,None,num_4,0.22911889999977575,481.49148719999994,None,happy,1,Happy,481.73575107999983,None,None,481.73575107999983,None,,,,,,,,,,,,,,,,,,,,,,,,,,,,,,,,,,,,,,,,,,,,,,,,,,,,,15,001,male,28,450,475,2022_Oct_04_1101,Experiment,2021.1.4,360.45648209764374,
images\S7_F_S_02.png,images\S7_F_S_02_scrambled.png,7,sad,-20,female,2,,521,off,1,0.5,0.75,0.5,0.814,3,520,3,1,1,0,0,0,0,2,,,,,,0,58,58,58,,,,,,,,,,,,,,,,,,,,,,,,,,,,,,,,,,,,,,,,,,,,,,,,,,,,,,,,,481.81904639999993,482.3216943999996,482.3216943999996,483.0714261000003,483.0714261000003,483.57690360000015,483.57690360000015,484.39890319999995,484.39890319999995,None,num_6,0.26567879999947763,484.39890319999995,None,sad,1,Sad,484.67929257999964,None,None,484.67929257999964,None,,,,,,,,,,,,,,,,,,,,,,,,,,,,,,,,,,,,,,,,,,,,,,,,,,,,,15,001,male,28,450,475,2022_Oct_04_1101,Experiment,2021.1.4,360.45648209764374,
images\S2_M_S_02.png,images\S2_M_S_02_scrambled.png,2,sad,-20,male,2,,71,on,2,0.5,0.75,0.5,0.757,3,70,1,1,2,2,2,32,128,162,,,,,,0,59,59,59,,,,,,,,,,,,,,,,,,,,,,,,,,,,,,,,,,,,,,,,,,,,,,,,,,,,,,,,,484.72649720000027,485.23192539999945,485.23192539999945,485.9872525999999,485.9872525999999,486.49264700000003,486.49264700000003,487.25639820000015,487.25639820000015,None,num_6,0.6000719000003301,487.25639820000015,None,sad,1,Sad,487.86719297999986,None,None,487.86719297999986,None,,,,,,,,,,,,,,,,,,,,,,,,,,,,,,,,,,,,,,,,,,,,,,,,,,,,,15,001,male,28,450,475,2022_Oct_04_1101,Experiment,2021.1.4,360.45648209764374,
images\S3_F_S_02.png,images\S3_F_S_02_scrambled.png,3,sad,-20,female,2,,497,off,1,0.5,0.75,0.5,0.803,3,496,1,1,3,0,0,0,0,2,,,,,,0,60,60,60,,,,,,,,,,,,,,,,,,,,,,,,,,,,,,,,,,,,,,,,,,,,,,,,,,,,,,,,,487.9782630999998,488.48368239999945,488.48368239999945,489.23342820000016,489.23342820000016,489.73619020000024,489.73619020000024,490.53860519999944,490.53860519999944,None,num_6,0.278233399999408,490.53860519999944,None,sad,1,Sad,490.8275210799998,None,None,490.8275210799998,None,,,,,,,,,,,,,,,,,,,,,,,,,,,,,,,,,,,,,,,,,,,,,,,,,,,,,15,001,male,28,450,475,2022_Oct_04_1101,Experiment,2021.1.4,360.45648209764374,
images\S2_M_H_02.png,images\S2_M_H_02_scrambled.png,2,happy,20,male,5,,548,on,2,0.5,0.75,0.5,0.785,3,547,1,1,1,2,2,32,128,165,,,,,,0,61,61,61,,,,,,,,,,,,,,,,,,,,,,,,,,,,,,,,,,,,,,,,,,,,,,,,,,,,,,,,,490.89125390000027,491.3911247999995,491.3911247999995,492.1465075999995,492.1465075999995,492.6518532,492.6518532,493.44327710000016,493.44327710000016,None,num_4,0.2773011999997834,493.44327710000016,None,happy,1,Happy,493.7348395799996,None,None,493.7348395799996,None,,,,,,,,,,,,,,,,,,,,,,,,,,,,,,,,,,,,,,,,,,,,,,,,,,,,,15,001,male,28,450,475,2022_Oct_04_1101,Experiment,2021.1.4,360.45648209764374,
images\S3_F_H_03.png,images\S3_F_H_03_scrambled.png,3,happy,30,female,6,,15,off,1,0.5,0.75,0.5,0.829,3,14,1,1,1,0,0,0,0,6,,,,,,0,62,62,62,,,,,,,,,,,,,,,,,,,,,,,,,,,,,,,,,,,,,,,,,,,,,,,,,,,,,,,,,493.78203529999973,494.28188950000003,494.28188950000003,495.0316745,495.0316745,495.5370972999999,495.5370972999999,496.3702532999996,496.3702532999996,None,num_4,0.4141974999993181,496.3702532999996,None,happy,1,Happy,496.79500298,None,None,496.79500298,None,,,,,,,,,,,,,,,,,,,,,,,,,,,,,,,,,,,,,,,,,,,,,,,,,,,,,15,001,male,28,450,475,2022_Oct_04_1101,Experiment,2021.1.4,360.45648209764374,
images\S7_F_S_03.png,images\S7_F_S_03_scrambled.png,7,sad,-30,female,1,,342,on,2,0.5,0.75,0.5,0.867,3,341,1,1,1,2,2,32,128,161,,,,,,0,63,63,63,,,,,,,,,,,,,,,,,,,,,,,,,,,,,,,,,,,,,,,,,,,,,,,,,,,,,,,,,496.84220920000007,497.3420576999997,497.3420576999997,498.0946034999997,498.0946034999997,498.59726580000006,498.59726580000006,499.4692506000001,499.4692506000001,None,num_6,0.42715120000048046,499.4692506000001,None,sad,1,Sad,499.9107619999995,None,None,499.9107619999995,None,,,,,,,,,,,,,,,,,,,,,,,,,,,,,,,,,,,,,,,,,,,,,,,,,,,,,15,001,male,28,450,475,2022_Oct_04_1101,Experiment,2021.1.4,360.45648209764374,
images\S6_M_H_03.png,images\S6_M_H_03_scrambled.png,6,happy,30,male,6,,573,on,2,0.5,0.75,0.5,0.868,3,572,2,1,1,2,2,32,128,166,,,,,,0,64,64,64,,,,,,,,,,,,,,,,,,,,,,,,,,,,,,,,,,,,,,,,,,,,,,,,,,,,,,,,,499.99123619999955,500.4910812999997,500.4910812999997,501.2408765,501.2408765,501.74637989999974,501.74637989999974,502.61822930000017,502.61822930000017,None,num_4,0.278300400000262,502.61822930000017,None,happy,1,Happy,502.9070276799999,None,None,502.9070276799999,None,,,,,,,,,,,,,,,,,,,,,,,,,,,,,,,,,,,,,,,,,,,,,,,,,,,,,15,001,male,28,450,475,2022_Oct_04_1101,Experiment,2021.1.4,360.45648209764374,
images\S5_F_S_02.png,images\S5_F_S_02_scrambled.png,5,sad,-20,female,2,,569,on,2,0.5,0.75,0.5,0.903,3,568,3,1,1,2,2,32,128,162,,,,,,0,65,65,65,,,,,,,,,,,,,,,,,,,,,,,,,,,,,,,,,,,,,,,,,,,,,,,,,,,,,,,,,502.9708836,503.4707166999997,503.4707166999997,504.2204892999998,504.2204892999998,504.7231394999999,504.7231394999999,505.63129649999973,505.63129649999973,None,num_4,0.08922609999990527,505.63129649999973,None,happy,1,Sad,505.72559074000014,None,None,505.72559074000014,None,,,,,,,,,,,,,,,,,,,,,,,,,,,,,,,,,,,,,,,,,,,,,,,,,,,,,15,001,male,28,450,475,2022_Oct_04_1101,Experiment,2021.1.4,360.45648209764374,
images\S1_F_S_01.png,images\S1_F_S_01_scrambled.png,1,sad,-10,female,3,,64,on,2,0.5,0.75,0.5,0.879,3,63,4,1,1,2,2,32,128,163,,,,,,0,66,66,66,,,,,,,,,,,,,,,,,,,,,,,,,,,,,,,,,,,,,,,,,,,,,,,,,,,,,,,,,505.7727855000003,506.27821909999966,506.27821909999966,507.0307636999996,507.0307636999996,507.5362863999999,507.5362863999999,508.41919789999974,508.41919789999974,None,num_6,0.8372584999997343,508.41919789999974,None,sad,1,Sad,509.2717342800002,None,None,509.2717342800002,None,,,,,,,,,,,,,,,,,,,,,,,,,,,,,,,,,,,,,,,,,,,,,,,,,,,,,15,001,male,28,450,475,2022_Oct_04_1101,Experiment,2021.1.4,360.45648209764374,
images\S7_F_H_03.png,images\S7_F_H_03_scrambled.png,7,happy,30,female,6,,39,off,1,0.5,0.75,0.5,0.798,3,38,1,1,1,0,0,0,0,6,,,,,,0,67,67,67,,,,,,,,,,,,,,,,,,,,,,,,,,,,,,,,,,,,,,,,,,,,,,,,,,,,,,,,,509.3522449000002,509.85486949999995,509.85486949999995,510.60463530000015,510.60463530000015,511.1072997000001,511.1072997000001,511.9070542999998,511.9070542999998,None,num_4,0.3580617000006896,511.9070542999998,None,happy,1,Happy,512.2931767400003,None,None,512.2931767400003,None,,,,,,,,,,,,,,,,,,,,,,,,,,,,,,,,,,,,,,,,,,,,,,,,,,,,,15,001,male,28,450,475,2022_Oct_04_1101,Experiment,2021.1.4,360.45648209764374,
images\S6_M_S_03.png,images\S6_M_S_03_scrambled.png,6,sad,-30,male,1,,96,on,2,0.5,0.75,0.5,0.876,3,95,1,1,1,2,2,32,128,161,,,,,,0,68,68,68,,,,,,,,,,,,,,,,,,,,,,,,,,,,,,,,,,,,,,,,,,,,,,,,,,,,,,,,,512.4068021000003,512.9123002999995,512.9123002999995,513.6648035999997,513.6648035999997,514.1674692999995,514.1674692999995,515.0477120999994,515.0477120999994,None,num_6,0.42468040000039764,515.0477120999994,None,sad,1,Sad,515.4837444800002,None,None,515.4837444800002,None,,,,,,,,,,,,,,,,,,,,,,,,,,,,,,,,,,,,,,,,,,,,,,,,,,,,,15,001,male,28,450,475,2022_Oct_04_1101,Experiment,2021.1.4,360.45648209764374,
images\S9_F_H_01.png,images\S9_F_H_01_scrambled.png,9,happy,10,female,4,,289,off,1,0.5,0.75,0.5,0.875,3,288,1,1,1,0,0,0,0,4,,,,,,0,69,69,69,,,,,,,,,,,,,,,,,,,,,,,,,,,,,,,,,,,,,,,,,,,,,,,,,,,,,,,,,515.5308924000001,516.0335451000001,516.0335451000001,516.7862346000002,516.7862346000002,517.2915759999996,517.2915759999996,518.1718169999995,518.1718169999995,None,num_4,0.2688876000001983,518.1718169999995,None,happy,1,Happy,518.4606377,None,None,518.4606377,None,,,,,,,,,,,,,,,,,,,,,,,,,,,,,,,,,,,,,,,,,,,,,,,,,,,,,15,001,male,28,450,475,2022_Oct_04_1101,Experiment,2021.1.4,360.45648209764374,
images\blank.jpg,images\blank.jpg,none,none,none,none,0,,646,on,2,0.5,0.75,0.5,0.802,0,645,1,1,1,3,3,48,192,240,,,,,,0,70,70,70,,,,,,,,,,,,,,,,,,,,,,,,,,,,,,,,,,,,,,,,,,,,,,,,,,,,,,,,,518.5468849999997,519.0492772999996,519.0492772999996,519.8018098000002,519.8018098000002,520.3072237999995,520.3072237999995,521.1098032999998,521.1098032999998,521.1098032999998,None,,521.1098032999998,None,miss,1,,524.1088482199997,None,None,524.1088482199997,None,,,,,,,,,,,,,,,,,,,,,,,,,,,,,,,,,,,,,,,,,,,,,,,,,,,,,15,001,male,28,450,475,2022_Oct_04_1101,Experiment,2021.1.4,360.45648209764374,
images\S3_F_S_01.png,images\S3_F_S_01_scrambled.png,3,sad,-10,female,3,,256,off,1,0.5,0.75,0.5,0.909,3,255,1,1,1,0,0,0,0,3,,,,,,0,71,71,71,,,,,,,,,,,,,,,,,,,,,,,,,,,,,,,,,,,,,,,,,,,,,,,,,,,,,,,,,524.2229034000002,524.7281033999998,524.7281033999998,525.4834150999995,525.4834150999995,525.9861414999996,525.9861414999996,526.8968974,526.8968974,None,num_6,1.5276358000000982,526.8968974,524.2229034000002,sad,1,Sad,528.4353076800004,None,None,528.4353076800004,None,,,,,,,,,,,,,,,,,,,,,,,,,,,,,,,,,,,,,,,,,,,,,,,,,,,,,15,001,male,28,450,475,2022_Oct_04_1101,Experiment,2021.1.4,360.45648209764374,
images\S3_F_S_01.png,images\S3_F_S_01_scrambled.png,3,sad,-10,female,3,,316,on,2,0.5,0.75,0.5,0.941,3,315,1,2,2,2,2,32,128,163,,,,,,0,72,72,72,,,,,,,,,,,,,,,,,,,,,,,,,,,,,,,,,,,,,,,,,,,,,,,,,,,,,,,,,528.4852560999998,528.9851038999996,528.9851038999996,529.7348747999995,529.7348747999995,530.2347148999997,530.2347148999997,531.1817369999999,531.1817369999999,None,num_6,2.890974400000232,531.1817369999999,None,sad,1,Sad,534.08633118,None,None,534.08633118,None,,,,,,,,,,,,,,,,,,,,,,,,,,,,,,,,,,,,,,,,,,,,,,,,,,,,,15,001,male,28,450,475,2022_Oct_04_1101,Experiment,2021.1.4,360.45648209764374,
images\S9_F_H_01.png,images\S9_F_H_01_scrambled.png,9,happy,10,female,4,,349,on,2,0.5,0.75,0.5,0.836,3,348,2,1,1,2,2,32,128,164,,,,,,0,73,73,73,,,,,,,,,,,,,,,,,,,,,,,,,,,,,,,,,,,,,,,,,,,,,,,,,,,,,,,,,534.1335176000002,534.6362764999994,534.6362764999994,535.3859372999996,535.3859372999996,535.8914238999996,535.8914238999996,536.7327298999999,536.7327298999999,None,num_4,0.427989400000115,536.7327298999999,None,happy,1,Happy,537.1742690799998,None,None,537.1742690799998,None,,,,,,,,,,,,,,,,,,,,,,,,,,,,,,,,,,,,,,,,,,,,,,,,,,,,,15,001,male,28,450,475,2022_Oct_04_1101,Experiment,2021.1.4,360.45648209764374,
images\S8_M_S_01.png,images\S8_M_S_01_scrambled.png,8,sad,-10,male,3,,526,off,1,0.5,0.75,0.5,0.844,3,525,1,1,1,0,0,0,0,3,,,,,,0,74,74,74,,,,,,,,,,,,,,,,,,,,,,,,,,,,,,,,,,,,,,,,,,,,,,,,,,,,,,,,,537.2575590999995,537.7629784000001,537.7629784000001,538.5127201999994,538.5127201999994,539.0153917999996,539.0153917999996,539.8623499999994,539.8623499999994,None,num_4,0.32220820000020467,539.8623499999994,None,happy,1,Sad,540.1927610399996,None,None,540.1927610399996,None,,,,,,,,,,,,,,,,,,,,,,,,,,,,,,,,,,,,,,,,,,,,,,,,,,,,,15,001,male,28,450,475,2022_Oct_04_1101,Experiment,2021.1.4,360.45648209764374,
images\S3_F_S_02.png,images\S3_F_S_02_scrambled.png,3,sad,-20,female,2,,137,off,1,0.5,0.75,0.5,0.917,3,136,2,1,1,0,0,0,0,2,,,,,,0,75,75,75,,,,,,,,,,,,,,,,,,,,,,,,,,,,,,,,,,,,,,,,,,,,,,,,,,,,,,,,,540.2399672000001,540.7426317,540.7426317,541.4923645999997,541.4923645999997,541.9978076999996,541.9978076999996,542.9169628,542.9169628,None,num_6,0.6752864999998565,542.9169628,None,sad,1,Sad,543.6028546799995,None,None,543.6028546799995,None,,,,,,,,,,,,,,,,,,,,,,,,,,,,,,,,,,,,,,,,,,,,,,,,,,,,,15,001,male,28,450,475,2022_Oct_04_1101,Experiment,2021.1.4,360.45648209764374,
images\S6_M_S_01.png,images\S6_M_S_01_scrambled.png,6,sad,-10,male,3,,274,off,1,0.5,0.75,0.5,0.925,3,273,3,1,1,0,0,0,0,3,,,,,,0,76,76,76,,,,,,,,,,,,,,,,,,,,,,,,,,,,,,,,,,,,,,,,,,,,,,,,,,,,,,,,,543.6500320999994,544.1526816999994,544.1526816999994,544.9080076,544.9080076,545.4134032000002,545.4134032000002,546.3410106000001,546.3410106000001,None,num_6,0.6033775000005335,546.3410106000001,None,sad,1,Sad,546.9546129799998,None,None,546.9546129799998,None,,,,,,,,,,,,,,,,,,,,,,,,,,,,,,,,,,,,,,,,,,,,,,,,,,,,,15,001,male,28,450,475,2022_Oct_04_1101,Experiment,2021.1.4,360.45648209764374,
images\S10_M_S_03.png,images\S10_M_S_03_scrambled.png,10,sad,-30,male,1,,360,on,2,0.5,0.75,0.5,0.907,3,359,1,1,1,2,2,32,128,161,,,,,,0,77,77,77,,,,,,,,,,,,,,,,,,,,,,,,,,,,,,,,,,,,,,,,,,,,,,,,,,,,,,,,,547.0017772000001,547.5072154,547.5072154,548.2597220999996,548.2597220999996,548.7623918999998,548.7623918999998,549.6761024999996,549.6761024999996,None,num_6,0.23634749999928317,549.6761024999996,None,sad,1,Sad,549.92587358,None,None,549.92587358,None,,,,,,,,,,,,,,,,,,,,,,,,,,,,,,,,,,,,,,,,,,,,,,,,,,,,,15,001,male,28,450,475,2022_Oct_04_1101,Experiment,2021.1.4,360.45648209764374,
images\S7_F_H_02.png,images\S7_F_H_02_scrambled.png,7,happy,20,female,5,,218,on,2,0.5,0.75,0.5,0.947,3,217,2,1,1,2,2,32,128,165,,,,,,0,78,78,78,,,,,,,,,,,,,,,,,,,,,,,,,,,,,,,,,,,,,,,,,,,,,,,,,,,,,,,,,549.9730878,550.4757097000002,550.4757097000002,551.2282778999997,551.2282778999997,551.7308842000002,551.7308842000002,552.6778107999999,552.6778107999999,None,num_4,0.3229630999994697,552.6778107999999,None,happy,1,Happy,553.0166164799999,None,None,553.0166164799999,None,,,,,,,,,,,,,,,,,,,,,,,,,,,,,,,,,,,,,,,,,,,,,,,,,,,,,15,001,male,28,450,475,2022_Oct_04_1101,Experiment,2021.1.4,360.45648209764374,
images\S10_M_S_02.png,images\S10_M_S_02_scrambled.png,10,sad,-20,male,2,,179,off,1,0.5,0.75,0.5,0.904,3,178,1,1,1,0,0,0,0,2,,,,,,0,79,79,79,,,,,,,,,,,,,,,,,,,,,,,,,,,,,,,,,,,,,,,,,,,,,,,,,,,,,,,,,553.0638073999999,553.5665369999997,553.5665369999997,554.3162148000001,554.3162148000001,554.8160619,554.8160619,555.7269328000002,555.7269328000002,None,num_4,1.4815950000001976,555.7269328000002,None,happy,1,Sad,557.2180786400002,None,None,557.2180786400002,None,,,,,,,,,,,,,,,,,,,,,,,,,,,,,,,,,,,,,,,,,,,,,,,,,,,,,15,001,male,28,450,475,2022_Oct_04_1101,Experiment,2021.1.4,360.45648209764374,
images\S2_M_S_02.png,images\S2_M_S_02_scrambled.png,2,sad,-20,male,2,,11,off,1,0.5,0.75,0.5,0.827,3,10,2,1,2,0,0,0,0,2,,,,,,0,80,80,80,,,,,,,,,,,,,,,,,,,,,,,,,,,,,,,,,,,,,,,,,,,,,,,,,,,,,,,,,557.2652855999995,557.7679447,557.7679447,558.5204893999999,558.5204893999999,559.0231105000003,559.0231105000003,559.8506023999998,559.8506023999998,None,num_6,0.4701984999992419,559.8506023999998,None,sad,1,Sad,560.3422044600003,None,None,560.3422044600003,None,,,,,,,,,,,,,,,,,,,,,,,,,,,,,,,,,,,,,,,,,,,,,,,,,,,,,15,001,male,28,450,475,2022_Oct_04_1101,Experiment,2021.1.4,360.45648209764374,
images\blank.jpg,images\blank.jpg,none,none,none,none,0,,649,on,2,0.5,0.75,0.5,0.814,0,648,1,1,1,3,3,48,192,240,,,,,,0,81,81,81,,,,,,,,,,,,,,,,,,,,,,,,,,,,,,,,,,,,,,,,,,,,,,,,,,,,,,,,,560.4284394999995,560.9309794999999,560.9309794999999,561.6806279000002,561.6806279000002,562.1804416999994,562.1804416999994,562.9940974000001,562.9940974000001,562.9940974000001,None,,562.9940974000001,None,miss,1,,565.9960356399995,None,None,565.9960356399995,None,,,,,,,,,,,,,,,,,,,,,,,,,,,,,,,,,,,,,,,,,,,,,,,,,,,,,15,001,male,28,450,475,2022_Oct_04_1101,Experiment,2021.1.4,360.45648209764374,
images\S10_M_H_03.png,images\S10_M_H_03_scrambled.png,10,happy,30,male,6,,357,on,2,0.5,0.75,0.5,0.835,3,356,2,1,1,2,2,32,128,166,,,,,,0,82,82,82,,,,,,,,,,,,,,,,,,,,,,,,,,,,,,,,,,,,,,,,,,,,,,,,,,,,,,,,,566.1182037999997,566.6235479999996,566.6235479999996,567.3760964000003,567.3760964000003,567.8815890999995,567.8815890999995,568.7229066999998,568.7229066999998,None,num_4,0.3174522999997862,568.7229066999998,566.1182037999997,happy,1,Happy,569.0561282799996,None,None,569.0561282799996,None,,,,,,,,,,,,,,,,,,,,,,,,,,,,,,,,,,,,,,,,,,,,,,,,,,,,,15,001,male,28,450,475,2022_Oct_04_1101,Experiment,2021.1.4,360.45648209764374,
images\S3_F_S_02.png,images\S3_F_S_02_scrambled.png,3,sad,-20,female,2,,257,off,1,0.5,0.75,0.5,0.793,3,256,1,1,1,0,0,0,0,2,,,,,,0,83,83,83,,,,,,,,,,,,,,,,,,,,,,,,,,,,,,,,,,,,,,,,,,,,,,,,,,,,,,,,,569.1033241999994,569.6087311000001,569.6087311000001,570.3640534999995,570.3640534999995,570.8667487000002,570.8667487000002,571.6636590999997,571.6636590999997,None,num_4,0.29697140000007494,571.6636590999997,None,happy,1,Sad,571.9663624399998,None,None,571.9663624399998,None,,,,,,,,,,,,,,,,,,,,,,,,,,,,,,,,,,,,,,,,,,,,,,,,,,,,,15,001,male,28,450,475,2022_Oct_04_1101,Experiment,2021.1.4,360.45648209764374,
images\S8_M_H_02.png,images\S8_M_H_02_scrambled.png,8,happy,20,male,5,,284,off,1,0.5,0.75,0.5,0.887,3,283,2,1,1,0,0,0,0,5,,,,,,0,84,84,84,,,,,,,,,,,,,,,,,,,,,,,,,,,,,,,,,,,,,,,,,,,,,,,,,,,,,,,,,572.0135347999994,572.5189519999994,572.5189519999994,573.2686922000003,573.2686922000003,573.7714588999997,573.7714588999997,574.6599311,574.6599311,None,num_4,0.22892380000030244,574.6599311,None,happy,1,Happy,574.9155583599996,None,None,574.9155583599996,None,,,,,,,,,,,,,,,,,,,,,,,,,,,,,,,,,,,,,,,,,,,,,,,,,,,,,15,001,male,28,450,475,2022_Oct_04_1101,Experiment,2021.1.4,360.45648209764374,
images\S10_M_H_01.png,images\S10_M_H_01_scrambled.png,10,happy,10,male,4,,175,off,1,0.5,0.75,0.5,0.916,3,174,3,1,1,0,0,0,0,4,,,,,,0,85,85,85,,,,,,,,,,,,,,,,,,,,,,,,,,,,,,,,,,,,,,,,,,,,,,,,,,,,,,,,,575.0237090999999,575.5263605999999,575.5263605999999,576.2788891999999,576.2788891999999,576.7816179000001,576.7816179000001,577.7008128999996,577.7008128999996,None,num_4,0.21159410000018397,577.7008128999996,None,happy,1,Happy,577.9228490800002,None,None,577.9228490800002,None,,,,,,,,,,,,,,,,,,,,,,,,,,,,,,,,,,,,,,,,,,,,,,,,,,,,,15,001,male,28,450,475,2022_Oct_04_1101,Experiment,2021.1.4,360.45648209764374,
images\S6_M_S_03.png,images\S6_M_S_03_scrambled.png,6,sad,-30,male,1,,576,on,2,0.5,0.75,0.5,0.783,3,575,1,1,1,2,2,32,128,161,,,,,,0,86,86,86,,,,,,,,,,,,,,,,,,,,,,,,,,,,,,,,,,,,,,,,,,,,,,,,,,,,,,,,,577.9700425999999,578.4726750999998,578.4726750999998,579.2252074999997,579.2252074999997,579.7250887999999,579.7250887999999,580.5110388000003,580.5110388000003,None,num_6,0.3294039000002158,580.5110388000003,None,sad,1,Sad,580.8525144800002,None,None,580.8525144800002,None,,,,,,,,,,,,,,,,,,,,,,,,,,,,,,,,,,,,,,,,,,,,,,,,,,,,,15,001,male,28,450,475,2022_Oct_04_1101,Experiment,2021.1.4,360.45648209764374,
images\S8_M_H_03.png,images\S8_M_H_03_scrambled.png,8,happy,30,male,6,,465,on,2,0.5,0.75,0.5,0.876,3,464,2,1,1,2,2,32,128,166,,,,,,0,87,87,87,,,,,,,,,,,,,,,,,,,,,,,,,,,,,,,,,,,,,,,,,,,,,,,,,,,,,,,,,580.9357902000002,581.4384308999997,581.4384308999997,582.1911036000001,582.1911036000001,582.6935979,582.6935979,583.5711052999995,583.5711052999995,None,num_4,0.2774477000002662,583.5711052999995,None,happy,1,Happy,583.8599112799999,None,None,583.8599112799999,None,,,,,,,,,,,,,,,,,,,,,,,,,,,,,,,,,,,,,,,,,,,,,,,,,,,,,15,001,male,28,450,475,2022_Oct_04_1101,Experiment,2021.1.4,360.45648209764374,
images\S6_M_S_03.png,images\S6_M_S_03_scrambled.png,6,sad,-30,male,1,,456,on,2,0.5,0.75,0.5,0.793,3,455,3,1,1,2,2,32,128,161,,,,,,0,88,88,88,,,,,,,,,,,,,,,,,,,,,,,,,,,,,,,,,,,,,,,,,,,,,,,,,,,,,,,,,583.9071001000002,584.4125380999994,584.4125380999994,585.1650801999995,585.1650801999995,585.6676988999998,585.6676988999998,586.4674638999995,586.4674638999995,None,num_6,0.3254670999995142,586.4674638999995,None,sad,1,Sad,586.8175008800005,None,None,586.8175008800005,None,,,,,,,,,,,,,,,,,,,,,,,,,,,,,,,,,,,,,,,,,,,,,,,,,,,,,15,001,male,28,450,475,2022_Oct_04_1101,Experiment,2021.1.4,360.45648209764374,
images\S6_M_S_01.png,images\S6_M_S_01_scrambled.png,6,sad,-10,male,3,,214,on,2,0.5,0.75,0.5,0.949,3,213,4,2,1,2,2,32,128,163,,,,,,0,89,89,89,,,,,,,,,,,,,,,,,,,,,,,,,,,,,,,,,,,,,,,,,,,,,,,,,,,,,,,,,586.8728443999998,587.3782707999999,587.3782707999999,588.1336191,588.1336191,588.6363357999999,588.6363357999999,589.5887029999994,589.5887029999994,None,num_6,0.1640449999995326,589.5887029999994,None,sad,1,Sad,589.7776458800005,None,None,589.7776458800005,None,,,,,,,,,,,,,,,,,,,,,,,,,,,,,,,,,,,,,,,,,,,,,,,,,,,,,15,001,male,28,450,475,2022_Oct_04_1101,Experiment,2021.1.4,360.45648209764374,
images\S7_F_S_02.png,images\S7_F_S_02_scrambled.png,7,sad,-20,female,2,,161,off,1,0.5,0.75,0.5,0.93,3,160,1,1,1,0,0,0,0,2,,,,,,0,90,90,90,,,,,,,,,,,,,,,,,,,,,,,,,,,,,,,,,,,,,,,,,,,,,,,,,,,,,,,,,589.8330389000002,590.3356656999995,590.3356656999995,591.0882421999995,591.0882421999995,591.5909818999999,591.5909818999999,592.5267638999994,592.5267638999994,None,num_4,0.43397990000084974,592.5267638999994,None,happy,1,Sad,592.9709855399994,None,None,592.9709855399994,None,,,,,,,,,,,,,,,,,,,,,,,,,,,,,,,,,,,,,,,,,,,,,,,,,,,,,15,001,male,28,450,475,2022_Oct_04_1101,Experiment,2021.1.4,360.45648209764374,
images\S8_M_S_02.png,images\S8_M_S_02_scrambled.png,8,sad,-20,male,2,,287,off,1,0.5,0.75,0.5,0.854,3,286,2,1,2,0,0,0,0,2,,,,,,0,91,91,91,,,,,,,,,,,,,,,,,,,,,,,,,,,,,,,,,,,,,,,,,,,,,,,,,,,,,,,,,593.0542839999998,593.5569146999997,593.5569146999997,594.3094997999997,594.3094997999997,594.8121240999999,594.8121240999999,595.6729565999995,595.6729565999995,None,num_4,0.4556968000006236,595.6729565999995,None,happy,1,Sad,596.1366769399999,None,None,596.1366769399999,None,,,,,,,,,,,,,,,,,,,,,,,,,,,,,,,,,,,,,,,,,,,,,,,,,,,,,15,001,male,28,450,475,2022_Oct_04_1101,Experiment,2021.1.4,360.45648209764374,
images\S6_M_S_01.png,images\S6_M_S_01_scrambled.png,6,sad,-10,male,3,,394,off,1,0.5,0.75,0.5,0.767,3,393,3,1,1,0,0,0,0,3,,,,,,0,92,92,92,,,,,,,,,,,,,,,,,,,,,,,,,,,,,,,,,,,,,,,,,,,,,,,,,,,,,,,,,596.183884,596.6837312999996,596.6837312999996,597.4363504000003,597.4363504000003,597.9417424000003,597.9417424000003,598.7136762,598.7136762,None,num_4,0.2394040999997742,598.7136762,None,happy,1,Sad,598.9635881599999,None,None,598.9635881599999,None,,,,,,,,,,,,,,,,,,,,,,,,,,,,,,,,,,,,,,,,,,,,,,,,,,,,,15,001,male,28,450,475,2022_Oct_04_1101,Experiment,2021.1.4,360.45648209764374,
images\S1_F_H_03.png,images\S1_F_H_03_scrambled.png,1,happy,30,female,6,,363,off,1,0.5,0.75,0.5,0.766,3,362,4,1,1,0,0,0,0,6,,,,,,0,93,93,93,,,,,,,,,,,,,,,,,,,,,,,,,,,,,,,,,,,,,,,,,,,,,,,,,,,,,,,,,599.0218966000002,599.5245280999998,599.5245280999998,600.2770716999994,600.2770716999994,600.7825038000001,600.7825038000001,601.5517055,601.5517055,None,num_4,0.28083329999935813,601.5517055,None,happy,1,Happy,601.8516675200002,None,None,601.8516675200002,None,,,,,,,,,,,,,,,,,,,,,,,,,,,,,,,,,,,,,,,,,,,,,,,,,,,,,15,001,male,28,450,475,2022_Oct_04_1101,Experiment,2021.1.4,360.45648209764374,
images\S3_F_S_03.png,images\S3_F_S_03_scrambled.png,3,sad,-30,female,1,,438,on,2,0.5,0.75,0.5,0.766,3,437,1,1,1,2,2,32,128,161,,,,,,0,94,94,94,,,,,,,,,,,,,,,,,,,,,,,,,,,,,,,,,,,,,,,,,,,,,,,,,,,,,,,,,601.8987890999997,602.3986294999995,602.3986294999995,603.1512052999997,603.1512052999997,603.6510571999997,603.6510571999997,604.4230416999999,604.4230416999999,None,num_6,0.5214166000005207,604.4230416999999,None,sad,1,Sad,604.9728762000004,None,None,604.9728762000004,None,,,,,,,,,,,,,,,,,,,,,,,,,,,,,,,,,,,,,,,,,,,,,,,,,,,,,15,001,male,28,450,475,2022_Oct_04_1101,Experiment,2021.1.4,360.45648209764374,
images\S3_F_S_03.png,images\S3_F_S_03_scrambled.png,3,sad,-30,female,1,,258,off,1,0.5,0.75,0.5,0.793,3,257,1,2,2,0,0,0,0,1,,,,,,0,95,95,95,,,,,,,,,,,,,,,,,,,,,,,,,,,,,,,,,,,,,,,,,,,,,,,,,,,,,,,,,605.0283824999997,605.5311544999995,605.5311544999995,606.2807696999998,606.2807696999998,606.7806248999996,606.7806248999996,607.5748290000001,607.5748290000001,None,num_6,0.5138010999999096,607.5748290000001,None,sad,1,Sad,608.0997779799997,None,None,608.0997779799997,None,,,,,,,,,,,,,,,,,,,,,,,,,,,,,,,,,,,,,,,,,,,,,,,,,,,,,15,001,male,28,450,475,2022_Oct_04_1101,Experiment,2021.1.4,360.45648209764374,
images\S8_M_H_03.png,images\S8_M_H_03_scrambled.png,8,happy,30,male,6,,105,on,2,0.5,0.75,0.5,0.948,3,104,1,1,1,2,2,32,128,166,,,,,,0,96,96,96,,,,,,,,,,,,,,,,,,,,,,,,,,,,,,,,,,,,,,,,,,,,,,,,,,,,,,,,,608.1468661999997,608.6523097999998,608.6523097999998,609.4020352999996,609.4020352999996,609.9046983999997,609.9046983999997,610.8572003999998,610.8572003999998,None,num_4,0.3433849000002738,610.8572003999998,None,happy,1,Happy,611.2126156800001,None,None,611.2126156800001,None,,,,,,,,,,,,,,,,,,,,,,,,,,,,,,,,,,,,,,,,,,,,,,,,,,,,,15,001,male,28,450,475,2022_Oct_04_1101,Experiment,2021.1.4,360.45648209764374,
images\S10_M_S_01.png,images\S10_M_S_01_scrambled.png,10,sad,-10,male,3,,538,off,1,0.5,0.75,0.5,0.823,3,537,1,1,1,0,0,0,0,3,,,,,,0,97,97,97,,,,,,,,,,,,,,,,,,,,,,,,,,,,,,,,,,,,,,,,,,,,,,,,,,,,,,,,,611.2570157999999,611.7624487000003,611.7624487000003,612.5177736999995,612.5177736999995,613.0175874999995,613.0175874999995,613.8423377999998,613.8423377999998,None,num_4,0.31815199999982724,613.8423377999998,None,happy,1,Sad,614.1672903400001,None,None,614.1672903400001,None,,,,,,,,,,,,,,,,,,,,,,,,,,,,,,,,,,,,,,,,,,,,,,,,,,,,,15,001,male,28,450,475,2022_Oct_04_1101,Experiment,2021.1.4,360.45648209764374,
images\S7_F_H_02.png,images\S7_F_H_02_scrambled.png,7,happy,20,female,5,,278,off,1,0.5,0.75,0.5,0.941,3,277,2,1,1,0,0,0,0,5,,,,,,0,98,98,98,,,,,,,,,,,,,,,,,,,,,,,,,,,,,,,,,,,,,,,,,,,,,,,,,,,,,,,,,614.2228825000002,614.7226258000001,614.7226258000001,615.4751676999995,615.4751676999995,615.9750274999997,615.9750274999997,616.9191841000002,616.9191841000002,None,num_4,0.28926379999938945,616.9191841000002,None,happy,1,Happy,617.2190891799997,None,None,617.2190891799997,None,,,,,,,,,,,,,,,,,,,,,,,,,,,,,,,,,,,,,,,,,,,,,,,,,,,,,15,001,male,28,450,475,2022_Oct_04_1101,Experiment,2021.1.4,360.45648209764374,
images\S6_M_H_02.png,images\S6_M_H_02_scrambled.png,6,happy,20,male,5,,392,off,1,0.5,0.75,0.5,0.917,3,391,3,1,2,0,0,0,0,5,,,,,,0,99,99,99,,,,,,,,,,,,,,,,,,,,,,,,,,,,,,,,,,,,,,,,,,,,,,,,,,,,,,,,,617.3273761999999,617.8328038,617.8328038,618.5853613999998,618.5853613999998,619.0852077,619.0852077,620.0071514000001,620.0071514000001,None,num_4,0.249604100000397,620.0071514000001,None,happy,1,Happy,620.27093338,None,None,620.27093338,None,,,,,,,,,,,,,,,,,,,,,,,,,,,,,,,,,,,,,,,,,,,,,,,,,,,,,15,001,male,28,450,475,2022_Oct_04_1101,Experiment,2021.1.4,360.45648209764374,
images\S9_F_H_01.png,images\S9_F_H_01_scrambled.png,9,happy,10,female,4,,109,on,2,0.5,0.75,0.5,0.916,3,108,1,1,1,2,2,32,128,164,,,,,,0,100,100,100,,,,,,,,,,,,,,,,,,,,,,,,,,,,,,,,,,,,,,,,,,,,,,,,,,,,,,,,,620.3181232999996,620.8235417999995,620.8235417999995,621.5762119999999,621.5762119999999,622.0815640000001,622.0815640000001,623.0007810999996,623.0007810999996,None,num_4,0.4876201000006404,623.0007810999996,None,happy,1,Happy,623.5143938799998,None,None,623.5143938799998,None,,,,,,,,,,,,,,,,,,,,,,,,,,,,,,,,,,,,,,,,,,,,,,,,,,,,,15,001,male,28,450,475,2022_Oct_04_1101,Experiment,2021.1.4,360.45648209764374,
images\S9_F_S_03.png,images\S9_F_S_03_scrambled.png,9,sad,-30,female,1,,174,off,1,0.5,0.75,0.5,0.813,3,173,1,2,1,0,0,0,0,1,,,,,,0,101,101,101,,,,,,,,,,,,,,,,,,,,,,,,,,,,,,,,,,,,,,,,,,,,,,,,,,,,,,,,,623.5671431999999,624.0669784000002,624.0669784000002,624.8167363000002,624.8167363000002,625.3221991,625.3221991,626.1414580000001,626.1414580000001,None,num_6,0.5790769999994154,626.1414580000001,None,sad,1,Sad,626.7355837800002,None,None,626.7355837800002,None,,,,,,,,,,,,,,,,,,,,,,,,,,,,,,,,,,,,,,,,,,,,,,,,,,,,,15,001,male,28,450,475,2022_Oct_04_1101,Experiment,2021.1.4,360.45648209764374,
images\S9_F_S_02.png,images\S9_F_S_02_scrambled.png,9,sad,-20,female,2,,53,off,1,0.5,0.75,0.5,0.871,3,52,2,3,1,0,0,0,0,2,,,,,,0,102,102,102,,,,,,,,,,,,,,,,,,,,,,,,,,,,,,,,,,,,,,,,,,,,,,,,,,,,,,,,,626.8189204999999,627.3215395999996,627.3215395999996,628.0768866999997,628.0768866999997,628.5822957,628.5822957,629.4570277000003,629.4570277000003,None,num_4,0.2875262000006842,629.4570277000003,None,happy,1,Sad,629.7541179599995,None,None,629.7541179599995,None,,,,,,,,,,,,,,,,,,,,,,,,,,,,,,,,,,,,,,,,,,,,,,,,,,,,,15,001,male,28,450,475,2022_Oct_04_1101,Experiment,2021.1.4,360.45648209764374,
images\S4_M_S_02.png,images\S4_M_S_02_scrambled.png,4,sad,-20,male,2,,83,on,2,0.5,0.75,0.5,0.842,3,82,1,1,2,2,2,32,128,162,,,,,,0,103,103,103,,,,,,,,,,,,,,,,,,,,,,,,,,,,,,,,,,,,,,,,,,,,,,,,,,,,,,,,,629.8124302999995,630.3151877999999,630.3151877999999,631.0676414999998,631.0676414999998,631.5730236999998,631.5730236999998,632.417238,632.417238,None,num_6,1.8634102999994866,632.417238,None,sad,1,Sad,634.2944265800003,None,None,634.2944265800003,None,,,,,,,,,,,,,,,,,,,,,,,,,,,,,,,,,,,,,,,,,,,,,,,,,,,,,15,001,male,28,450,475,2022_Oct_04_1101,Experiment,2021.1.4,360.45648209764374,
images\S2_M_S_01.png,images\S2_M_S_01_scrambled.png,2,sad,-10,male,3,,430,on,2,0.5,0.75,0.5,0.928,3,429,2,1,1,2,2,32,128,163,,,,,,0,104,104,104,,,,,,,,,,,,,,,,,,,,,,,,,,,,,,,,,,,,,,,,,,,,,,,,,,,,,,,,,634.3415937,634.8442263999996,634.8442263999996,635.5967535999998,635.5967535999998,636.0994369999999,636.0994369999999,637.0268813000002,637.0268813000002,None,num_4,0.35770940000020346,637.0268813000002,None,happy,1,Sad,637.3934814399997,None,None,637.3934814399997,None,,,,,,,,,,,,,,,,,,,,,,,,,,,,,,,,,,,,,,,,,,,,,,,,,,,,,15,001,male,28,450,475,2022_Oct_04_1101,Experiment,2021.1.4,360.45648209764374,
images\S2_M_S_01.png,images\S2_M_S_01_scrambled.png,2,sad,-10,male,3,,250,off,1,0.5,0.75,0.5,0.778,3,249,1,2,2,0,0,0,0,3,,,,,,0,105,105,105,,,,,,,,,,,,,,,,,,,,,,,,,,,,,,,,,,,,,,,,,,,,,,,,,,,,,,,,,637.4461917999997,637.9516813,637.9516813,638.7013864,638.7013864,639.2039815999997,639.2039815999997,639.9871324999995,639.9871324999995,None,num_4,0.38130309999996825,639.9871324999995,None,happy,1,Sad,640.3786031599994,None,None,640.3786031599994,None,,,,,,,,,,,,,,,,,,,,,,,,,,,,,,,,,,,,,,,,,,,,,,,,,,,,,15,001,male,28,450,475,2022_Oct_04_1101,Experiment,2021.1.4,360.45648209764374,
images\S1_F_H_01.png,images\S1_F_H_01_scrambled.png,1,happy,10,female,4,,121,off,1,0.5,0.75,0.5,0.816,3,120,2,1,1,0,0,0,0,4,,,,,,0,106,106,106,,,,,,,,,,,,,,,,,,,,,,,,,,,,,,,,,,,,,,,,,,,,,,,,,,,,,,,,,640.4480586999998,640.950793,640.950793,641.7004363999995,641.7004363999995,642.2002852999995,642.2002852999995,643.0222954000001,643.0222954000001,None,num_4,0.23410800000056042,643.0222954000001,None,happy,1,Happy,643.2805800399999,None,None,643.2805800399999,None,,,,,,,,,,,,,,,,,,,,,,,,,,,,,,,,,,,,,,,,,,,,,,,,,,,,,15,001,male,28,450,475,2022_Oct_04_1101,Experiment,2021.1.4,360.45648209764374,
images\S5_F_S_02.png,images\S5_F_S_02_scrambled.png,5,sad,-20,female,2,,149,off,1,0.5,0.75,0.5,0.924,3,148,3,1,1,0,0,0,0,2,,,,,,0,107,107,107,,,,,,,,,,,,,,,,,,,,,,,,,,,,,,,,,,,,,,,,,,,,,,,,,,,,,,,,,643.3443775999995,643.8470065000001,643.8470065000001,644.5967767000002,644.5967767000002,645.1022082,645.1022082,646.0324794999997,646.0324794999997,None,num_4,0.27190929999960645,646.0324794999997,None,happy,1,Sad,646.31288724,None,None,646.31288724,None,,,,,,,,,,,,,,,,,,,,,,,,,,,,,,,,,,,,,,,,,,,,,,,,,,,,,15,001,male,28,450,475,2022_Oct_04_1101,Experiment,2021.1.4,360.45648209764374,
images\S7_F_H_03.png,images\S7_F_H_03_scrambled.png,7,happy,30,female,6,,579,on,2,0.5,0.75,0.5,0.814,3,578,1,1,1,2,2,32,128,166,,,,,,0,108,108,108,,,,,,,,,,,,,,,,,,,,,,,,,,,,,,,,,,,,,,,,,,,,,,,,,,,,,,,,,646.3601159,646.8656480999998,646.8656480999998,647.6153239999994,647.6153239999994,648.1179073000003,648.1179073000003,648.9315595999997,648.9315595999997,None,num_4,0.3731305000001157,648.9315595999997,None,happy,1,Happy,649.3315647600003,None,None,649.3315647600003,None,,,,,,,,,,,,,,,,,,,,,,,,,,,,,,,,,,,,,,,,,,,,,,,,,,,,,15,001,male,28,450,475,2022_Oct_04_1101,Experiment,2021.1.4,360.45648209764374,
images\S9_F_H_03.png,images\S9_F_H_03_scrambled.png,9,happy,30,female,6,,231,on,2,0.5,0.75,0.5,0.763,3,230,2,1,2,2,2,32,128,166,,,,,,0,109,109,109,,,,,,,,,,,,,,,,,,,,,,,,,,,,,,,,,,,,,,,,,,,,,,,,,,,,,,,,,649.3841894999996,649.8895965000002,649.8895965000002,650.6393992000003,650.6393992000003,651.1419797999997,651.1419797999997,651.9056284999997,651.9056284999997,None,num_4,0.2396112999995239,651.9056284999997,None,happy,1,Happy,652.1695553400002,None,None,652.1695553400002,None,,,,,,,,,,,,,,,,,,,,,,,,,,,,,,,,,,,,,,,,,,,,,,,,,,,,,15,001,male,28,450,475,2022_Oct_04_1101,Experiment,2021.1.4,360.45648209764374,
images\S7_F_H_01.png,images\S7_F_H_01_scrambled.png,7,happy,10,female,4,,397,off,1,0.5,0.75,0.5,0.769,3,396,1,1,1,0,0,0,0,4,,,,,,0,110,110,110,,,,,,,,,,,,,,,,,,,,,,,,,,,,,,,,,,,,,,,,,,,,,,,,,,,,,,,,,652.2777435999997,652.7831755999996,652.7831755999996,653.5356794999998,653.5356794999998,654.0383443000001,654.0383443000001,654.8103396999995,654.8103396999995,None,num_4,0.286176699999487,654.8103396999995,None,happy,1,Happy,655.1102077800002,None,None,655.1102077800002,None,,,,,,,,,,,,,,,,,,,,,,,,,,,,,,,,,,,,,,,,,,,,,,,,,,,,,15,001,male,28,450,475,2022_Oct_04_1101,Experiment,2021.1.4,360.45648209764374,
images\S6_M_H_02.png,images\S6_M_H_02_scrambled.png,6,happy,20,male,5,,572,on,2,0.5,0.75,0.5,0.794,3,571,1,1,1,2,2,32,128,165,,,,,,0,111,111,111,,,,,,,,,,,,,,,,,,,,,,,,,,,,,,,,,,,,,,,,,,,,,,,,,,,,,,,,,655.1574085000002,655.6600361000001,655.6600361000001,656.4126169000001,656.4126169000001,656.9180074999995,656.9180074999995,657.7177651000002,657.7177651000002,None,num_4,0.31489759999931266,657.7177651000002,None,happy,1,Happy,658.0427971799996,None,None,658.0427971799996,None,,,,,,,,,,,,,,,,,,,,,,,,,,,,,,,,,,,,,,,,,,,,,,,,,,,,,15,001,male,28,450,475,2022_Oct_04_1101,Experiment,2021.1.4,360.45648209764374,
images\S3_F_H_02.png,images\S3_F_H_02_scrambled.png,3,happy,20,female,5,,434,on,2,0.5,0.75,0.5,0.897,3,433,2,1,2,2,2,32,128,165,,,,,,0,112,112,112,,,,,,,,,,,,,,,,,,,,,,,,,,,,,,,,,,,,,,,,,,,,,,,,,,,,,,,,,658.0898465999999,658.5925075999994,658.5925075999994,659.3450209000002,659.3450209000002,659.8476724000002,659.8476724000002,660.7473998999994,660.7473998999994,None,num_4,0.4772382999999536,660.7473998999994,None,happy,1,Happy,661.2445149399998,None,None,661.2445149399998,None,,,,,,,,,,,,,,,,,,,,,,,,,,,,,,,,,,,,,,,,,,,,,,,,,,,,,15,001,male,28,450,475,2022_Oct_04_1101,Experiment,2021.1.4,360.45648209764374,
images\S7_F_H_01.png,images\S7_F_H_01_scrambled.png,7,happy,10,female,4,,37,off,1,0.5,0.75,0.5,0.851,3,36,1,1,1,0,0,0,0,4,,,,,,0,113,113,113,,,,,,,,,,,,,,,,,,,,,,,,,,,,,,,,,,,,,,,,,,,,,,,,,,,,,,,,,661.2944134999998,661.7970814,661.7970814,662.5496273999997,662.5496273999997,663.0522484000003,663.0522484000003,663.9047064999995,663.9047064999995,None,num_4,0.40777390000039304,663.9047064999995,None,happy,1,Happy,664.3351750399995,None,None,664.3351750399995,None,,,,,,,,,,,,,,,,,,,,,,,,,,,,,,,,,,,,,,,,,,,,,,,,,,,,,15,001,male,28,450,475,2022_Oct_04_1101,Experiment,2021.1.4,360.45648209764374,
images\S4_M_S_03.png,images\S4_M_S_03_scrambled.png,4,sad,-30,male,1,,84,on,2,0.5,0.75,0.5,0.9,3,83,1,1,1,2,2,32,128,161,,,,,,0,114,114,114,,,,,,,,,,,,,,,,,,,,,,,,,,,,,,,,,,,,,,,,,,,,,,,,,,,,,,,,,664.4434503000002,664.9460640999996,664.9460640999996,665.6986329000001,665.6986329000001,666.2013645999996,666.2013645999996,667.1065926000001,667.1065926000001,None,num_6,0.3103124999997817,667.1065926000001,None,sad,1,Sad,667.4398439600001,None,None,667.4398439600001,None,,,,,,,,,,,,,,,,,,,,,,,,,,,,,,,,,,,,,,,,,,,,,,,,,,,,,15,001,male,28,450,475,2022_Oct_04_1101,Experiment,2021.1.4,360.45648209764374,
images\S8_M_S_02.png,images\S8_M_S_02_scrambled.png,8,sad,-20,male,2,,167,off,1,0.5,0.75,0.5,0.855,3,166,1,1,1,0,0,0,0,2,,,,,,0,115,115,115,,,,,,,,,,,,,,,,,,,,,,,,,,,,,,,,,,,,,,,,,,,,,,,,,,,,,,,,,667.4925100999999,667.9923514000002,667.9923514000002,668.7477055999998,668.7477055999998,669.2531065000003,669.2531065000003,670.111253,670.111253,None,num_6,0.417279199999939,670.111253,None,sad,1,Sad,670.5388198799998,None,None,670.5388198799998,None,,,,,,,,,,,,,,,,,,,,,,,,,,,,,,,,,,,,,,,,,,,,,,,,,,,,,15,001,male,28,450,475,2022_Oct_04_1101,Experiment,2021.1.4,360.45648209764374,
images\S9_F_S_01.png,images\S9_F_S_01_scrambled.png,9,sad,-10,female,3,,592,on,2,0.5,0.75,0.5,0.804,3,591,1,1,1,2,2,32,128,163,,,,,,0,116,116,116,,,,,,,,,,,,,,,,,,,,,,,,,,,,,,,,,,,,,,,,,,,,,,,,,,,,,,,,,670.5860015999997,671.0914831,671.0914831,671.8439501000003,671.8439501000003,672.3467045999996,672.3467045999996,673.1574712000001,673.1574712000001,None,num_6,0.47526060000018333,673.1574712000001,None,sad,1,Sad,673.64618218,None,None,673.64618218,None,,,,,,,,,,,,,,,,,,,,,,,,,,,,,,,,,,,,,,,,,,,,,,,,,,,,,15,001,male,28,450,475,2022_Oct_04_1101,Experiment,2021.1.4,360.45648209764374,
images\S4_M_H_03.png,images\S4_M_H_03_scrambled.png,4,happy,30,male,6,,141,off,1,0.5,0.75,0.5,0.905,3,140,1,1,1,0,0,0,0,6,,,,,,0,117,117,117,,,,,,,,,,,,,,,,,,,,,,,,,,,,,,,,,,,,,,,,,,,,,,,,,,,,,,,,,673.7349712999994,674.2376856999999,674.2376856999999,674.9902425999999,674.9902425999999,675.4928527000002,675.4928527000002,676.4010259999995,676.4010259999995,None,num_4,0.2795909999995274,676.4010259999995,None,happy,1,Happy,676.6952209799998,None,None,676.6952209799998,None,,,,,,,,,,,,,,,,,,,,,,,,,,,,,,,,,,,,,,,,,,,,,,,,,,,,,15,001,male,28,450,475,2022_Oct_04_1101,Experiment,2021.1.4,360.45648209764374,
images\S7_F_H_01.png,images\S7_F_H_01_scrambled.png,7,happy,10,female,4,,217,on,2,0.5,0.75,0.5,0.829,3,216,1,1,1,2,2,32,128,164,,,,,,0,118,118,118,,,,,,,,,,,,,,,,,,,,,,,,,,,,,,,,,,,,,,,,,,,,,,,,,,,,,,,,,676.7424439999995,677.2422895999998,677.2422895999998,677.9948377000001,677.9948377000001,678.4974946000002,678.4974946000002,679.3333278,679.3333278,None,num_4,0.41107800000008865,679.3333278,None,happy,1,Happy,679.7581714799995,None,None,679.7581714799995,None,,,,,,,,,,,,,,,,,,,,,,,,,,,,,,,,,,,,,,,,,,,,,,,,,,,,,15,001,male,28,450,475,2022_Oct_04_1101,Experiment,2021.1.4,360.45648209764374,
images\S5_F_S_03.png,images\S5_F_S_03_scrambled.png,5,sad,-30,female,1,,90,on,2,0.5,0.75,0.5,0.929,3,89,2,1,1,2,2,32,128,161,,,,,,0,119,119,119,,,,,,,,,,,,,,,,,,,,,,,,,,,,,,,,,,,,,,,,,,,,,,,,,,,,,,,,,679.8053879999998,680.3052455999996,680.3052455999996,681.0578089999999,681.0578089999999,681.5576169999995,681.5576169999995,682.4908282999995,682.4908282999995,None,num_4,0.5098723999999493,682.4908282999995,None,happy,1,Sad,683.0127331599998,None,None,683.0127331599998,None,,,,,,,,,,,,,,,,,,,,,,,,,,,,,,,,,,,,,,,,,,,,,,,,,,,,,15,001,male,28,450,475,2022_Oct_04_1101,Experiment,2021.1.4,360.45648209764374,
images\S10_M_S_02.png,images\S10_M_S_02_scrambled.png,10,sad,-20,male,2,,299,off,1,0.5,0.75,0.5,0.942,3,298,1,1,1,0,0,0,0,2,,,,,,0,120,120,120,,,,,,,,,,,,,,,,,,,,,,,,,,,,,,,,,,,,,,,,,,,,,,,,,,,,,,,,,683.0793739000001,683.5792393000002,683.5792393000002,684.3318145000003,684.3318145000003,684.8372209999998,684.8372209999998,685.7813305999998,685.7813305999998,None,num_4,0.24324060000071768,685.7813305999998,None,happy,1,Sad,686.03695124,None,None,686.03695124,None,,,,,,,,,,,,,,,,,,,,,,,,,,,,,,,,,,,,,,,,,,,,,,,,,,,,,15,001,male,28,450,475,2022_Oct_04_1101,Experiment,2021.1.4,360.45648209764374,
images\S6_M_H_02.png,images\S6_M_H_02_scrambled.png,6,happy,20,male,5,,92,on,2,0.5,0.75,0.5,0.808,3,91,1,1,1,2,2,32,128,165,,,,,,0,121,121,121,,,,,,,,,,,,,,,,,,,,,,,,,,,,,,,,,,,,,,,,,,,,,,,,,,,,,,,,,686.0979851000002,686.6005501,686.6005501,687.3531049000003,687.3531049000003,687.8558355999994,687.8558355999994,688.6666416999997,688.6666416999997,None,num_4,0.3178233000007822,688.6666416999997,None,happy,1,Happy,688.9997936799997,None,None,688.9997936799997,None,,,,,,,,,,,,,,,,,,,,,,,,,,,,,,,,,,,,,,,,,,,,,,,,,,,,,15,001,male,28,450,475,2022_Oct_04_1101,Experiment,2021.1.4,360.45648209764374,
images\S8_M_S_01.png,images\S8_M_S_01_scrambled.png,8,sad,-10,male,3,,466,on,2,0.5,0.75,0.5,0.758,3,465,2,1,1,2,2,32,128,163,,,,,,0,122,122,122,,,,,,,,,,,,,,,,,,,,,,,,,,,,,,,,,,,,,,,,,,,,,,,,,,,,,,,,,689.0469997999999,689.5524278000003,689.5524278000003,690.3049271,690.3049271,690.8076013,690.8076013,691.5713446999998,691.5713446999998,None,num_4,2.2453256999997393,691.5713446999998,None,happy,1,Sad,693.8260800400001,None,None,693.8260800400001,None,,,,,,,,,,,,,,,,,,,,,,,,,,,,,,,,,,,,,,,,,,,,,,,,,,,,,15,001,male,28,450,475,2022_Oct_04_1101,Experiment,2021.1.4,360.45648209764374,
images\S7_F_S_02.png,images\S7_F_S_02_scrambled.png,7,sad,-20,female,2,,221,on,2,0.5,0.75,0.5,0.787,3,220,3,1,1,2,2,32,128,162,,,,,,0,123,123,123,,,,,,,,,,,,,,,,,,,,,,,,,,,,,,,,,,,,,,,,,,,,,,,,,,,,,,,,,693.8732934999998,694.3787037000002,694.3787037000002,695.1312564,695.1312564,695.6338525000001,695.6338525000001,696.4280836999997,696.4280836999997,None,num_6,0.14912850000018807,696.4280836999997,None,sad,1,Sad,696.5920499800001,None,None,696.5920499800001,None,,,,,,,,,,,,,,,,,,,,,,,,,,,,,,,,,,,,,,,,,,,,,,,,,,,,,15,001,male,28,450,475,2022_Oct_04_1101,Experiment,2021.1.4,360.45648209764374,
images\S4_M_H_03.png,images\S4_M_H_03_scrambled.png,4,happy,30,male,6,,201,on,2,0.5,0.75,0.5,0.903,3,200,4,1,1,2,2,32,128,166,,,,,,0,124,124,124,,,,,,,,,,,,,,,,,,,,,,,,,,,,,,,,,,,,,,,,,,,,,,,,,,,,,,,,,696.6418839999997,697.1473224000001,697.1473224000001,697.9026277000003,697.9026277000003,698.4024497,698.4024497,699.3106505999995,699.3106505999995,None,num_4,0.28991639999912877,699.3106505999995,None,happy,1,Happy,699.6104490799995,None,None,699.6104490799995,None,,,,,,,,,,,,,,,,,,,,,,,,,,,,,,,,,,,,,,,,,,,,,,,,,,,,,15,001,male,28,450,475,2022_Oct_04_1101,Experiment,2021.1.4,360.45648209764374,
images\S5_F_S_01.png,images\S5_F_S_01_scrambled.png,5,sad,-10,female,3,,568,on,2,0.5,0.75,0.5,0.801,3,567,5,1,1,2,2,32,128,163,,,,,,0,125,125,125,,,,,,,,,,,,,,,,,,,,,,,,,,,,,,,,,,,,,,,,,,,,,,,,,,,,,,,,,699.6909397999998,700.1907842,700.1907842,700.9405566999994,700.9405566999994,701.4431912,701.4431912,702.2457060999996,702.2457060999996,None,num_4,0.27504399999997986,702.2457060999996,None,happy,1,Sad,702.5317325399999,None,None,702.5317325399999,None,,,,,,,,,,,,,,,,,,,,,,,,,,,,,,,,,,,,,,,,,,,,,,,,,,,,,15,001,male,28,450,475,2022_Oct_04_1101,Experiment,2021.1.4,360.45648209764374,
images\blank.jpg,images\blank.jpg,none,none,none,none,0,,623,on,2,0.5,0.75,0.5,0.822,0,622,6,1,1,3,3,48,192,240,,,,,,0,126,126,126,,,,,,,,,,,,,,,,,,,,,,,,,,,,,,,,,,,,,,,,,,,,,,,,,,,,,,,,,702.6319181999997,703.1371504999997,703.1371504999997,703.8924657999996,703.8924657999996,704.3950870999997,704.3950870999997,705.2198398,705.2198398,705.2198398,None,,705.2198398,None,miss,1,,708.2188947199996,None,None,708.2188947199996,None,,,,,,,,,,,,,,,,,,,,,,,,,,,,,,,,,,,,,,,,,,,,,,,,,,,,,15,001,male,28,450,475,2022_Oct_04_1101,Experiment,2021.1.4,360.45648209764374,
images\S4_M_H_01.png,images\S4_M_H_01_scrambled.png,4,happy,10,male,4,,559,on,2,0.5,0.75,0.5,0.95,3,558,7,1,1,2,2,32,128,164,,,,,,0,127,127,127,,,,,,,,,,,,,,,,,,,,,,,,,,,,,,,,,,,,,,,,,,,,,,,,,,,,,,,,,708.3329094000001,708.8325729999997,708.8325729999997,709.5879255999998,709.5879255999998,710.0933129999994,710.0933129999994,711.0485800999995,711.0485800999995,None,num_6,0.3201000999997632,711.0485800999995,708.3329094000001,sad,1,Happy,711.3735051399997,None,None,711.3735051399997,None,,,,,,,,,,,,,,,,,,,,,,,,,,,,,,,,,,,,,,,,,,,,,,,,,,,,,15,001,male,28,450,475,2022_Oct_04_1101,Experiment,2021.1.4,360.45648209764374,
images\S3_F_S_03.png,images\S3_F_S_03_scrambled.png,3,sad,-30,female,1,,498,off,1,0.5,0.75,0.5,0.798,3,497,1,1,1,0,0,0,0,1,,,,,,0,128,128,128,,,,,,,,,,,,,,,,,,,,,,,,,,,,,,,,,,,,,,,,,,,,,,,,,,,,,,,,,711.4207046000001,711.9205107999996,711.9205107999996,712.6702803999997,712.6702803999997,713.1701652000002,713.1701652000002,713.9726859000002,713.9726859000002,None,num_6,0.3003192999995008,713.9726859000002,None,sad,1,Sad,714.3004698599999,None,None,714.3004698599999,None,,,,,,,,,,,,,,,,,,,,,,,,,,,,,,,,,,,,,,,,,,,,,,,,,,,,,15,001,male,28,450,475,2022_Oct_04_1101,Experiment,2021.1.4,360.45648209764374,
images\S9_F_S_03.png,images\S9_F_S_03_scrambled.png,9,sad,-30,female,1,,594,on,2,0.5,0.75,0.5,0.814,3,593,1,1,2,2,2,32,128,161,,,,,,0,129,129,129,,,,,,,,,,,,,,,,,,,,,,,,,,,,,,,,,,,,,,,,,,,,,,,,,,,,,,,,,714.3530983999999,714.8585225999996,714.8585225999996,715.6111260999996,715.6111260999996,716.1136888999999,716.1136888999999,716.9301243999998,716.9301243999998,None,num_6,0.4465533000002324,716.9301243999998,None,sad,1,Sad,717.3910663800003,None,None,717.3910663800003,None,,,,,,,,,,,,,,,,,,,,,,,,,,,,,,,,,,,,,,,,,,,,,,,,,,,,,15,001,male,28,450,475,2022_Oct_04_1101,Experiment,2021.1.4,360.45648209764374,
images\S10_M_S_01.png,images\S10_M_S_01_scrambled.png,10,sad,-10,male,3,,178,off,1,0.5,0.75,0.5,0.853,3,177,1,1,1,0,0,0,0,3,,,,,,0,130,130,130,,,,,,,,,,,,,,,,,,,,,,,,,,,,,,,,,,,,,,,,,,,,,,,,,,,,,,,,,717.4382636,717.9436774999995,717.9436774999995,718.696226,718.696226,719.1960854999998,719.1960854999998,720.0513640999998,720.0513640999998,None,num_4,0.5172047000005477,720.0513640999998,None,happy,1,Sad,720.5761966999999,None,space,720.5761966999999,None,20.943543999999747,,,,,,,,,,,,,,,,,,,,,,,,,,,,,,,,,,,,,,,,,,,,,,,,,,,,15,001,male,28,450,475,2022_Oct_04_1101,Experiment,2021.1.4,360.45648209764374,
images\S10_M_H_01.png,images\S10_M_H_01_scrambled.png,10,happy,10,male,4,,535,off,1,0.5,0.75,0.5,0.797,3,534,2,2,1,0,0,0,0,4,,,,,,0,131,131,131,,,,,,,,,,,,,,,,,,,,,,,,,,,,,,,,,,,,,,,,,,,,,,,,,,,,,,,,,741.5724805,742.0779327999999,742.0779327999999,742.8332488999995,742.8332488999995,743.3358808000003,743.3358808000003,744.1357590999996,744.1357590999996,None,num_4,0.3291540999998688,744.1357590999996,None,happy,1,Happy,744.4883903400003,None,None,744.4883903400003,None,,,,,,,,,,,,,,,,,,,,,,,,,,,,,,,,,,,,,,,,,,,,,,,,,,,,,15,001,male,28,450,475,2022_Oct_04_1101,Experiment,2021.1.4,360.45648209764374,
images\S8_M_H_01.png,images\S8_M_H_01_scrambled.png,8,happy,10,male,4,,463,on,2,0.5,0.75,0.5,0.805,3,462,1,1,2,2,2,32,128,164,,,,,,0,132,132,132,,,,,,,,,,,,,,,,,,,,,,,,,,,,,,,,,,,,,,,,,,,,,,,,,,,,,,,,,744.5965694999995,745.1020306999999,745.1020306999999,745.8573400999994,745.8573400999994,746.3599230999998,746.3599230999998,747.1680059,747.1680059,None,num_4,1.8166185000000041,747.1680059,None,happy,1,Happy,748.9952706800001,None,None,748.9952706800001,None,,,,,,,,,,,,,,,,,,,,,,,,,,,,,,,,,,,,,,,,,,,,,,,,,,,,,15,001,male,28,450,475,2022_Oct_04_1101,Experiment,2021.1.4,360.45648209764374,
images\S9_F_H_01.png,images\S9_F_H_01_scrambled.png,9,happy,10,female,4,,409,off,1,0.5,0.75,0.5,0.886,3,408,1,1,3,0,0,0,0,4,,,,,,0,133,133,133,,,,,,,,,,,,,,,,,,,,,,,,,,,,,,,,,,,,,,,,,,,,,,,,,,,,,,,,,749.0452080999994,749.5450577000001,749.5450577000001,750.2948258999995,750.2948258999995,750.7974863,750.7974863,751.6888594000002,751.6888594000002,None,num_4,0.3437945999994554,751.6888594000002,None,happy,1,Happy,752.0555049599999,None,None,752.0555049599999,None,,,,,,,,,,,,,,,,,,,,,,,,,,,,,,,,,,,,,,,,,,,,,,,,,,,,,15,001,male,28,450,475,2022_Oct_04_1101,Experiment,2021.1.4,360.45648209764374,
images\S8_M_S_02.png,images\S8_M_S_02_scrambled.png,8,sad,-20,male,2,,107,on,2,0.5,0.75,0.5,0.934,3,106,1,1,1,2,2,32,128,162,,,,,,0,134,134,134,,,,,,,,,,,,,,,,,,,,,,,,,,,,,,,,,,,,,,,,,,,,,,,,,,,,,,,,,752.1081572000003,752.6135724999995,752.6135724999995,753.3661303999997,753.3661303999997,753.8715985999997,753.8715985999997,754.8100990000003,754.8100990000003,None,num_6,0.2864898000007088,754.8100990000003,None,sad,1,Sad,755.1072683799999,None,None,755.1072683799999,None,,,,,,,,,,,,,,,,,,,,,,,,,,,,,,,,,,,,,,,,,,,,,,,,,,,,,15,001,male,28,450,475,2022_Oct_04_1101,Experiment,2021.1.4,360.45648209764374,
images\S5_F_S_03.png,images\S5_F_S_03_scrambled.png,5,sad,-30,female,1,,30,off,1,0.5,0.75,0.5,0.82,3,29,1,1,1,0,0,0,0,1,,,,,,0,135,135,135,,,,,,,,,,,,,,,,,,,,,,,,,,,,,,,,,,,,,,,,,,,,,,,,,,,,,,,,,755.1544414999998,755.6571128999994,755.6571128999994,756.4096191999997,756.4096191999997,756.9094451999999,756.9094451999999,757.7315559999997,757.7315559999997,None,num_4,0.45298949999960314,757.7315559999997,None,happy,1,Sad,758.1896476399995,None,None,758.1896476399995,None,,,,,,,,,,,,,,,,,,,,,,,,,,,,,,,,,,,,,,,,,,,,,,,,,,,,,15,001,male,28,450,475,2022_Oct_04_1101,Experiment,2021.1.4,360.45648209764374,
images\S9_F_S_02.png,images\S9_F_S_02_scrambled.png,9,sad,-20,female,2,,233,on,2,0.5,0.75,0.5,0.853,3,232,1,1,1,2,2,32,128,162,,,,,,0,136,136,136,,,,,,,,,,,,,,,,,,,,,,,,,,,,,,,,,,,,,,,,,,,,,,,,,,,,,,,,,758.2368288999996,758.7366898999999,758.7366898999999,759.4920407,759.4920407,759.9974387000002,759.9974387000002,760.8556165,760.8556165,None,num_4,0.8809805999999298,760.8556165,None,happy,1,Sad,761.7469153399995,None,None,761.7469153399995,None,,,,,,,,,,,,,,,,,,,,,,,,,,,,,,,,,,,,,,,,,,,,,,,,,,,,,15,001,male,28,450,475,2022_Oct_04_1101,Experiment,2021.1.4,360.45648209764374,
images\S8_M_H_01.png,images\S8_M_H_01_scrambled.png,8,happy,10,male,4,,223,on,2,0.5,0.75,0.5,0.864,3,222,2,1,1,2,2,32,128,164,,,,,,0,137,137,137,,,,,,,,,,,,,,,,,,,,,,,,,,,,,,,,,,,,,,,,,,,,,,,,,,,,,,,,,761.8107387999999,762.3161700999999,762.3161700999999,763.0686937999999,763.0686937999999,763.5714487999994,763.5714487999994,764.4405037999995,764.4405037999995,None,num_4,0.4240491000000475,764.4405037999995,None,happy,1,Happy,764.8792244800003,None,None,764.8792244800003,None,,,,,,,,,,,,,,,,,,,,,,,,,,,,,,,,,,,,,,,,,,,,,,,,,,,,,15,001,male,28,450,475,2022_Oct_04_1101,Experiment,2021.1.4,360.45648209764374,
images\S9_F_H_02.png,images\S9_F_H_02_scrambled.png,9,happy,20,female,5,,530,off,1,0.5,0.75,0.5,0.776,3,529,1,1,1,0,0,0,0,5,,,,,,0,138,138,138,,,,,,,,,,,,,,,,,,,,,,,,,,,,,,,,,,,,,,,,,,,,,,,,,,,,,,,,,764.9597701000002,765.4624224999998,765.4624224999998,766.2177357,766.2177357,766.7231339,766.7231339,767.5034444000003,767.5034444000003,None,num_4,0.30509819999952015,767.5034444000003,None,happy,1,Happy,767.82275808,None,None,767.82275808,None,,,,,,,,,,,,,,,,,,,,,,,,,,,,,,,,,,,,,,,,,,,,,,,,,,,,,15,001,male,28,450,475,2022_Oct_04_1101,Experiment,2021.1.4,360.45648209764374,
