image_face,image_scram,avatar,emo,emotion,sex,trigeeg,dac,trial_no,NMES,stimtime,baseline,iti,face,scr_face,resp_time,index,count_NMES,count_avatar,count_emotion,dac1,dac2,dac1_output,dac2_output,trigs_out,nmes,practice_trials.thisRepN,practice_trials.thisTrialN,practice_trials.thisN,practice_trials.thisIndex,real_trials.thisRepN,real_trials.thisTrialN,real_trials.thisN,real_trials.thisIndex,trials.thisRepN,trials.thisTrialN,trials.thisN,trials.thisIndex,position,Welcome.started,Welcome.stopped,Welcome_resp.keys,Welcome_resp.rt,text_2.started,text_2.stopped,form_2.index,form_2.itemText,form_2.type,form_2.response,form_2.rt,key_resp_4.keys,key_resp_4.rt,key_resp_4.started,key_resp_4.stopped,instructions.started,instructions.stopped,end_instr.keys,end_instr.rt,instructions_2.started,instructions_2.stopped,end_instr_2.keys,end_instr_2.rt,end_instr_2.started,end_instr_2.stopped,instruct_keypress.started,instruct_keypress.stopped,end_instruct_keypress.keys,end_instruct_keypress.rt,start_practice.started,start_practice.stopped,start_practice_resp.keys,start_practice_resp.rt,prac_baseline.started,prac_baseline.stopped,prac_iti.started,prac_iti.stopped,prac_stimulus.started,prac_stimulus.stopped,prac_scram_stim.started,prac_scram_stim.stopped,prac_stimulus_resp.started,prac_stimulus_resp.stopped,prac_resp.keys,prac_resp.started,prac_resp.stopped,prac_resp.rt,transition_to_real.started,transition_to_real.stopped,end_transition_to_real.keys,end_transition_to_real.rt,fixation_cross.started,fixation_cross.stopped,tr_iti.started,tr_iti.stopped,stimulus.started,stimulus.stopped,scram_stim.started,scram_stim.stopped,response_txt.started,response_txt.stopped,response.keys,response.rt,response.started,response.stopped,participant_Resp,grouping,corAnswer,break_msg.started,break_msg.stopped,end_break.keys,end_break.started,end_break.stopped,end_break.rt,text.started,text.stopped,key_resp_3.keys,key_resp_3.rt,key_resp_3.started,key_resp_3.stopped,fix_cross_comf.started,fix_cross_comf.stopped,stimulation_comf.started,stimulation_comf.stopped,rate_instr.started,rate_instr.stopped,comfort_rating.response,comfort_rating.rt,comfort_rating.started,comfort_rating.stopped,resp_form.keys,resp_form.rt,resp_form.started,resp_form.stopped,survey_instructions.started,survey_instructions.stopped,key_resp_2.keys,key_resp_2.rt,key_resp_2.started,key_resp_2.stopped,form.index,form.itemText,form.type,form.response,form.rt,key_resp.keys,key_resp.rt,key_resp.started,key_resp.stopped,text_3.started,text_3.stopped,rate_smile.response,rate_smile.rt,rate_smile.started,rate_smile.stopped,key_resp_5.keys,key_resp_5.rt,key_resp_5.started,key_resp_5.stopped,end_msg.started,end_msg.stopped,end_resp.keys,end_resp.rt,end_resp.started,end_resp.stopped,participant,session,gender,age,LEFT,RIGHT,date,expName,psychopyVersion,frameRate,
,,,,,,,,,,,,,,,,,,,,,,,,,,,,,,,,,,,,,,S-H,32.24194010000065,None,num_add,11.460457999999562,,,,,,,,,,,,,,,,,,,,,,,,,,,,,,,,,,,,,,,,,,,,,,,,,,,,,,,,,,,,,,,,,,,,,,,,,,,,,,,,,,,,,,,,,,,,,,,,,,,,,,,,,,,,,,,,,,,,,,,,,,16,001,male,29,350,400,2022_Oct_04_1331,Experiment,2021.1.4,360.174756804516,
,,,,,,,,,,,,,,,,,,,,,,,,,,,,,,,,,,,,,,,,,,,43.71077930000138,45.75178510000114,1,"This scale consistes of a number of words that describe different feelings and emotion. Read each item and then list the number from the scale below each word. Indicate (by clicking) to what extend you feel this way RIGHT NOW, that is, AT THE PRESENT MOMENT.",description,,,,,,,,,,,,,,,,,,,,,,,,,,,,,,,,,,,,,,,,,,,,,,,,,,,,,,,,,,,,,,,,,,,,,,,,,,,,,,,,,,,,,,,,,,,,,,,,,,,,,,,,,,,,,,,,,,,,,16,001,male,29,350,400,2022_Oct_04_1331,Experiment,2021.1.4,360.174756804516,
,,,,,,,,,,,,,,,,,,,,,,,,,,,,,,,,,,,,,,,,,,,,,2,Interested,rating,4.0,14.92985039999985,,,,,,,,,,,,,,,,,,,,,,,,,,,,,,,,,,,,,,,,,,,,,,,,,,,,,,,,,,,,,,,,,,,,,,,,,,,,,,,,,,,,,,,,,,,,,,,,,,,,,,,,,,,,,,,,,,,16,001,male,29,350,400,2022_Oct_04_1331,Experiment,2021.1.4,360.174756804516,
,,,,,,,,,,,,,,,,,,,,,,,,,,,,,,,,,,,,,,,,,,,,,3,Distressed,rating,1.0,19.410592899999756,,,,,,,,,,,,,,,,,,,,,,,,,,,,,,,,,,,,,,,,,,,,,,,,,,,,,,,,,,,,,,,,,,,,,,,,,,,,,,,,,,,,,,,,,,,,,,,,,,,,,,,,,,,,,,,,,,,16,001,male,29,350,400,2022_Oct_04_1331,Experiment,2021.1.4,360.174756804516,
,,,,,,,,,,,,,,,,,,,,,,,,,,,,,,,,,,,,,,,,,,,,,4,Excited,rating,3.0,22.65784519999943,,,,,,,,,,,,,,,,,,,,,,,,,,,,,,,,,,,,,,,,,,,,,,,,,,,,,,,,,,,,,,,,,,,,,,,,,,,,,,,,,,,,,,,,,,,,,,,,,,,,,,,,,,,,,,,,,,,16,001,male,29,350,400,2022_Oct_04_1331,Experiment,2021.1.4,360.174756804516,
,,,,,,,,,,,,,,,,,,,,,,,,,,,,,,,,,,,,,,,,,,,,,5,Upset,rating,1.0,28.123260200000004,,,,,,,,,,,,,,,,,,,,,,,,,,,,,,,,,,,,,,,,,,,,,,,,,,,,,,,,,,,,,,,,,,,,,,,,,,,,,,,,,,,,,,,,,,,,,,,,,,,,,,,,,,,,,,,,,,,16,001,male,29,350,400,2022_Oct_04_1331,Experiment,2021.1.4,360.174756804516,
,,,,,,,,,,,,,,,,,,,,,,,,,,,,,,,,,,,,,,,,,,,,,6,Strong,rating,4.0,53.963954199998625,,,,,,,,,,,,,,,,,,,,,,,,,,,,,,,,,,,,,,,,,,,,,,,,,,,,,,,,,,,,,,,,,,,,,,,,,,,,,,,,,,,,,,,,,,,,,,,,,,,,,,,,,,,,,,,,,,,16,001,male,29,350,400,2022_Oct_04_1331,Experiment,2021.1.4,360.174756804516,
,,,,,,,,,,,,,,,,,,,,,,,,,,,,,,,,,,,,,,,,,,,,,7,Guilty,rating,2.0,45.60832859999937,,,,,,,,,,,,,,,,,,,,,,,,,,,,,,,,,,,,,,,,,,,,,,,,,,,,,,,,,,,,,,,,,,,,,,,,,,,,,,,,,,,,,,,,,,,,,,,,,,,,,,,,,,,,,,,,,,,16,001,male,29,350,400,2022_Oct_04_1331,Experiment,2021.1.4,360.174756804516,
,,,,,,,,,,,,,,,,,,,,,,,,,,,,,,,,,,,,,,,,,,,,,8,Scared,rating,1.0,86.63380450000113,,,,,,,,,,,,,,,,,,,,,,,,,,,,,,,,,,,,,,,,,,,,,,,,,,,,,,,,,,,,,,,,,,,,,,,,,,,,,,,,,,,,,,,,,,,,,,,,,,,,,,,,,,,,,,,,,,,16,001,male,29,350,400,2022_Oct_04_1331,Experiment,2021.1.4,360.174756804516,
,,,,,,,,,,,,,,,,,,,,,,,,,,,,,,,,,,,,,,,,,,,,,9,Hostile,rating,1.0,52.327712500000416,,,,,,,,,,,,,,,,,,,,,,,,,,,,,,,,,,,,,,,,,,,,,,,,,,,,,,,,,,,,,,,,,,,,,,,,,,,,,,,,,,,,,,,,,,,,,,,,,,,,,,,,,,,,,,,,,,,16,001,male,29,350,400,2022_Oct_04_1331,Experiment,2021.1.4,360.174756804516,
,,,,,,,,,,,,,,,,,,,,,,,,,,,,,,,,,,,,,,,,,,,,,10,Enthusiastic,rating,4.0,38.460336899999675,,,,,,,,,,,,,,,,,,,,,,,,,,,,,,,,,,,,,,,,,,,,,,,,,,,,,,,,,,,,,,,,,,,,,,,,,,,,,,,,,,,,,,,,,,,,,,,,,,,,,,,,,,,,,,,,,,,16,001,male,29,350,400,2022_Oct_04_1331,Experiment,2021.1.4,360.174756804516,
,,,,,,,,,,,,,,,,,,,,,,,,,,,,,,,,,,,,,,,,,,,,,11,Proud,rating,4.0,15.519882300000972,,,,,,,,,,,,,,,,,,,,,,,,,,,,,,,,,,,,,,,,,,,,,,,,,,,,,,,,,,,,,,,,,,,,,,,,,,,,,,,,,,,,,,,,,,,,,,,,,,,,,,,,,,,,,,,,,,,16,001,male,29,350,400,2022_Oct_04_1331,Experiment,2021.1.4,360.174756804516,
,,,,,,,,,,,,,,,,,,,,,,,,,,,,,,,,,,,,,,,,,,,,,12,Irritable,rating,2.0,14.702042699998856,,,,,,,,,,,,,,,,,,,,,,,,,,,,,,,,,,,,,,,,,,,,,,,,,,,,,,,,,,,,,,,,,,,,,,,,,,,,,,,,,,,,,,,,,,,,,,,,,,,,,,,,,,,,,,,,,,,16,001,male,29,350,400,2022_Oct_04_1331,Experiment,2021.1.4,360.174756804516,
,,,,,,,,,,,,,,,,,,,,,,,,,,,,,,,,,,,,,,,,,,,,,13,Alert,rating,4.0,13.20319550000022,,,,,,,,,,,,,,,,,,,,,,,,,,,,,,,,,,,,,,,,,,,,,,,,,,,,,,,,,,,,,,,,,,,,,,,,,,,,,,,,,,,,,,,,,,,,,,,,,,,,,,,,,,,,,,,,,,,16,001,male,29,350,400,2022_Oct_04_1331,Experiment,2021.1.4,360.174756804516,
,,,,,,,,,,,,,,,,,,,,,,,,,,,,,,,,,,,,,,,,,,,,,14,Ashamed,rating,2.0,11.299597500001255,,,,,,,,,,,,,,,,,,,,,,,,,,,,,,,,,,,,,,,,,,,,,,,,,,,,,,,,,,,,,,,,,,,,,,,,,,,,,,,,,,,,,,,,,,,,,,,,,,,,,,,,,,,,,,,,,,,16,001,male,29,350,400,2022_Oct_04_1331,Experiment,2021.1.4,360.174756804516,
,,,,,,,,,,,,,,,,,,,,,,,,,,,,,,,,,,,,,,,,,,,,,15,Inspired,rating,4.0,11.466374099998575,,,,,,,,,,,,,,,,,,,,,,,,,,,,,,,,,,,,,,,,,,,,,,,,,,,,,,,,,,,,,,,,,,,,,,,,,,,,,,,,,,,,,,,,,,,,,,,,,,,,,,,,,,,,,,,,,,,16,001,male,29,350,400,2022_Oct_04_1331,Experiment,2021.1.4,360.174756804516,
,,,,,,,,,,,,,,,,,,,,,,,,,,,,,,,,,,,,,,,,,,,,,16,Nervous,rating,4.0,14.912879299999986,,,,,,,,,,,,,,,,,,,,,,,,,,,,,,,,,,,,,,,,,,,,,,,,,,,,,,,,,,,,,,,,,,,,,,,,,,,,,,,,,,,,,,,,,,,,,,,,,,,,,,,,,,,,,,,,,,,16,001,male,29,350,400,2022_Oct_04_1331,Experiment,2021.1.4,360.174756804516,
,,,,,,,,,,,,,,,,,,,,,,,,,,,,,,,,,,,,,,,,,,,,,17,Determined,rating,5.0,25.91392160000032,,,,,,,,,,,,,,,,,,,,,,,,,,,,,,,,,,,,,,,,,,,,,,,,,,,,,,,,,,,,,,,,,,,,,,,,,,,,,,,,,,,,,,,,,,,,,,,,,,,,,,,,,,,,,,,,,,,16,001,male,29,350,400,2022_Oct_04_1331,Experiment,2021.1.4,360.174756804516,
,,,,,,,,,,,,,,,,,,,,,,,,,,,,,,,,,,,,,,,,,,,,,18,Attentive,rating,4.0,24.738716300000306,,,,,,,,,,,,,,,,,,,,,,,,,,,,,,,,,,,,,,,,,,,,,,,,,,,,,,,,,,,,,,,,,,,,,,,,,,,,,,,,,,,,,,,,,,,,,,,,,,,,,,,,,,,,,,,,,,,16,001,male,29,350,400,2022_Oct_04_1331,Experiment,2021.1.4,360.174756804516,
,,,,,,,,,,,,,,,,,,,,,,,,,,,,,,,,,,,,,,,,,,,,,19,Jittery,rating,1.0,25.60420300000078,,,,,,,,,,,,,,,,,,,,,,,,,,,,,,,,,,,,,,,,,,,,,,,,,,,,,,,,,,,,,,,,,,,,,,,,,,,,,,,,,,,,,,,,,,,,,,,,,,,,,,,,,,,,,,,,,,,16,001,male,29,350,400,2022_Oct_04_1331,Experiment,2021.1.4,360.174756804516,
,,,,,,,,,,,,,,,,,,,,,,,,,,,,,,,,,,,,,,,,,,,,,20,Active,rating,4.0,9.897535800000696,,,,,,,,,,,,,,,,,,,,,,,,,,,,,,,,,,,,,,,,,,,,,,,,,,,,,,,,,,,,,,,,,,,,,,,,,,,,,,,,,,,,,,,,,,,,,,,,,,,,,,,,,,,,,,,,,,,16,001,male,29,350,400,2022_Oct_04_1331,Experiment,2021.1.4,360.174756804516,
,,,,,,,,,,,,,,,,,,,,,,,,,,,,,,,,,,,,,,,,,,,,,21,Afraid,rating,2.0,14.456369500001529,,,,,,,,,,,,,,,,,,,,,,,,,,,,,,,,,,,,,,,,,,,,,,,,,,,,,,,,,,,,,,,,,,,,,,,,,,,,,,,,,,,,,,,,,,,,,,,,,,,,,,,,,,,,,,,,,,,16,001,male,29,350,400,2022_Oct_04_1331,Experiment,2021.1.4,360.174756804516,
,,,,,,,,,,,,,,,,,,,,,,,,,,,,,,,,,,,,,,,,,,,,,22,Press the + button to submit your answers,description,,,,,,,,,,,,,,,,,,,,,,,,,,,,,,,,,,,,,,,,,,,,,,,,,,,,,,,,,,,,,,,,,,,,,,,,,,,,,,,,,,,,,,,,,,,,,,,,,,,,,,,,,,,,,,,,,,,,,16,001,male,29,350,400,2022_Oct_04_1331,Experiment,2021.1.4,360.174756804516,
,,,,,,,,,,,,,,,,,,,,,,,,,,,,,,,,,,,,,,,,,,,,,,,,,,num_add,127.29149320000033,53.754878000001554,None,,,,,,,,,,,,,,,,,,,,,,,,,,,,,,,,,,,,,,,,,,,,,,,,,,,,,,,,,,,,,,,,,,,,,,,,,,,,,,,,,,,,,,,,,,,,,,,,,,,,,,,,,,,,,,,16,001,male,29,350,400,2022_Oct_04_1331,Experiment,2021.1.4,360.174756804516,
,,,,,,,,,,,,,,,,,,,,,,,,,,,,,,,,,,,,,,,,,,,,,,,,,,,,,,181.07696260000012,None,num_add,18.369499700000233,,,,,,,,,,,,,,,,,,,,,,,,,,,,,,,,,,,,,,,,,,,,,,,,,,,,,,,,,,,,,,,,,,,,,,,,,,,,,,,,,,,,,,,,,,,,,,,,,,,,,,,,,,,16,001,male,29,350,400,2022_Oct_04_1331,Experiment,2021.1.4,360.174756804516,
,,,,,,,,,,,,,,,,,,,,,,,,,,,,,,,,,,,,,,,,,,,,,,,,,,,,,,,,,,199.46010250000108,None,num_add,12.48235929999828,199.46010250000108,None,,,,,,,,,,,,,,,,,,,,,,,,,,,,,,,,,,,,,,,,,,,,,,,,,,,,,,,,,,,,,,,,,,,,,,,,,,,,,,,,,,,,,,,,,,,,,,,,,,,,,16,001,male,29,350,400,2022_Oct_04_1331,Experiment,2021.1.4,360.174756804516,
,,,,,,,,,,,,,,,,,,,,,,,,,,,,,,,,,,,,,,,,,,,,,,,,,,,,,,,,,,,,,,,,211.9673616,None,num_add,14.822936299999128,,,,,,,,,,,,,,,,,,,,,,,,,,,,,,,,,,,,,,,,,,,,,,,,,,,,,,,,,,,,,,,,,,,,,,,,,,,,,,,,,,,,,,,,,,,,,,,,,16,001,male,29,350,400,2022_Oct_04_1331,Experiment,2021.1.4,360.174756804516,
,,,,,,,,,,,,,,,,,,,,,,,,,,,,,,,,,,,,,,,,,,,,,,,,,,,,,,,,,,,,,,,,,,,,226.80170220000036,None,space,76.49244490000092,,,,,,,,,,,,,,,,,,,,,,,,,,,,,,,,,,,,,,,,,,,,,,,,,,,,,,,,,,,,,,,,,,,,,,,,,,,,,,,,,,,,,,,,,,,,,16,001,male,29,350,400,2022_Oct_04_1331,Experiment,2021.1.4,360.174756804516,
images\S22_M_S_01.png,images\S22_M_S_01_scrambled.png,22,Sad,0.1,M,0,0,practice,on,2,0.5,0.75,0.5,0.867,3,,,,,,,,,,,0,0,0,5,,,,,,,,,,,,,,,,,,,,,,,,,,,,,,,,,,,,,,,,,,,303.4225739000012,303.92519859999993,303.92519859999993,304.67776740000045,304.67776740000045,305.1804650000013,305.1804650000013,306.0495525000006,306.0495525000006,None,None,306.0495525000006,None,,,,,,,,,,,,,,,,,,,,,,,,,,,,,,,,,,,,,,,,,,,,,,,,,,,,,,,,,,,,,,,,,,,,,,,,,,,,,,,,16,001,male,29,350,400,2022_Oct_04_1331,Experiment,2021.1.4,360.174756804516,
images\S21_F_H_01.png,images\S21_F_H_01_scrambled.png,21,Happy,-0.1,F,0,0,practice,off,1,0.5,0.75,0.5,0.853,3,,,,,,,,,,,0,1,1,0,,,,,,,,,,,,,,,,,,,,,,,,,,,,,,,,,,,,,,,,,,,309.10139230000095,309.6012326,309.6012326,310.35100030000103,310.35100030000103,310.85643920000075,310.85643920000075,311.7117384000012,311.7117384000012,309.10139230000095,None,311.7117384000012,309.10139230000095,,,,,,,,,,,,,,,,,,,,,,,,,,,,,,,,,,,,,,,,,,,,,,,,,,,,,,,,,,,,,,,,,,,,,,,,,,,,,,,,16,001,male,29,350,400,2022_Oct_04_1331,Experiment,2021.1.4,360.174756804516,
images\S22_M_S_03.png,images\S22_M_S_03_scrambled.png,22,Sad,0.3,M,0,0,practice,on,2,0.5,0.75,0.5,0.794,3,,,,,,,,,,,0,2,2,7,,,,,,,,,,,,,,,,,,,,,,,,,,,,,,,,,,,,,,,,,,,314.75799520000146,315.26074100000005,315.26074100000005,316.0131738,316.0131738,316.51587330000075,316.51587330000075,317.30997370000114,317.30997370000114,314.75799520000146,num_4,317.30997370000114,314.75799520000146,1.4968749999989086,,,,,,,,,,,,,,,,,,,,,,,,,,,,,,,,,,,,,,,,,,,,,,,,,,,,,,,,,,,,,,,,,,,,,,,,,,,,,,,16,001,male,29,350,400,2022_Oct_04_1331,Experiment,2021.1.4,360.174756804516,
images\S22_M_S_02.png,images\S22_M_S_02_scrambled.png,22,Sad,0.2,M,0,0,practice,off,1,0.5,0.75,0.5,0.751,3,,,,,,,,,,,0,3,3,3,,,,,,,,,,,,,,,,,,,,,,,,,,,,,,,,,,,,,,,,,,,318.8622851,319.3650359000003,319.3650359000003,320.1174725000001,320.1174725000001,320.62286570000106,320.62286570000106,321.378187100001,321.378187100001,None,num_4,321.378187100001,None,0.4766405999998824,,,,,,,,,,,,,,,,,,,,,,,,,,,,,,,,,,,,,,,,,,,,,,,,,,,,,,,,,,,,,,,,,,,,,,,,,,,,,,,16,001,male,29,350,400,2022_Oct_04_1331,Experiment,2021.1.4,360.174756804516,
images\S22_M_S_02.png,images\S22_M_S_02_scrambled.png,22,Sad,0.2,M,0,0,practice,on,2,0.5,0.75,0.5,0.783,3,,,,,,,,,,,0,4,4,6,,,,,,,,,,,,,,,,,,,,,,,,,,,,,,,,,,,,,,,,,,,321.9113433000002,322.4111862000009,322.4111862000009,323.1665466000013,323.1665466000013,323.6719438,323.6719438,324.46066040000005,324.46066040000005,None,num_4,324.46066040000005,None,2.8261185999999725,,,,,,,,,,,,,,,,,,,,,,,,,,,,,,,,,,,,,,,,,,,,,,,,,,,,,,,,,,,,,,,,,,,,,,,,,,,,,,,16,001,male,29,350,400,2022_Oct_04_1331,Experiment,2021.1.4,360.174756804516,
images\S22_M_H_02.png,images\S22_M_H_02_scrambled.png,22,Happy,-0.2,M,0,0,practice,off,1,0.5,0.75,0.5,0.883,3,,,,,,,,,,,0,5,5,2,,,,,,,,,,,,,,,,,,,,,,,,,,,,,,,,,,,,,,,,,,,327.3430096000011,327.84576090000155,327.84576090000155,328.5981704000005,328.5981704000005,329.1008879000001,329.1008879000001,329.9866688000002,329.9866688000002,None,num_6,329.9866688000002,None,0.9000185000004421,,,,,,,,,,,,,,,,,,,,,,,,,,,,,,,,,,,,,,,,,,,,,,,,,,,,,,,,,,,,,,,,,,,,,,,,,,,,,,,16,001,male,29,350,400,2022_Oct_04_1331,Experiment,2021.1.4,360.174756804516,
images\S21_F_H_02.png,images\S21_F_H_02_scrambled.png,21,Happy,-0.2,F,0,0,practice,off,1,0.5,0.75,0.5,0.91,3,,,,,,,,,,,0,6,6,1,,,,,,,,,,,,,,,,,,,,,,,,,,,,,,,,,,,,,,,,,,,330.94190359999993,331.44732380000096,331.44732380000096,332.19987890000084,332.19987890000084,332.7024943000015,332.7024943000015,333.61606890000076,333.61606890000076,None,num_6,333.61606890000076,None,0.5427538000003551,,,,,,,,,,,,,,,,,,,,,,,,,,,,,,,,,,,,,,,,,,,,,,,,,,,,,,,,,,,,,,,,,,,,,,,,,,,,,,,16,001,male,29,350,400,2022_Oct_04_1331,Experiment,2021.1.4,360.174756804516,
images\S22_M_S_03.png,images\S22_M_S_03_scrambled.png,22,Sad,0.3,M,0,0,practice,on,2,0.5,0.75,0.5,0.87,3,,,,,,,,,,,0,7,7,4,,,,,,,,,,,,,,,,,,,,,,,,,,,,,,,,,,,,,,,,,,,334.2297823000008,334.73242949999985,334.73242949999985,335.4850769000004,335.4850769000004,335.9875882000015,335.9875882000015,336.86232310000014,336.86232310000014,None,num_4,336.86232310000014,None,0.2405073000008997,,,,,,,,,,,,,,,,,,,,,,,,,,,,,,,,,,,,,,,,,,,,,,,,,,,,,,,,,,,,,,,,,,,,,,,,,,,,,,,16,001,male,29,350,400,2022_Oct_04_1331,Experiment,2021.1.4,360.174756804516,
,,,,,,,,,,,,,,,,,,,,,,,,,,,,,,,,,,,,,,,,,,,,,,,,,,,,,,,,,,,,,,,,,,,,,,,,,,,,,,,,,,,,,,337.1344403000003,None,space,145.22359770000003,,,,,,,,,,,,,,,,,,,,,,,,,,,,,,,,,,,,,,,,,,,,,,,,,,,,,,,,,,,,,,,,,,,,,,,,,,,16,001,male,29,350,400,2022_Oct_04_1331,Experiment,2021.1.4,360.174756804516,
images\S4_M_H_01.png,images\S4_M_H_01_scrambled.png,4,happy,10,male,4,,199,on,2,0.5,0.75,0.5,0.893,3,198,1,1,1,2,2,32,128,164,,,,,,0,0,0,0,,,,,,,,,,,,,,,,,,,,,,,,,,,,,,,,,,,,,,,,,,,,,,,,,,,,,,,,,482.8535376,483.3561490000011,483.3561490000011,484.10591730000124,484.10591730000124,484.61136179999994,484.61136179999994,485.511107100001,485.511107100001,None,num_4,0.5837979999996605,485.511107100001,None,sad,0,Happy,486.1136516000006,None,None,486.1136516000006,None,,,,,,,,,,,,,,,,,,,,,,,,,,,,,,,,,,,,,,,,,,,,,,,,,,,,,16,001,male,29,350,400,2022_Oct_04_1331,Experiment,2021.1.4,360.174756804516,
images\S3_F_H_02.png,images\S3_F_H_02_scrambled.png,3,happy,20,female,5,,134,off,1,0.5,0.75,0.5,0.947,3,133,1,1,1,0,0,0,0,5,,,,,,0,1,1,1,,,,,,,,,,,,,,,,,,,,,,,,,,,,,,,,,,,,,,,,,,,,,,,,,,,,,,,,,486.1608543000002,486.6662884000016,486.6662884000016,487.416010500001,487.416010500001,487.9214556000006,487.9214556000006,488.8711718000013,488.8711718000013,None,num_6,0.45578159999968193,488.8711718000013,None,happy,0,Happy,489.34042608000124,None,None,489.34042608000124,None,,,,,,,,,,,,,,,,,,,,,,,,,,,,,,,,,,,,,,,,,,,,,,,,,,,,,16,001,male,29,350,400,2022_Oct_04_1331,Experiment,2021.1.4,360.174756804516,
images\S6_M_H_01.png,images\S6_M_H_01_scrambled.png,6,happy,10,male,4,,511,off,1,0.5,0.75,0.5,0.861,3,510,2,1,1,0,0,0,0,4,,,,,,0,2,2,2,,,,,,,,,,,,,,,,,,,,,,,,,,,,,,,,,,,,,,,,,,,,,,,,,,,,,,,,,489.3876341000014,489.8930497000001,489.8930497000001,490.64559760000157,490.64559760000157,491.1510487000014,491.1510487000014,492.0174057000004,492.0174057000004,None,num_6,0.3736157000003004,492.0174057000004,None,happy,0,Happy,492.4061540800008,None,None,492.4061540800008,None,,,,,,,,,,,,,,,,,,,,,,,,,,,,,,,,,,,,,,,,,,,,,,,,,,,,,16,001,male,29,350,400,2022_Oct_04_1331,Experiment,2021.1.4,360.174756804516,
images\S4_M_H_01.png,images\S4_M_H_01_scrambled.png,4,happy,10,male,4,,379,off,1,0.5,0.75,0.5,0.844,3,378,3,1,2,0,0,0,0,4,,,,,,0,3,3,3,,,,,,,,,,,,,,,,,,,,,,,,,,,,,,,,,,,,,,,,,,,,,,,,,,,,,,,,,492.456140100001,492.95599440000115,492.95599440000115,493.71134520000123,493.71134520000123,494.21674560000065,494.21674560000065,495.06648660000064,495.06648660000064,None,num_4,0.2522456999995484,495.06648660000064,None,sad,0,Happy,495.3247359400018,None,None,495.3247359400018,None,,,,,,,,,,,,,,,,,,,,,,,,,,,,,,,,,,,,,,,,,,,,,,,,,,,,,16,001,male,29,350,400,2022_Oct_04_1331,Experiment,2021.1.4,360.174756804516,
images\blank.jpg,images\blank.jpg,none,none,none,none,0,,602,on,2,0.5,0.75,0.5,0.843,0,601,1,1,1,3,3,48,192,240,,,,,,0,4,4,4,,,,,,,,,,,,,,,,,,,,,,,,,,,,,,,,,,,,,,,,,,,,,,,,,,,,,,,,,495.40844880000077,495.9107273000009,495.9107273000009,496.66319250000015,496.66319250000015,497.16588349999984,497.16588349999984,498.0127691000016,498.0127691000016,498.0127691000016,None,,498.0127691000016,None,miss,0,,501.01465322,None,None,501.01465322,None,,,,,,,,,,,,,,,,,,,,,,,,,,,,,,,,,,,,,,,,,,,,,,,,,,,,,16,001,male,29,350,400,2022_Oct_04_1331,Experiment,2021.1.4,360.174756804516,
images\S6_M_S_01.png,images\S6_M_S_01_scrambled.png,6,sad,-10,male,3,,274,off,1,0.5,0.75,0.5,0.925,3,273,1,1,1,0,0,0,0,3,,,,,,0,5,5,5,,,,,,,,,,,,,,,,,,,,,,,,,,,,,,,,,,,,,,,,,,,,,,,,,,,,,,,,,501.13147480000043,501.6366745000014,501.6366745000014,502.38918980000017,502.38918980000017,502.89184920000116,502.89184920000116,503.81930230000034,503.81930230000034,None,num_4,0.5316671000000497,503.81930230000034,501.13147480000043,sad,0,Sad,504.36916360000214,None,None,504.36916360000214,None,,,,,,,,,,,,,,,,,,,,,,,,,,,,,,,,,,,,,,,,,,,,,,,,,,,,,16,001,male,29,350,400,2022_Oct_04_1331,Experiment,2021.1.4,360.174756804516,
images\S8_M_H_03.png,images\S8_M_H_03_scrambled.png,8,happy,30,male,6,,225,on,2,0.5,0.75,0.5,0.847,3,224,1,1,1,2,2,32,128,166,,,,,,0,6,6,6,,,,,,,,,,,,,,,,,,,,,,,,,,,,,,,,,,,,,,,,,,,,,,,,,,,,,,,,,504.4163472,504.9217840000001,504.9217840000001,505.67433260000143,505.67433260000143,506.17695300000014,506.17695300000014,507.0266917000008,507.0266917000008,None,num_6,0.36396419999982754,507.0266917000008,None,happy,0,Happy,507.4099275000008,None,None,507.4099275000008,None,,,,,,,,,,,,,,,,,,,,,,,,,,,,,,,,,,,,,,,,,,,,,,,,,,,,,16,001,male,29,350,400,2022_Oct_04_1331,Experiment,2021.1.4,360.174756804516,
images\S7_F_S_01.png,images\S7_F_S_01_scrambled.png,7,sad,-10,female,3,,580,on,2,0.5,0.75,0.5,0.827,3,579,2,1,1,2,2,32,128,163,,,,,,0,7,7,7,,,,,,,,,,,,,,,,,,,,,,,,,,,,,,,,,,,,,,,,,,,,,,,,,,,,,,,,,507.45985890000156,507.9653999000002,507.9653999000002,508.72071959999994,508.72071959999994,509.2260344000006,509.2260344000006,510.0562802000004,510.0562802000004,None,num_4,0.2627262999994855,510.0562802000004,None,sad,0,Sad,510.3423709200018,None,None,510.3423709200018,None,,,,,,,,,,,,,,,,,,,,,,,,,,,,,,,,,,,,,,,,,,,,,,,,,,,,,16,001,male,29,350,400,2022_Oct_04_1331,Experiment,2021.1.4,360.174756804516,
images\S9_F_S_03.png,images\S9_F_S_03_scrambled.png,9,sad,-30,female,1,,474,on,2,0.5,0.75,0.5,0.809,3,473,3,1,1,2,2,32,128,161,,,,,,0,8,8,8,,,,,,,,,,,,,,,,,,,,,,,,,,,,,,,,,,,,,,,,,,,,,,,,,,,,,,,,,510.39228990000083,510.8977044000003,510.8977044000003,511.6502431000008,511.6502431000008,512.155761,512.155761,512.9665382000003,512.9665382000003,None,num_4,0.2564543999997113,512.9665382000003,None,sad,0,Sad,513.2414455000016,None,None,513.2414455000016,None,,,,,,,,,,,,,,,,,,,,,,,,,,,,,,,,,,,,,,,,,,,,,,,,,,,,,16,001,male,29,350,400,2022_Oct_04_1331,Experiment,2021.1.4,360.174756804516,
images\blank.jpg,images\blank.jpg,none,none,none,none,0,,620,on,2,0.5,0.75,0.5,0.873,0,619,4,1,1,3,3,48,192,240,,,,,,0,9,9,9,,,,,,,,,,,,,,,,,,,,,,,,,,,,,,,,,,,,,,,,,,,,,,,,,,,,,,,,,513.3248606000016,513.8273363000008,513.8273363000008,514.5771110000005,514.5771110000005,515.0825351000003,515.0825351000003,515.9601384000016,515.9601384000016,515.9601384000016,None,,515.9601384000016,None,miss,0,,518.9619465400017,None,None,518.9619465400017,None,,,,,,,,,,,,,,,,,,,,,,,,,,,,,,,,,,,,,,,,,,,,,,,,,,,,,16,001,male,29,350,400,2022_Oct_04_1331,Experiment,2021.1.4,360.174756804516,
images\S7_F_H_02.png,images\S7_F_H_02_scrambled.png,7,happy,20,female,5,,338,on,2,0.5,0.75,0.5,0.816,3,337,5,1,1,2,2,32,128,165,,,,,,0,10,10,10,,,,,,,,,,,,,,,,,,,,,,,,,,,,,,,,,,,,,,,,,,,,,,,,,,,,,,,,,519.0843149000011,519.5867209000007,519.5867209000007,520.3392270000004,520.3392270000004,520.8418827000005,520.8418827000005,521.6610592000015,521.6610592000015,None,num_6,0.3454101000006631,521.6610592000015,519.0843149000011,happy,0,Happy,522.0220671800013,None,None,522.0220671800013,None,,,,,,,,,,,,,,,,,,,,,,,,,,,,,,,,,,,,,,,,,,,,,,,,,,,,,16,001,male,29,350,400,2022_Oct_04_1331,Experiment,2021.1.4,360.174756804516,
images\S2_M_H_02.png,images\S2_M_H_02_scrambled.png,2,happy,20,male,5,,308,on,2,0.5,0.75,0.5,0.847,3,307,6,1,2,2,2,32,128,165,,,,,,0,11,11,11,,,,,,,,,,,,,,,,,,,,,,,,,,,,,,,,,,,,,,,,,,,,,,,,,,,,,,,,,522.0692583,522.5719127000011,522.5719127000011,523.3244585000011,523.3244585000011,523.8270390000016,523.8270390000016,524.6740005000011,524.6740005000011,None,num_6,0.25294790000043577,524.6740005000011,None,happy,0,Happy,524.9517101600023,None,None,524.9517101600023,None,,,,,,,,,,,,,,,,,,,,,,,,,,,,,,,,,,,,,,,,,,,,,,,,,,,,,16,001,male,29,350,400,2022_Oct_04_1331,Experiment,2021.1.4,360.174756804516,
images\S9_F_H_01.png,images\S9_F_H_01_scrambled.png,9,happy,10,female,4,,289,off,1,0.5,0.75,0.5,0.875,3,288,1,1,1,0,0,0,0,4,,,,,,0,12,12,12,,,,,,,,,,,,,,,,,,,,,,,,,,,,,,,,,,,,,,,,,,,,,,,,,,,,,,,,,525.0155664000013,525.5210273000012,525.5210273000012,526.2707556000005,526.2707556000005,526.7761867000008,526.7761867000008,527.6564656999999,527.6564656999999,None,num_4,0.8064367999995739,527.6564656999999,None,sad,0,Happy,528.4700751400003,None,None,528.4700751400003,None,,,,,,,,,,,,,,,,,,,,,,,,,,,,,,,,,,,,,,,,,,,,,,,,,,,,,16,001,male,29,350,400,2022_Oct_04_1331,Experiment,2021.1.4,360.174756804516,
images\S7_F_H_03.png,images\S7_F_H_03_scrambled.png,7,happy,30,female,6,,159,off,1,0.5,0.75,0.5,0.828,3,158,2,1,1,0,0,0,0,6,,,,,,0,13,13,13,,,,,,,,,,,,,,,,,,,,,,,,,,,,,,,,,,,,,,,,,,,,,,,,,,,,,,,,,528.520046900001,529.0198875000006,529.0198875000006,529.7752975000003,529.7752975000003,530.2778565000008,530.2778565000008,531.1109805000015,531.1109805000015,None,num_6,0.35989689999951224,531.1109805000015,None,happy,0,Happy,531.4969284600021,None,None,531.4969284600021,None,,,,,,,,,,,,,,,,,,,,,,,,,,,,,,,,,,,,,,,,,,,,,,,,,,,,,16,001,male,29,350,400,2022_Oct_04_1331,Experiment,2021.1.4,360.174756804516,
images\S10_M_H_03.png,images\S10_M_H_03_scrambled.png,10,happy,30,male,6,,477,on,2,0.5,0.75,0.5,0.773,3,476,1,1,2,2,2,32,128,166,,,,,,0,14,14,14,,,,,,,,,,,,,,,,,,,,,,,,,,,,,,,,,,,,,,,,,,,,,,,,,,,,,,,,,531.5496845000016,532.0522913000004,532.0522913000004,532.802057500001,532.802057500001,533.3074898000013,533.3074898000013,534.0851349000004,534.0851349000004,None,num_6,0.313734100000147,534.0851349000004,None,happy,0,Happy,534.4266281600022,None,None,534.4266281600022,None,,,,,,,,,,,,,,,,,,,,,,,,,,,,,,,,,,,,,,,,,,,,,,,,,,,,,16,001,male,29,350,400,2022_Oct_04_1331,Experiment,2021.1.4,360.174756804516,
images\S10_M_H_02.png,images\S10_M_H_02_scrambled.png,10,happy,20,male,5,,56,off,1,0.5,0.75,0.5,0.898,3,55,1,2,1,0,0,0,0,5,,,,,,0,15,15,15,,,,,,,,,,,,,,,,,,,,,,,,,,,,,,,,,,,,,,,,,,,,,,,,,,,,,,,,,534.479326300001,534.9819947000015,534.9819947000015,535.7317214000013,535.7317214000013,536.2343398000012,536.2343398000012,537.1368803000005,537.1368803000005,None,num_6,0.2627204000000347,537.1368803000005,None,happy,0,Happy,537.4231013600012,None,None,537.4231013600012,None,,,,,,,,,,,,,,,,,,,,,,,,,,,,,,,,,,,,,,,,,,,,,,,,,,,,,16,001,male,29,350,400,2022_Oct_04_1331,Experiment,2021.1.4,360.174756804516,
images\S2_M_H_01.png,images\S2_M_H_01_scrambled.png,2,happy,10,male,4,,247,off,1,0.5,0.75,0.5,0.79,3,246,2,1,1,0,0,0,0,4,,,,,,0,16,16,16,,,,,,,,,,,,,,,,,,,,,,,,,,,,,,,,,,,,,,,,,,,,,,,,,,,,,,,,,537.4811512000015,537.986619700001,537.986619700001,538.7363517000013,538.7363517000013,539.2389669000004,539.2389669000004,540.0331827000009,540.0331827000009,None,num_4,0.47750730000007025,540.0331827000009,None,sad,0,Happy,540.5163542400012,None,None,540.5163542400012,None,,,,,,,,,,,,,,,,,,,,,,,,,,,,,,,,,,,,,,,,,,,,,,,,,,,,,16,001,male,29,350,400,2022_Oct_04_1331,Experiment,2021.1.4,360.174756804516,
images\S1_F_H_02.png,images\S1_F_H_02_scrambled.png,1,happy,20,female,5,,302,on,2,0.5,0.75,0.5,0.946,3,301,1,1,1,2,2,32,128,165,,,,,,0,17,17,17,,,,,,,,,,,,,,,,,,,,,,,,,,,,,,,,,,,,,,,,,,,,,,,,,,,,,,,,,540.5635706000012,541.0661937000004,541.0661937000004,541.8215696000007,541.8215696000007,542.326952200001,542.326952200001,543.2766594000004,543.2766594000004,None,num_6,2.6659262999983184,543.2766594000004,None,happy,0,Happy,545.9535648800007,None,None,545.9535648800007,None,,,,,,,,,,,,,,,,,,,,,,,,,,,,,,,,,,,,,,,,,,,,,,,,,,,,,16,001,male,29,350,400,2022_Oct_04_1331,Experiment,2021.1.4,360.174756804516,
images\S2_M_S_02.png,images\S2_M_S_02_scrambled.png,2,sad,-20,male,2,,71,on,2,0.5,0.75,0.5,0.757,3,70,2,1,1,2,2,32,128,162,,,,,,0,18,18,18,,,,,,,,,,,,,,,,,,,,,,,,,,,,,,,,,,,,,,,,,,,,,,,,,,,,,,,,,546.0007933000015,546.5006472000005,546.5006472000005,547.2504270000009,547.2504270000009,547.7502738000003,547.7502738000003,548.5111667000001,548.5111667000001,None,num_4,0.25548239999989164,548.5111667000001,None,sad,0,Sad,548.7777229800009,None,None,548.7777229800009,None,,,,,,,,,,,,,,,,,,,,,,,,,,,,,,,,,,,,,,,,,,,,,,,,,,,,,16,001,male,29,350,400,2022_Oct_04_1331,Experiment,2021.1.4,360.174756804516,
images\S9_F_S_03.png,images\S9_F_S_03_scrambled.png,9,sad,-30,female,1,,54,off,1,0.5,0.75,0.5,0.949,3,53,1,1,1,0,0,0,0,1,,,,,,0,19,19,19,,,,,,,,,,,,,,,,,,,,,,,,,,,,,,,,,,,,,,,,,,,,,,,,,,,,,,,,,548.8249157000009,549.3303891000014,549.3303891000014,550.080113,550.080113,550.5799319000016,550.5799319000016,551.5324401000016,551.5324401000016,None,num_4,0.25859199999831617,551.5324401000016,None,sad,0,Sad,551.810249840001,None,None,551.810249840001,None,,,,,,,,,,,,,,,,,,,,,,,,,,,,,,,,,,,,,,,,,,,,,,,,,,,,,16,001,male,29,350,400,2022_Oct_04_1331,Experiment,2021.1.4,360.174756804516,
images\S3_F_S_02.png,images\S3_F_S_02_scrambled.png,3,sad,-20,female,2,,317,on,2,0.5,0.75,0.5,0.927,3,316,1,1,1,2,2,32,128,162,,,,,,0,20,20,20,,,,,,,,,,,,,,,,,,,,,,,,,,,,,,,,,,,,,,,,,,,,,,,,,,,,,,,,,551.8601006000008,552.3599364000002,552.3599364000002,553.1125026000009,553.1125026000009,553.6152423000003,553.6152423000003,554.5455158000004,554.5455158000004,None,num_4,0.26907110000138346,554.5455158000004,None,sad,0,Sad,554.8286294000009,None,None,554.8286294000009,None,,,,,,,,,,,,,,,,,,,,,,,,,,,,,,,,,,,,,,,,,,,,,,,,,,,,,16,001,male,29,350,400,2022_Oct_04_1331,Experiment,2021.1.4,360.174756804516,
images\S10_M_H_01.png,images\S10_M_H_01_scrambled.png,10,happy,10,male,4,,415,off,1,0.5,0.75,0.5,0.819,3,414,1,1,1,0,0,0,0,4,,,,,,0,21,21,21,,,,,,,,,,,,,,,,,,,,,,,,,,,,,,,,,,,,,,,,,,,,,,,,,,,,,,,,,554.8758784000001,555.3812921000008,555.3812921000008,556.1365543000011,556.1365543000011,556.6391724000005,556.6391724000005,557.4612046000002,557.4612046000002,None,num_6,0.44145899999966787,557.4612046000002,None,happy,0,Happy,557.9138255800004,None,None,557.9138255800004,None,,,,,,,,,,,,,,,,,,,,,,,,,,,,,,,,,,,,,,,,,,,,,,,,,,,,,16,001,male,29,350,400,2022_Oct_04_1331,Experiment,2021.1.4,360.174756804516,
images\S3_F_S_01.png,images\S3_F_S_01_scrambled.png,3,sad,-10,female,3,,76,on,2,0.5,0.75,0.5,0.912,3,75,1,1,1,2,2,32,128,163,,,,,,0,22,22,22,,,,,,,,,,,,,,,,,,,,,,,,,,,,,,,,,,,,,,,,,,,,,,,,,,,,,,,,,557.9637758000008,558.4664484000004,558.4664484000004,559.2189383000004,559.2189383000004,559.7216033000004,559.7216033000004,560.6408307000002,560.6408307000002,None,num_4,0.2458611000001838,560.6408307000002,None,sad,0,Sad,560.9018297800009,None,None,560.9018297800009,None,,,,,,,,,,,,,,,,,,,,,,,,,,,,,,,,,,,,,,,,,,,,,,,,,,,,,16,001,male,29,350,400,2022_Oct_04_1331,Experiment,2021.1.4,360.174756804516,
images\S3_F_S_01.png,images\S3_F_S_01_scrambled.png,3,sad,-10,female,3,,556,on,2,0.5,0.75,0.5,0.909,3,555,2,2,2,2,2,32,128,163,,,,,,0,23,23,23,,,,,,,,,,,,,,,,,,,,,,,,,,,,,,,,,,,,,,,,,,,,,,,,,,,,,,,,,560.9517488000001,561.4571587999999,561.4571587999999,562.2098259000013,562.2098259000013,562.7123394000009,562.7123394000009,563.623160000001,563.623160000001,None,num_4,0.2718279000000621,563.623160000001,None,sad,0,Sad,563.9091898800012,None,None,563.9091898800012,None,,,,,,,,,,,,,,,,,,,,,,,,,,,,,,,,,,,,,,,,,,,,,,,,,,,,,16,001,male,29,350,400,2022_Oct_04_1331,Experiment,2021.1.4,360.174756804516,
images\S6_M_S_01.png,images\S6_M_S_01_scrambled.png,6,sad,-10,male,3,,574,on,2,0.5,0.75,0.5,0.943,3,573,3,1,3,2,2,32,128,163,,,,,,0,24,24,24,,,,,,,,,,,,,,,,,,,,,,,,,,,,,,,,,,,,,,,,,,,,,,,,,,,,,,,,,563.959160800001,564.4618155000007,564.4618155000007,565.2143391000009,565.2143391000009,565.7169841000014,565.7169841000014,566.6611025000002,566.6611025000002,None,num_6,0.5216846999992413,566.6611025000002,None,happy,0,Sad,567.1886967400012,None,None,567.1886967400012,None,,,,,,,,,,,,,,,,,,,,,,,,,,,,,,,,,,,,,,,,,,,,,,,,,,,,,16,001,male,29,350,400,2022_Oct_04_1331,Experiment,2021.1.4,360.174756804516,
images\S7_F_H_01.png,images\S7_F_H_01_scrambled.png,7,happy,10,female,4,,97,on,2,0.5,0.75,0.5,0.786,3,96,4,1,1,2,2,32,128,164,,,,,,0,25,25,25,,,,,,,,,,,,,,,,,,,,,,,,,,,,,,,,,,,,,,,,,,,,,,,,,,,,,,,,,567.2386984000004,567.7413198000013,567.7413198000013,568.4910866000009,568.4910866000009,568.9965437999999,568.9965437999999,569.7879948999998,569.7879948999998,None,num_4,0.2827507999991212,569.7879948999998,None,sad,0,Happy,570.0794907400002,None,None,570.0794907400002,None,,,,,,,,,,,,,,,,,,,,,,,,,,,,,,,,,,,,,,,,,,,,,,,,,,,,,16,001,male,29,350,400,2022_Oct_04_1331,Experiment,2021.1.4,360.174756804516,
images\S2_M_S_01.png,images\S2_M_S_01_scrambled.png,2,sad,-10,male,3,,190,on,2,0.5,0.75,0.5,0.799,3,189,5,1,1,2,2,32,128,163,,,,,,0,26,26,26,,,,,,,,,,,,,,,,,,,,,,,,,,,,,,,,,,,,,,,,,,,,,,,,,,,,,,,,,570.1267024000008,570.6321409000011,570.6321409000011,571.3818657000011,571.3818657000011,571.8873042000014,571.8873042000014,572.6870356,572.6870356,None,num_4,0.2238760000000184,572.6870356,None,sad,0,Sad,572.9341853400008,None,None,572.9341853400008,None,,,,,,,,,,,,,,,,,,,,,,,,,,,,,,,,,,,,,,,,,,,,,,,,,,,,,16,001,male,29,350,400,2022_Oct_04_1331,Experiment,2021.1.4,360.174756804516,
images\S5_F_H_02.png,images\S5_F_H_02_scrambled.png,5,happy,20,female,5,,206,on,2,0.5,0.75,0.5,0.786,3,205,6,1,1,2,2,32,128,165,,,,,,0,27,27,27,,,,,,,,,,,,,,,,,,,,,,,,,,,,,,,,,,,,,,,,,,,,,,,,,,,,,,,,,573.0008207999999,573.5034510000005,573.5034510000005,574.2532131000007,574.2532131000007,574.7559716000014,574.7559716000014,575.5472826000005,575.5472826000005,None,num_6,0.3716071999988344,575.5472826000005,None,happy,0,Happy,575.9305609800009,None,None,575.9305609800009,None,,,,,,,,,,,,,,,,,,,,,,,,,,,,,,,,,,,,,,,,,,,,,,,,,,,,,16,001,male,29,350,400,2022_Oct_04_1331,Experiment,2021.1.4,360.174756804516,
images\S4_M_S_01.png,images\S4_M_S_01_scrambled.png,4,sad,-10,male,3,,22,off,1,0.5,0.75,0.5,0.79,3,21,1,1,1,0,0,0,0,3,,,,,,0,28,28,28,,,,,,,,,,,,,,,,,,,,,,,,,,,,,,,,,,,,,,,,,,,,,,,,,,,,,,,,,575.9776967000016,576.4830966000009,576.4830966000009,577.235642900001,577.235642900001,577.7410694999999,577.7410694999999,578.5352441000014,578.5352441000014,None,num_4,0.36750060000122176,578.5352441000014,None,sad,0,Sad,578.9184501800006,None,None,578.9184501800006,None,,,,,,,,,,,,,,,,,,,,,,,,,,,,,,,,,,,,,,,,,,,,,,,,,,,,,16,001,male,29,350,400,2022_Oct_04_1331,Experiment,2021.1.4,360.174756804516,
images\S3_F_S_01.png,images\S3_F_S_01_scrambled.png,3,sad,-10,female,3,,436,on,2,0.5,0.75,0.5,0.845,3,435,1,1,2,2,2,32,128,163,,,,,,0,29,29,29,,,,,,,,,,,,,,,,,,,,,,,,,,,,,,,,,,,,,,,,,,,,,,,,,,,,,,,,,578.9684348999999,579.4738328000003,579.4738328000003,580.2263758000008,580.2263758000008,580.7318075000003,580.7318075000003,581.5759779,581.5759779,None,num_4,0.23090330000013637,581.5759779,None,sad,0,Sad,581.8203516800019,None,None,581.8203516800019,None,,,,,,,,,,,,,,,,,,,,,,,,,,,,,,,,,,,,,,,,,,,,,,,,,,,,,16,001,male,29,350,400,2022_Oct_04_1331,Experiment,2021.1.4,360.174756804516,
images\S6_M_H_03.png,images\S6_M_H_03_scrambled.png,6,happy,30,male,6,,93,on,2,0.5,0.75,0.5,0.943,3,92,2,1,1,2,2,32,128,166,,,,,,0,30,30,30,,,,,,,,,,,,,,,,,,,,,,,,,,,,,,,,,,,,,,,,,,,,,,,,,,,,,,,,,581.8675412000011,582.3729458000016,582.3729458000016,583.128267,583.128267,583.6309742000012,583.6309742000012,584.5778292000014,584.5778292000014,None,num_6,0.2288382000006095,584.5778292000014,None,happy,0,Happy,584.8221968800004,None,None,584.8221968800004,None,,,,,,,,,,,,,,,,,,,,,,,,,,,,,,,,,,,,,,,,,,,,,,,,,,,,,16,001,male,29,350,400,2022_Oct_04_1331,Experiment,2021.1.4,360.174756804516,
images\S9_F_H_02.png,images\S9_F_H_02_scrambled.png,9,happy,20,female,5,,290,off,1,0.5,0.75,0.5,0.83,3,289,1,1,1,0,0,0,0,5,,,,,,0,31,31,31,,,,,,,,,,,,,,,,,,,,,,,,,,,,,,,,,,,,,,,,,,,,,,,,,,,,,,,,,584.8693927000004,585.3692329000005,585.3692329000005,586.1218195000001,586.1218195000001,586.6244498000015,586.6244498000015,587.4575032000012,587.4575032000012,None,num_6,0.357595699999365,587.4575032000012,None,happy,0,Happy,587.8353072400012,None,None,587.8353072400012,None,,,,,,,,,,,,,,,,,,,,,,,,,,,,,,,,,,,,,,,,,,,,,,,,,,,,,16,001,male,29,350,400,2022_Oct_04_1331,Experiment,2021.1.4,360.174756804516,
images\S7_F_S_02.png,images\S7_F_S_02_scrambled.png,7,sad,-20,female,2,,161,off,1,0.5,0.75,0.5,0.93,3,160,2,1,1,0,0,0,0,2,,,,,,0,32,32,32,,,,,,,,,,,,,,,,,,,,,,,,,,,,,,,,,,,,,,,,,,,,,,,,,,,,,,,,,587.8851297000001,588.3877725000002,588.3877725000002,589.1403253000008,589.1403253000008,589.6401752000002,589.6401752000002,590.5760242000015,590.5760242000015,None,num_4,0.23916269999972428,590.5760242000015,None,sad,0,Sad,590.8397881600023,None,None,590.8397881600023,None,,,,,,,,,,,,,,,,,,,,,,,,,,,,,,,,,,,,,,,,,,,,,,,,,,,,,16,001,male,29,350,400,2022_Oct_04_1331,Experiment,2021.1.4,360.174756804516,
images\S3_F_H_03.png,images\S3_F_H_03_scrambled.png,3,happy,30,female,6,,495,off,1,0.5,0.75,0.5,0.792,3,494,3,1,1,0,0,0,0,6,,,,,,0,33,33,33,,,,,,,,,,,,,,,,,,,,,,,,,,,,,,,,,,,,,,,,,,,,,,,,,,,,,,,,,590.8925414000005,591.3951550000002,591.3951550000002,592.1449493,592.1449493,592.6504836000004,592.6504836000004,593.4445374000006,593.4445374000006,None,num_6,0.4181778000001941,593.4445374000006,None,happy,0,Happy,593.8777629000015,None,None,593.8777629000015,None,,,,,,,,,,,,,,,,,,,,,,,,,,,,,,,,,,,,,,,,,,,,,,,,,,,,,16,001,male,29,350,400,2022_Oct_04_1331,Experiment,2021.1.4,360.174756804516,
images\S7_F_H_03.png,images\S7_F_H_03_scrambled.png,7,happy,30,female,6,,519,off,1,0.5,0.75,0.5,0.856,3,518,4,1,2,0,0,0,0,6,,,,,,0,34,34,34,,,,,,,,,,,,,,,,,,,,,,,,,,,,,,,,,,,,,,,,,,,,,,,,,,,,,,,,,593.9249374999999,594.4275923000005,594.4275923000005,595.1802510000016,595.1802510000016,595.682748700001,595.682748700001,596.5409376000007,596.5409376000007,None,None,,596.5409376000007,None,miss,0,Happy,599.548229140001,None,None,599.548229140001,None,,,,,,,,,,,,,,,,,,,,,,,,,,,,,,,,,,,,,,,,,,,,,,,,,,,,,16,001,male,29,350,400,2022_Oct_04_1331,Experiment,2021.1.4,360.174756804516,
images\S4_M_H_02.png,images\S4_M_H_02_scrambled.png,4,happy,20,male,5,,500,off,1,0.5,0.75,0.5,0.796,3,499,5,1,1,0,0,0,0,5,,,,,,0,35,35,35,,,,,,,,,,,,,,,,,,,,,,,,,,,,,,,,,,,,,,,,,,,,,,,,,,,,,,,,,599.5954278000008,600.0980608000009,600.0980608000009,600.8506057000013,600.8506057000013,601.3560557000001,601.3560557000001,602.1559041,602.1559041,599.5954278000008,num_4,0.2348855000000185,602.1559041,599.5954278000008,sad,0,Happy,602.4001114400005,None,None,602.4001114400005,None,,,,,,,,,,,,,,,,,,,,,,,,,,,,,,,,,,,,,,,,,,,,,,,,,,,,,16,001,male,29,350,400,2022_Oct_04_1331,Experiment,2021.1.4,360.174756804516,
images\S2_M_S_01.png,images\S2_M_S_01_scrambled.png,2,sad,-10,male,3,,430,on,2,0.5,0.75,0.5,0.928,3,429,1,1,1,2,2,32,128,163,,,,,,0,36,36,36,,,,,,,,,,,,,,,,,,,,,,,,,,,,,,,,,,,,,,,,,,,,,,,,,,,,,,,,,602.4473290000005,602.9527082000004,602.9527082000004,603.7054007000006,603.7054007000006,604.2107676000014,604.2107676000014,605.1410116000006,605.1410116000006,None,num_4,0.92972650000047,605.1410116000006,None,sad,0,Sad,606.085094980002,None,None,606.085094980002,None,,,,,,,,,,,,,,,,,,,,,,,,,,,,,,,,,,,,,,,,,,,,,,,,,,,,,16,001,male,29,350,400,2022_Oct_04_1331,Experiment,2021.1.4,360.174756804516,
images\S6_M_S_02.png,images\S6_M_S_02_scrambled.png,6,sad,-20,male,2,,95,on,2,0.5,0.75,0.5,0.765,3,94,2,1,1,2,2,32,128,162,,,,,,0,37,37,37,,,,,,,,,,,,,,,,,,,,,,,,,,,,,,,,,,,,,,,,,,,,,,,,,,,,,,,,,606.1322990000008,606.6350641000008,606.6350641000008,607.3874841000015,607.3874841000015,607.8902373000001,607.8902373000001,608.6621029000016,608.6621029000016,None,num_4,0.2647300999997242,608.6621029000016,None,sad,0,Sad,608.9371786800017,None,None,608.9371786800017,None,,,,,,,,,,,,,,,,,,,,,,,,,,,,,,,,,,,,,,,,,,,,,,,,,,,,,16,001,male,29,350,400,2022_Oct_04_1331,Experiment,2021.1.4,360.174756804516,
images\S6_M_S_03.png,images\S6_M_S_03_scrambled.png,6,sad,-30,male,1,,516,off,1,0.5,0.75,0.5,0.784,3,515,1,2,1,0,0,0,0,1,,,,,,0,38,38,38,,,,,,,,,,,,,,,,,,,,,,,,,,,,,,,,,,,,,,,,,,,,,,,,,,,,,,,,,608.9842028000003,609.4840487000001,609.4840487000001,610.236628300001,610.236628300001,610.7420177000004,610.7420177000004,611.5335222000012,611.5335222000012,None,num_4,0.25723850000031234,611.5335222000012,None,sad,0,Sad,611.8166957600016,None,None,611.8166957600016,None,,,,,,,,,,,,,,,,,,,,,,,,,,,,,,,,,,,,,,,,,,,,,,,,,,,,,16,001,male,29,350,400,2022_Oct_04_1331,Experiment,2021.1.4,360.174756804516,
images\S8_M_H_03.png,images\S8_M_H_03_scrambled.png,8,happy,30,male,6,,45,off,1,0.5,0.75,0.5,0.842,3,44,2,1,1,0,0,0,0,6,,,,,,0,39,39,39,,,,,,,,,,,,,,,,,,,,,,,,,,,,,,,,,,,,,,,,,,,,,,,,,,,,,,,,,611.8694181999999,612.3720730000005,612.3720730000005,613.1218128,613.1218128,613.6244296000004,613.6244296000004,614.4714563000016,614.4714563000016,None,num_6,0.24733960000048683,614.4714563000016,None,happy,0,Happy,614.7324476800019,None,None,614.7324476800019,None,,,,,,,,,,,,,,,,,,,,,,,,,,,,,,,,,,,,,,,,,,,,,,,,,,,,,16,001,male,29,350,400,2022_Oct_04_1331,Experiment,2021.1.4,360.174756804516,
images\S3_F_H_01.png,images\S3_F_H_01_scrambled.png,3,happy,10,female,4,,253,off,1,0.5,0.75,0.5,0.776,3,252,3,1,1,0,0,0,0,4,,,,,,0,40,40,40,,,,,,,,,,,,,,,,,,,,,,,,,,,,,,,,,,,,,,,,,,,,,,,,,,,,,,,,,614.7796428000001,615.2822905000012,615.2822905000012,616.0375960000001,616.0375960000001,616.5403560000013,616.5403560000013,617.3205445000003,617.3205445000003,None,num_4,1.2221860000008746,617.3205445000003,None,sad,0,Happy,618.5479206400003,None,None,618.5479206400003,None,,,,,,,,,,,,,,,,,,,,,,,,,,,,,,,,,,,,,,,,,,,,,,,,,,,,,16,001,male,29,350,400,2022_Oct_04_1331,Experiment,2021.1.4,360.174756804516,
images\S8_M_H_01.png,images\S8_M_H_01_scrambled.png,8,happy,10,male,4,,163,off,1,0.5,0.75,0.5,0.94,3,162,4,1,2,0,0,0,0,4,,,,,,0,41,41,41,,,,,,,,,,,,,,,,,,,,,,,,,,,,,,,,,,,,,,,,,,,,,,,,,,,,,,,,,618.5951415,619.0977724000004,619.0977724000004,619.853087200001,619.853087200001,620.3557988000011,620.3557988000011,621.3026592000006,621.3026592000006,None,num_6,0.30396599999949103,621.3026592000006,None,happy,0,Happy,621.6331053800019,None,None,621.6331053800019,None,,,,,,,,,,,,,,,,,,,,,,,,,,,,,,,,,,,,,,,,,,,,,,,,,,,,,16,001,male,29,350,400,2022_Oct_04_1331,Experiment,2021.1.4,360.174756804516,
images\blank.jpg,images\blank.jpg,none,none,none,none,0,,643,on,2,0.5,0.75,0.5,0.929,0,642,1,1,1,3,3,48,192,240,,,,,,0,42,42,42,,,,,,,,,,,,,,,,,,,,,,,,,,,,,,,,,,,,,,,,,,,,,,,,,,,,,,,,,621.7278965000005,622.2301251000008,622.2301251000008,622.9799235999999,622.9799235999999,623.4825353000015,623.4825353000015,624.4128016000013,624.4128016000013,624.4128016000013,None,,624.4128016000013,None,miss,0,,627.4147221400005,None,None,627.4147221400005,None,,,,,,,,,,,,,,,,,,,,,,,,,,,,,,,,,,,,,,,,,,,,,,,,,,,,,16,001,male,29,350,400,2022_Oct_04_1331,Experiment,2021.1.4,360.174756804516,
images\S8_M_S_01.png,images\S8_M_S_01_scrambled.png,8,sad,-10,male,3,,286,off,1,0.5,0.75,0.5,0.851,3,285,1,1,1,0,0,0,0,3,,,,,,0,43,43,43,,,,,,,,,,,,,,,,,,,,,,,,,,,,,,,,,,,,,,,,,,,,,,,,,,,,,,,,,627.5343381000002,628.039589,628.039589,628.792035800001,628.792035800001,629.2974276000004,629.2974276000004,630.1527125000011,630.1527125000011,None,num_4,0.26251479999882577,630.1527125000011,627.5343381000002,sad,0,Sad,630.436055720002,None,None,630.436055720002,None,,,,,,,,,,,,,,,,,,,,,,,,,,,,,,,,,,,,,,,,,,,,,,,,,,,,,16,001,male,29,350,400,2022_Oct_04_1331,Experiment,2021.1.4,360.174756804516,
images\S7_F_S_03.png,images\S7_F_S_03_scrambled.png,7,sad,-30,female,1,,522,off,1,0.5,0.75,0.5,0.931,3,521,2,1,1,0,0,0,0,1,,,,,,0,44,44,44,,,,,,,,,,,,,,,,,,,,,,,,,,,,,,,,,,,,,,,,,,,,,,,,,,,,,,,,,630.4859241000013,630.9857585000009,630.9857585000009,631.7383082000015,631.7383082000015,632.2410065000004,632.2410065000004,633.1712113000012,633.1712113000012,None,num_4,0.20396849999997357,633.1712113000012,None,sad,0,Sad,633.396258520001,None,None,633.396258520001,None,,,,,,,,,,,,,,,,,,,,,,,,,,,,,,,,,,,,,,,,,,,,,,,,,,,,,16,001,male,29,350,400,2022_Oct_04_1331,Experiment,2021.1.4,360.174756804516,
images\S7_F_H_02.png,images\S7_F_H_02_scrambled.png,7,happy,20,female,5,,158,off,1,0.5,0.75,0.5,0.886,3,157,3,2,1,0,0,0,0,5,,,,,,0,45,45,45,,,,,,,,,,,,,,,,,,,,,,,,,,,,,,,,,,,,,,,,,,,,,,,,,,,,,,,,,633.4461245000002,633.9515617000015,633.9515617000015,634.7012967999999,634.7012967999999,635.2067271000014,635.2067271000014,636.0954382,636.0954382,None,num_6,0.2232956000007107,636.0954382,None,happy,0,Happy,636.3453945400022,None,None,636.3453945400022,None,,,,,,,,,,,,,,,,,,,,,,,,,,,,,,,,,,,,,,,,,,,,,,,,,,,,,16,001,male,29,350,400,2022_Oct_04_1331,Experiment,2021.1.4,360.174756804516,
images\S7_F_H_02.png,images\S7_F_H_02_scrambled.png,7,happy,20,female,5,,458,on,2,0.5,0.75,0.5,0.846,3,457,1,3,2,2,2,32,128,165,,,,,,0,46,46,46,,,,,,,,,,,,,,,,,,,,,,,,,,,,,,,,,,,,,,,,,,,,,,,,,,,,,,,,,636.3952182000012,636.9007086000001,636.9007086000001,637.6559987,637.6559987,638.1613796000001,638.1613796000001,639.0111216000005,639.0111216000005,None,num_6,0.33150620000014897,639.0111216000005,None,happy,0,Happy,639.3554252800019,None,None,639.3554252800019,None,,,,,,,,,,,,,,,,,,,,,,,,,,,,,,,,,,,,,,,,,,,,,,,,,,,,,16,001,male,29,350,400,2022_Oct_04_1331,Experiment,2021.1.4,360.174756804516,
images\S5_F_S_03.png,images\S5_F_S_03_scrambled.png,5,sad,-30,female,1,,150,off,1,0.5,0.75,0.5,0.826,3,149,1,1,1,0,0,0,0,1,,,,,,0,47,47,47,,,,,,,,,,,,,,,,,,,,,,,,,,,,,,,,,,,,,,,,,,,,,,,,,,,,,,,,,639.4055469000014,639.9080455000003,639.9080455000003,640.6605926000011,640.6605926000011,641.1631902000008,641.1631902000008,641.9963198000005,641.9963198000005,None,num_4,0.47446750000017346,641.9963198000005,None,sad,0,Sad,642.4850226800005,None,None,642.4850226800005,None,,,,,,,,,,,,,,,,,,,,,,,,,,,,,,,,,,,,,,,,,,,,,,,,,,,,,16,001,male,29,350,400,2022_Oct_04_1331,Experiment,2021.1.4,360.174756804516,
images\S8_M_H_03.png,images\S8_M_H_03_scrambled.png,8,happy,30,male,6,,285,off,1,0.5,0.75,0.5,0.905,3,284,2,1,1,0,0,0,0,6,,,,,,0,48,48,48,,,,,,,,,,,,,,,,,,,,,,,,,,,,,,,,,,,,,,,,,,,,,,,,,,,,,,,,,642.5322305000009,643.0376368000016,643.0376368000016,643.792952400001,643.792952400001,644.2955838000016,644.2955838000016,645.2064418000009,645.2064418000009,None,num_6,0.23270100000081584,645.2064418000009,None,happy,0,Happy,645.4647634600016,None,None,645.4647634600016,None,,,,,,,,,,,,,,,,,,,,,,,,,,,,,,,,,,,,,,,,,,,,,,,,,,,,,16,001,male,29,350,400,2022_Oct_04_1331,Experiment,2021.1.4,360.174756804516,
images\S2_M_H_01.png,images\S2_M_H_01_scrambled.png,2,happy,10,male,4,,547,on,2,0.5,0.75,0.5,0.774,3,546,1,1,1,2,2,32,128,164,,,,,,0,49,49,49,,,,,,,,,,,,,,,,,,,,,,,,,,,,,,,,,,,,,,,,,,,,,,,,,,,,,,,,,645.5174173000014,646.0201733000013,646.0201733000013,646.7753671999999,646.7753671999999,647.2808335000009,647.2808335000009,648.0583056000014,648.0583056000014,None,num_6,0.38055899999926623,648.0583056000014,None,happy,0,Happy,648.4526453800005,None,None,648.4526453800005,None,,,,,,,,,,,,,,,,,,,,,,,,,,,,,,,,,,,,,,,,,,,,,,,,,,,,,16,001,male,29,350,400,2022_Oct_04_1331,Experiment,2021.1.4,360.174756804516,
images\S4_M_S_01.png,images\S4_M_S_01_scrambled.png,4,sad,-10,male,3,,202,on,2,0.5,0.75,0.5,0.907,3,201,2,1,1,2,2,32,128,163,,,,,,0,50,50,50,,,,,,,,,,,,,,,,,,,,,,,,,,,,,,,,,,,,,,,,,,,,,,,,,,,,,,,,,648.4998337000015,649.0053791999999,649.0053791999999,649.7606842000005,649.7606842000005,650.2660233000006,650.2660233000006,651.1768216,651.1768216,None,num_4,0.19001370000114548,651.1768216,None,sad,0,Sad,651.3768500800012,None,None,651.3768500800012,None,,,,,,,,,,,,,,,,,,,,,,,,,,,,,,,,,,,,,,,,,,,,,,,,,,,,,16,001,male,29,350,400,2022_Oct_04_1331,Experiment,2021.1.4,360.174756804516,
images\S3_F_H_03.png,images\S3_F_H_03_scrambled.png,3,happy,30,female,6,,255,off,1,0.5,0.75,0.5,0.846,3,254,1,1,1,0,0,0,0,6,,,,,,0,51,51,51,,,,,,,,,,,,,,,,,,,,,,,,,,,,,,,,,,,,,,,,,,,,,,,,,,,,,,,,,651.4239328000003,651.9265920000016,651.9265920000016,652.6819032000003,652.6819032000003,653.1873003000001,653.1873003000001,654.0370114000016,654.0370114000016,None,num_6,0.2500761999999668,654.0370114000016,None,happy,0,Happy,654.3148208600006,None,None,654.3148208600006,None,,,,,,,,,,,,,,,,,,,,,,,,,,,,,,,,,,,,,,,,,,,,,,,,,,,,,16,001,male,29,350,400,2022_Oct_04_1331,Experiment,2021.1.4,360.174756804516,
images\S3_F_H_03.png,images\S3_F_H_03_scrambled.png,3,happy,30,female,6,,135,off,1,0.5,0.75,0.5,0.764,3,134,2,2,2,0,0,0,0,6,,,,,,0,52,52,52,,,,,,,,,,,,,,,,,,,,,,,,,,,,,,,,,,,,,,,,,,,,,,,,,,,,,,,,,654.3674750999999,654.8700895000002,654.8700895000002,655.6198579000011,655.6198579000011,656.1253906000002,656.1253906000002,656.8917317000014,656.8917317000014,None,num_6,0.9948927999994339,656.8917317000014,None,happy,0,Happy,657.8969644800014,None,None,657.8969644800014,None,,,,,,,,,,,,,,,,,,,,,,,,,,,,,,,,,,,,,,,,,,,,,,,,,,,,,16,001,male,29,350,400,2022_Oct_04_1331,Experiment,2021.1.4,360.174756804516,
images\S10_M_S_03.png,images\S10_M_S_03_scrambled.png,10,sad,-30,male,1,,180,off,1,0.5,0.75,0.5,0.904,3,179,3,1,1,0,0,0,0,1,,,,,,0,53,53,53,,,,,,,,,,,,,,,,,,,,,,,,,,,,,,,,,,,,,,,,,,,,,,,,,,,,,,,,,657.9441511000005,658.4439884000003,658.4439884000003,659.1993207000014,659.1993207000014,659.7019669000001,659.7019669000001,660.6101268000002,660.6101268000002,None,num_4,0.2366965999990498,660.6101268000002,None,sad,0,Sad,660.857243680002,None,None,660.857243680002,None,,,,,,,,,,,,,,,,,,,,,,,,,,,,,,,,,,,,,,,,,,,,,,,,,,,,,16,001,male,29,350,400,2022_Oct_04_1331,Experiment,2021.1.4,360.174756804516,
images\S4_M_S_01.png,images\S4_M_S_01_scrambled.png,4,sad,-10,male,3,,502,off,1,0.5,0.75,0.5,0.854,3,501,4,1,1,0,0,0,0,3,,,,,,0,54,54,54,,,,,,,,,,,,,,,,,,,,,,,,,,,,,,,,,,,,,,,,,,,,,,,,,,,,,,,,,660.9043525000016,661.4070007000009,661.4070007000009,662.1567429000006,662.1567429000006,662.6593603000001,662.6593603000001,663.5174642000002,663.5174642000002,None,num_4,0.25724710000031337,663.5174642000002,None,sad,0,Sad,663.7895807800011,None,None,663.7895807800011,None,,,,,,,,,,,,,,,,,,,,,,,,,,,,,,,,,,,,,,,,,,,,,,,,,,,,,16,001,male,29,350,400,2022_Oct_04_1331,Experiment,2021.1.4,360.174756804516,
images\S6_M_H_01.png,images\S6_M_H_01_scrambled.png,6,happy,10,male,4,,91,on,2,0.5,0.75,0.5,0.912,3,90,1,1,1,2,2,32,128,164,,,,,,0,55,55,55,,,,,,,,,,,,,,,,,,,,,,,,,,,,,,,,,,,,,,,,,,,,,,,,,,,,,,,,,663.8367862000014,664.3394001000015,664.3394001000015,665.0891688000011,665.0891688000011,665.5918321000008,665.5918321000008,666.5081665000016,666.5081665000016,None,num_6,0.31489719999990484,666.5081665000016,None,happy,0,Happy,666.8470875400005,None,None,666.8470875400005,None,,,,,,,,,,,,,,,,,,,,,,,,,,,,,,,,,,,,,,,,,,,,,,,,,,,,,16,001,male,29,350,400,2022_Oct_04_1331,Experiment,2021.1.4,360.174756804516,
images\S2_M_H_01.png,images\S2_M_H_01_scrambled.png,2,happy,10,male,4,,187,on,2,0.5,0.75,0.5,0.927,3,186,2,1,2,2,2,32,128,164,,,,,,0,56,56,56,,,,,,,,,,,,,,,,,,,,,,,,,,,,,,,,,,,,,,,,,,,,,,,,,,,,,,,,,666.9024795000005,667.4052643000014,667.4052643000014,668.1548957000014,668.1548957000014,668.6603822000015,668.6603822000015,669.5906926000007,669.5906926000007,None,num_6,0.21628229999987525,669.5906926000007,None,happy,0,Happy,669.8210575800018,None,None,669.8210575800018,None,,,,,,,,,,,,,,,,,,,,,,,,,,,,,,,,,,,,,,,,,,,,,,,,,,,,,16,001,male,29,350,400,2022_Oct_04_1331,Experiment,2021.1.4,360.174756804516,
images\S1_F_H_02.png,images\S1_F_H_02_scrambled.png,1,happy,20,female,5,,122,off,1,0.5,0.75,0.5,0.751,3,121,1,1,1,0,0,0,0,5,,,,,,0,57,57,57,,,,,,,,,,,,,,,,,,,,,,,,,,,,,,,,,,,,,,,,,,,,,,,,,,,,,,,,,669.8682769000006,670.3736625000001,670.3736625000001,671.1262499000004,671.1262499000004,671.6316439000002,671.6316439000002,672.3869553000004,672.3869553000004,None,num_6,0.23560920000090846,672.3869553000004,None,happy,0,Happy,672.6340647800004,None,None,672.6340647800004,None,,,,,,,,,,,,,,,,,,,,,,,,,,,,,,,,,,,,,,,,,,,,,,,,,,,,,16,001,male,29,350,400,2022_Oct_04_1331,Experiment,2021.1.4,360.174756804516,
images\blank.jpg,images\blank.jpg,none,none,none,none,0,,612,on,2,0.5,0.75,0.5,0.766,0,611,1,1,1,3,3,48,192,240,,,,,,0,58,58,58,,,,,,,,,,,,,,,,,,,,,,,,,,,,,,,,,,,,,,,,,,,,,,,,,,,,,,,,,672.7175592000003,673.2201567000011,673.2201567000011,673.9697750000014,673.9697750000014,674.4723879000012,674.4723879000012,675.2388658,675.2388658,675.2388658,None,,675.2388658,None,miss,0,,678.2379378200006,None,None,678.2379378200006,None,,,,,,,,,,,,,,,,,,,,,,,,,,,,,,,,,,,,,,,,,,,,,,,,,,,,,16,001,male,29,350,400,2022_Oct_04_1331,Experiment,2021.1.4,360.174756804516,
images\S6_M_S_01.png,images\S6_M_S_01_scrambled.png,6,sad,-10,male,3,,94,on,2,0.5,0.75,0.5,0.947,3,93,2,1,1,2,2,32,128,163,,,,,,0,59,59,59,,,,,,,,,,,,,,,,,,,,,,,,,,,,,,,,,,,,,,,,,,,,,,,,,,,,,,,,,678.3520139000011,678.8571896000012,678.8571896000012,679.6097347000014,679.6097347000014,680.1123261000012,680.1123261000012,681.0620664000016,681.0620664000016,None,num_4,1.2245428999995056,681.0620664000016,678.3520139000011,sad,0,Sad,682.3005692000006,None,None,682.3005692000006,None,,,,,,,,,,,,,,,,,,,,,,,,,,,,,,,,,,,,,,,,,,,,,,,,,,,,,16,001,male,29,350,400,2022_Oct_04_1331,Experiment,2021.1.4,360.174756804516,
images\S8_M_S_02.png,images\S8_M_S_02_scrambled.png,8,sad,-20,male,2,,587,on,2,0.5,0.75,0.5,0.775,3,586,3,1,1,2,2,32,128,162,,,,,,0,60,60,60,,,,,,,,,,,,,,,,,,,,,,,,,,,,,,,,,,,,,,,,,,,,,,,,,,,,,,,,,682.3477855000001,682.8531576000005,682.8531576000005,683.6084903999999,683.6084903999999,684.111159600001,684.111159600001,684.888681800001,684.888681800001,None,num_4,0.24611230000118667,684.888681800001,None,sad,0,Sad,685.1496852800007,None,None,685.1496852800007,None,,,,,,,,,,,,,,,,,,,,,,,,,,,,,,,,,,,,,,,,,,,,,,,,,,,,,16,001,male,29,350,400,2022_Oct_04_1331,Experiment,2021.1.4,360.174756804516,
images\S3_F_S_02.png,images\S3_F_S_02_scrambled.png,3,sad,-20,female,2,,257,off,1,0.5,0.75,0.5,0.793,3,256,1,1,2,0,0,0,0,2,,,,,,0,61,61,61,,,,,,,,,,,,,,,,,,,,,,,,,,,,,,,,,,,,,,,,,,,,,,,,,,,,,,,,,685.1968903000015,685.6996497,685.6996497,686.4492728000005,686.4492728000005,686.9519337000002,686.9519337000002,687.7460967000006,687.7460967000006,None,num_4,0.28506059999926947,687.7460967000006,None,sad,0,Sad,688.0460119800006,None,None,688.0460119800006,None,,,,,,,,,,,,,,,,,,,,,,,,,,,,,,,,,,,,,,,,,,,,,,,,,,,,,16,001,male,29,350,400,2022_Oct_04_1331,Experiment,2021.1.4,360.174756804516,
images\S5_F_H_03.png,images\S5_F_H_03_scrambled.png,5,happy,30,female,6,,567,on,2,0.5,0.75,0.5,0.753,3,566,1,1,1,2,2,32,128,166,,,,,,0,62,62,62,,,,,,,,,,,,,,,,,,,,,,,,,,,,,,,,,,,,,,,,,,,,,,,,,,,,,,,,,688.0932148000011,688.5986184000012,688.5986184000012,689.3512116000002,689.3512116000002,689.8537845999999,689.8537845999999,690.6119234000016,690.6119234000016,None,num_6,0.22677139999905194,690.6119234000016,None,happy,0,Happy,690.8534867800005,None,None,690.8534867800005,None,,,,,,,,,,,,,,,,,,,,,,,,,,,,,,,,,,,,,,,,,,,,,,,,,,,,,16,001,male,29,350,400,2022_Oct_04_1331,Experiment,2021.1.4,360.174756804516,
images\S5_F_H_03.png,images\S5_F_H_03_scrambled.png,5,happy,30,female,6,,87,on,2,0.5,0.75,0.5,0.887,3,86,2,2,2,2,2,32,128,166,,,,,,0,63,63,63,,,,,,,,,,,,,,,,,,,,,,,,,,,,,,,,,,,,,,,,,,,,,,,,,,,,,,,,,690.9006845000004,691.4061371000007,691.4061371000007,692.1614663,692.1614663,692.6668451000005,692.6668451000005,693.5610291000012,693.5610291000012,None,num_6,0.27781119999963266,693.5610291000012,None,happy,0,Happy,693.8525665800004,None,None,693.8525665800004,None,,,,,,,,,,,,,,,,,,,,,,,,,,,,,,,,,,,,,,,,,,,,,,,,,,,,,16,001,male,29,350,400,2022_Oct_04_1331,Experiment,2021.1.4,360.174756804516,
images\S10_M_S_01.png,images\S10_M_S_01_scrambled.png,10,sad,-10,male,3,,418,off,1,0.5,0.75,0.5,0.842,3,417,1,1,1,0,0,0,0,3,,,,,,0,64,64,64,,,,,,,,,,,,,,,,,,,,,,,,,,,,,,,,,,,,,,,,,,,,,,,,,,,,,,,,,693.8997642000013,694.4024107000005,694.4024107000005,695.1550894000011,695.1550894000011,695.6604445000012,695.6604445000012,696.5073198999999,696.5073198999999,None,num_6,0.2754075000011653,696.5073198999999,None,happy,0,Sad,696.7933235800007,None,None,696.7933235800007,None,,,,,,,,,,,,,,,,,,,,,,,,,,,,,,,,,,,,,,,,,,,,,,,,,,,,,16,001,male,29,350,400,2022_Oct_04_1331,Experiment,2021.1.4,360.174756804516,
images\S2_M_H_01.png,images\S2_M_H_01_scrambled.png,2,happy,10,male,4,,487,off,1,0.5,0.75,0.5,0.926,3,486,2,1,1,0,0,0,0,4,,,,,,0,65,65,65,,,,,,,,,,,,,,,,,,,,,,,,,,,,,,,,,,,,,,,,,,,,,,,,,,,,,,,,,696.8599670000003,697.3626103000006,697.3626103000006,698.1179231000006,698.1179231000006,698.6206650000004,698.6206650000004,699.5508948000006,699.5508948000006,None,num_6,0.19994979999864881,699.5508948000006,None,happy,0,Happy,699.7646314800019,None,None,699.7646314800019,None,,,,,,,,,,,,,,,,,,,,,,,,,,,,,,,,,,,,,,,,,,,,,,,,,,,,,16,001,male,29,350,400,2022_Oct_04_1331,Experiment,2021.1.4,360.174756804516,
images\S3_F_S_02.png,images\S3_F_S_02_scrambled.png,3,sad,-20,female,2,,497,off,1,0.5,0.75,0.5,0.803,3,496,3,1,1,0,0,0,0,2,,,,,,0,66,66,66,,,,,,,,,,,,,,,,,,,,,,,,,,,,,,,,,,,,,,,,,,,,,,,,,,,,,,,,,699.8118357000003,700.3116777000014,700.3116777000014,701.0614526000008,701.0614526000008,701.5668785000016,701.5668785000016,702.3721763000012,702.3721763000012,None,num_4,0.21874100000059116,702.3721763000012,None,sad,0,Sad,702.6165446600018,None,None,702.6165446600018,None,,,,,,,,,,,,,,,,,,,,,,,,,,,,,,,,,,,,,,,,,,,,,,,,,,,,,16,001,male,29,350,400,2022_Oct_04_1331,Experiment,2021.1.4,360.174756804516,
images\S9_F_S_01.png,images\S9_F_S_01_scrambled.png,9,sad,-10,female,3,,352,on,2,0.5,0.75,0.5,0.83,3,351,1,1,1,2,2,32,128,163,,,,,,0,67,67,67,,,,,,,,,,,,,,,,,,,,,,,,,,,,,,,,,,,,,,,,,,,,,,,,,,,,,,,,,702.6804080000002,703.1858859000004,703.1858859000004,703.9411690000015,703.9411690000015,704.4465735000013,704.4465735000013,705.2768160000014,705.2768160000014,None,num_4,0.545974099999512,705.2768160000014,None,sad,0,Sad,705.8377667800011,None,None,705.8377667800011,None,,,,,,,,,,,,,,,,,,,,,,,,,,,,,,,,,,,,,,,,,,,,,,,,,,,,,16,001,male,29,350,400,2022_Oct_04_1331,Experiment,2021.1.4,360.174756804516,
images\S4_M_S_03.png,images\S4_M_S_03_scrambled.png,4,sad,-30,male,1,,204,on,2,0.5,0.75,0.5,0.846,3,203,2,1,1,2,2,32,128,161,,,,,,0,68,68,68,,,,,,,,,,,,,,,,,,,,,,,,,,,,,,,,,,,,,,,,,,,,,,,,,,,,,,,,,705.8877364,706.3904243000015,706.3904243000015,707.1457928,707.1457928,707.6511367000003,707.6511367000003,708.5009205000006,708.5009205000006,None,num_4,0.22573519999968994,708.5009205000006,None,sad,0,Sad,708.7369211800011,None,None,708.7369211800011,None,,,,,,,,,,,,,,,,,,,,,,,,,,,,,,,,,,,,,,,,,,,,,,,,,,,,,16,001,male,29,350,400,2022_Oct_04_1331,Experiment,2021.1.4,360.174756804516,
images\S6_M_S_02.png,images\S6_M_S_02_scrambled.png,6,sad,-20,male,2,,335,on,2,0.5,0.75,0.5,0.918,3,334,3,1,1,2,2,32,128,162,,,,,,0,69,69,69,,,,,,,,,,,,,,,,,,,,,,,,,,,,,,,,,,,,,,,,,,,,,,,,,,,,,,,,,708.7840764000011,709.2867353000001,709.2867353000001,710.0364657999999,710.0364657999999,710.5419040000015,710.5419040000015,711.4666211000003,711.4666211000003,None,num_4,0.28397989999939455,711.4666211000003,None,sad,0,Sad,711.7609529800008,None,None,711.7609529800008,None,,,,,,,,,,,,,,,,,,,,,,,,,,,,,,,,,,,,,,,,,,,,,,,,,,,,,16,001,male,29,350,400,2022_Oct_04_1331,Experiment,2021.1.4,360.174756804516,
images\S6_M_H_01.png,images\S6_M_H_01_scrambled.png,6,happy,10,male,4,,391,off,1,0.5,0.75,0.5,0.88,3,390,1,2,1,0,0,0,0,4,,,,,,0,70,70,70,,,,,,,,,,,,,,,,,,,,,,,,,,,,,,,,,,,,,,,,,,,,,,,,,,,,,,,,,711.8081457000008,712.3108590000011,712.3108590000011,713.063317600001,713.063317600001,713.5660090000001,713.5660090000001,714.4490027000011,714.4490027000011,None,num_6,0.2219585000002553,714.4490027000011,None,happy,0,Happy,714.6906652200017,None,None,714.6906652200017,None,,,,,,,,,,,,,,,,,,,,,,,,,,,,,,,,,,,,,,,,,,,,,,,,,,,,,16,001,male,29,350,400,2022_Oct_04_1331,Experiment,2021.1.4,360.174756804516,
images\blank.jpg,images\blank.jpg,none,none,none,none,0,,617,on,2,0.5,0.75,0.5,0.822,0,616,1,1,1,3,3,48,192,240,,,,,,0,71,71,71,,,,,,,,,,,,,,,,,,,,,,,,,,,,,,,,,,,,,,,,,,,,,,,,,,,,,,,,,714.7741736000007,715.2765151000003,715.2765151000003,716.0318844000012,716.0318844000012,716.5372738000005,716.5372738000005,717.3592518000005,717.3592518000005,717.3592518000005,None,,717.3592518000005,None,miss,0,,720.3610911200016,None,None,720.3610911200016,None,,,,,,,,,,,,,,,,,,,,,,,,,,,,,,,,,,,,,,,,,,,,,,,,,,,,,16,001,male,29,350,400,2022_Oct_04_1331,Experiment,2021.1.4,360.174756804516,
images\S3_F_H_03.png,images\S3_F_H_03_scrambled.png,3,happy,30,female,6,,195,on,2,0.5,0.75,0.5,0.802,3,194,2,1,1,2,2,32,128,166,,,,,,0,72,72,72,,,,,,,,,,,,,,,,,,,,,,,,,,,,,,,,,,,,,,,,,,,,,,,,,,,,,,,,,720.4751792000006,720.974766700001,720.974766700001,721.7245812000001,721.7245812000001,722.2271576000003,722.2271576000003,723.0324688000001,723.0324688000001,None,num_4,2.1023975999996765,723.0324688000001,720.4751792000006,sad,0,Happy,725.1429337400011,None,None,725.1429337400011,None,,,,,,,,,,,,,,,,,,,,,,,,,,,,,,,,,,,,,,,,,,,,,,,,,,,,,16,001,male,29,350,400,2022_Oct_04_1331,Experiment,2021.1.4,360.174756804516,
images\S5_F_H_01.png,images\S5_F_H_01_scrambled.png,5,happy,10,female,4,,445,on,2,0.5,0.75,0.5,0.815,3,444,3,1,1,2,2,32,128,164,,,,,,0,73,73,73,,,,,,,,,,,,,,,,,,,,,,,,,,,,,,,,,,,,,,,,,,,,,,,,,,,,,,,,,725.1901468000015,725.6899838000008,725.6899838000008,726.4425523999998,726.4425523999998,726.9451504000008,726.9451504000008,727.7643996000006,727.7643996000006,None,num_4,1.8663594999998168,727.7643996000006,None,sad,0,Happy,729.6360064400003,None,None,729.6360064400003,None,,,,,,,,,,,,,,,,,,,,,,,,,,,,,,,,,,,,,,,,,,,,,,,,,,,,,16,001,male,29,350,400,2022_Oct_04_1331,Experiment,2021.1.4,360.174756804516,
images\S3_F_S_02.png,images\S3_F_S_02_scrambled.png,3,sad,-20,female,2,,137,off,1,0.5,0.75,0.5,0.917,3,136,1,1,1,0,0,0,0,2,,,,,,0,74,74,74,,,,,,,,,,,,,,,,,,,,,,,,,,,,,,,,,,,,,,,,,,,,,,,,,,,,,,,,,729.6832161000002,730.1830686000012,730.1830686000012,730.9357256000003,730.9357256000003,731.4410521999998,731.4410521999998,732.3603061000013,732.3603061000013,None,num_4,0.21455840000089665,732.3603061000013,None,sad,0,Sad,732.5962844600009,None,None,732.5962844600009,None,,,,,,,,,,,,,,,,,,,,,,,,,,,,,,,,,,,,,,,,,,,,,,,,,,,,,16,001,male,29,350,400,2022_Oct_04_1331,Experiment,2021.1.4,360.174756804516,
images\S2_M_H_01.png,images\S2_M_H_01_scrambled.png,2,happy,10,male,4,,67,on,2,0.5,0.75,0.5,0.762,3,66,1,1,1,2,2,32,128,164,,,,,,0,75,75,75,,,,,,,,,,,,,,,,,,,,,,,,,,,,,,,,,,,,,,,,,,,,,,,,,,,,,,,,,732.6600712,733.1599107000002,733.1599107000002,733.9097077000006,733.9097077000006,734.409570400001,734.409570400001,735.1760204000002,735.1760204000002,None,num_6,0.9105987000002642,735.1760204000002,None,happy,0,Happy,736.0979176800007,None,None,736.0979176800007,None,,,,,,,,,,,,,,,,,,,,,,,,,,,,,,,,,,,,,,,,,,,,,,,,,,,,,16,001,male,29,350,400,2022_Oct_04_1331,Experiment,2021.1.4,360.174756804516,
images\S8_M_S_01.png,images\S8_M_S_01_scrambled.png,8,sad,-10,male,3,,346,on,2,0.5,0.75,0.5,0.773,3,345,2,1,1,2,2,32,128,163,,,,,,0,76,76,76,,,,,,,,,,,,,,,,,,,,,,,,,,,,,,,,,,,,,,,,,,,,,,,,,,,,,,,,,736.1478884000007,736.6505211000003,736.6505211000003,737.4059159000008,737.4059159000008,737.9112855000003,737.9112855000003,738.6860474000005,738.6860474000005,None,num_6,1.712529499998709,738.6860474000005,None,happy,0,Sad,740.4076817400007,None,None,740.4076817400007,None,,,,,,,,,,,,,,,,,,,,,,,,,,,,,,,,,,,,,,,,,,,,,,,,,,,,,16,001,male,29,350,400,2022_Oct_04_1331,Experiment,2021.1.4,360.174756804516,
images\S5_F_H_02.png,images\S5_F_H_02_scrambled.png,5,happy,20,female,5,,326,on,2,0.5,0.75,0.5,0.894,3,325,3,1,1,2,2,32,128,165,,,,,,0,77,77,77,,,,,,,,,,,,,,,,,,,,,,,,,,,,,,,,,,,,,,,,,,,,,,,,,,,,,,,,,740.4576781000014,740.960434300001,740.960434300001,741.7157048000008,741.7157048000008,742.2210726000012,742.2210726000012,743.1208176,743.1208176,None,num_6,1.901829300000827,743.1208176,None,happy,0,Happy,745.0368270800005,None,None,745.0368270800005,None,,,,,,,,,,,,,,,,,,,,,,,,,,,,,,,,,,,,,,,,,,,,,,,,,,,,,16,001,male,29,350,400,2022_Oct_04_1331,Experiment,2021.1.4,360.174756804516,
images\S2_M_H_01.png,images\S2_M_H_01_scrambled.png,2,happy,10,male,4,,367,off,1,0.5,0.75,0.5,0.882,3,366,1,1,1,0,0,0,0,4,,,,,,0,78,78,78,,,,,,,,,,,,,,,,,,,,,,,,,,,,,,,,,,,,,,,,,,,,,,,,,,,,,,,,,745.0868086999999,745.5922319000001,745.5922319000001,746.3475550000003,746.3475550000003,746.8529426000005,746.8529426000005,747.7415816000012,747.7415816000012,None,num_4,0.737112699998761,747.7415816000012,None,sad,0,Happy,748.4970731600016,None,None,748.4970731600016,None,,,,,,,,,,,,,,,,,,,,,,,,,,,,,,,,,,,,,,,,,,,,,,,,,,,,,16,001,male,29,350,400,2022_Oct_04_1331,Experiment,2021.1.4,360.174756804516,
images\S1_F_H_03.png,images\S1_F_H_03_scrambled.png,1,happy,30,female,6,,3,off,1,0.5,0.75,0.5,0.76,3,2,2,1,1,0,0,0,0,6,,,,,,0,79,79,79,,,,,,,,,,,,,,,,,,,,,,,,,,,,,,,,,,,,,,,,,,,,,,,,,,,,,,,,,748.5579667000002,749.0633684000004,749.0633684000004,749.8186865000007,749.8186865000007,750.3213606000008,750.3213606000008,751.0849524000005,751.0849524000005,None,num_6,0.2338056000007782,751.0849524000005,None,happy,0,Happy,751.3460710600021,None,None,751.3460710600021,None,,,,,,,,,,,,,,,,,,,,,,,,,,,,,,,,,,,,,,,,,,,,,,,,,,,,,16,001,male,29,350,400,2022_Oct_04_1331,Experiment,2021.1.4,360.174756804516,
images\S2_M_S_01.png,images\S2_M_S_01_scrambled.png,2,sad,-10,male,3,,70,on,2,0.5,0.75,0.5,0.758,3,69,1,1,1,2,2,32,128,163,,,,,,0,80,80,80,,,,,,,,,,,,,,,,,,,,,,,,,,,,,,,,,,,,,,,,,,,,,,,,,,,,,,,,,751.4098606000007,751.9125004000016,751.9125004000016,752.6651775999999,752.6651775999999,753.1705554,753.1705554,753.9313630000015,753.9313630000015,None,num_6,0.8436398999983794,753.9313630000015,None,happy,0,Sad,754.7838192400002,None,None,754.7838192400002,None,,,,,,,,,,,,,,,,,,,,,,,,,,,,,,,,,,,,,,,,,,,,,,,,,,,,,16,001,male,29,350,400,2022_Oct_04_1331,Experiment,2021.1.4,360.174756804516,
images\S2_M_S_02.png,images\S2_M_S_02_scrambled.png,2,sad,-20,male,2,,11,off,1,0.5,0.75,0.5,0.827,3,10,1,2,1,0,0,0,0,2,,,,,,0,81,81,81,,,,,,,,,,,,,,,,,,,,,,,,,,,,,,,,,,,,,,,,,,,,,,,,,,,,,,,,,754.8310529999999,755.3308893000012,755.3308893000012,756.0862474000005,756.0862474000005,756.5888783000009,756.5888783000009,757.4191332000009,757.4191332000009,None,num_6,0.21176390000073297,757.4191332000009,None,happy,0,Sad,757.6358146400005,None,None,757.6358146400005,None,,,,,,,,,,,,,,,,,,,,,,,,,,,,,,,,,,,,,,,,,,,,,,,,,,,,,16,001,male,29,350,400,2022_Oct_04_1331,Experiment,2021.1.4,360.174756804516,
images\S8_M_S_02.png,images\S8_M_S_02_scrambled.png,8,sad,-20,male,2,,167,off,1,0.5,0.75,0.5,0.855,3,166,2,1,2,0,0,0,0,2,,,,,,0,82,82,82,,,,,,,,,,,,,,,,,,,,,,,,,,,,,,,,,,,,,,,,,,,,,,,,,,,,,,,,,757.6857110000001,758.1883269000009,758.1883269000009,758.9409001000004,758.9409001000004,759.4463337000016,759.4463337000016,760.3043407000005,760.3043407000005,None,None,,760.3043407000005,None,miss,0,Sad,763.3034401200006,None,None,763.3034401200006,None,,,,,,,,,,,,,,,,,,,,,,,,,,,,,,,,,,,,,,,,,,,,,,,,,,,,,16,001,male,29,350,400,2022_Oct_04_1331,Experiment,2021.1.4,360.174756804516,
images\S8_M_H_03.png,images\S8_M_H_03_scrambled.png,8,happy,30,male,6,,585,on,2,0.5,0.75,0.5,0.869,3,584,1,2,1,2,2,32,128,166,,,,,,0,83,83,83,,,,,,,,,,,,,,,,,,,,,,,,,,,,,,,,,,,,,,,,,,,,,,,,,,,,,,,,,763.3534189000002,763.8560327000014,763.8560327000014,764.6085833000016,764.6085833000016,765.1112609000011,765.1112609000011,765.9859875000002,765.9859875000002,763.3534189000002,num_6,0.21248089999971853,765.9859875000002,763.3534189000002,happy,0,Happy,766.227548980001,None,None,766.227548980001,None,,,,,,,,,,,,,,,,,,,,,,,,,,,,,,,,,,,,,,,,,,,,,,,,,,,,,16,001,male,29,350,400,2022_Oct_04_1331,Experiment,2021.1.4,360.174756804516,
images\S6_M_S_02.png,images\S6_M_S_02_scrambled.png,6,sad,-20,male,2,,395,off,1,0.5,0.75,0.5,0.874,3,394,1,1,1,0,0,0,0,2,,,,,,0,84,84,84,,,,,,,,,,,,,,,,,,,,,,,,,,,,,,,,,,,,,,,,,,,,,,,,,,,,,,,,,766.2830678000009,766.7858113000002,766.7858113000002,767.5410711000004,767.5410711000004,768.0464690000008,768.0464690000008,768.9267356,768.9267356,None,num_6,1.8640840999996726,768.9267356,None,happy,0,Sad,770.7983485400007,None,None,770.7983485400007,None,,,,,,,,,,,,,,,,,,,,,,,,,,,,,,,,,,,,,,,,,,,,,,,,,,,,,16,001,male,29,350,400,2022_Oct_04_1331,Experiment,2021.1.4,360.174756804516,
images\S6_M_S_03.png,images\S6_M_S_03_scrambled.png,6,sad,-30,male,1,,336,on,2,0.5,0.75,0.5,0.866,3,335,1,2,1,2,2,32,128,161,,,,,,0,85,85,85,,,,,,,,,,,,,,,,,,,,,,,,,,,,,,,,,,,,,,,,,,,,,,,,,,,,,,,,,770.848332900001,771.3537376000004,771.3537376000004,772.1063319000004,772.1063319000004,772.6089507000015,772.6089507000015,773.4809175999999,773.4809175999999,None,num_4,0.17416179999963788,773.4809175999999,None,sad,0,Sad,773.6753938400022,None,None,773.6753938400022,None,,,,,,,,,,,,,,,,,,,,,,,,,,,,,,,,,,,,,,,,,,,,,,,,,,,,,16,001,male,29,350,400,2022_Oct_04_1331,Experiment,2021.1.4,360.174756804516,
images\S8_M_H_03.png,images\S8_M_H_03_scrambled.png,8,happy,30,male,6,,105,on,2,0.5,0.75,0.5,0.948,3,104,2,1,1,2,2,32,128,166,,,,,,0,86,86,86,,,,,,,,,,,,,,,,,,,,,,,,,,,,,,,,,,,,,,,,,,,,,,,,,,,,,,,,,773.7280051000016,774.2307051000007,774.2307051000007,774.9831940000004,774.9831940000004,775.4858621000003,775.4858621000003,776.4382794000012,776.4382794000012,None,num_6,0.22443220000059227,776.4382794000012,None,happy,0,Happy,776.6770991800018,None,None,776.6770991800018,None,,,,,,,,,,,,,,,,,,,,,,,,,,,,,,,,,,,,,,,,,,,,,,,,,,,,,16,001,male,29,350,400,2022_Oct_04_1331,Experiment,2021.1.4,360.174756804516,
images\S1_F_S_01.png,images\S1_F_S_01_scrambled.png,1,sad,-10,female,3,,304,on,2,0.5,0.75,0.5,0.782,3,303,3,1,1,2,2,32,128,163,,,,,,0,87,87,87,,,,,,,,,,,,,,,,,,,,,,,,,,,,,,,,,,,,,,,,,,,,,,,,,,,,,,,,,776.7270858000011,777.2325086000001,777.2325086000001,777.9851607,777.9851607,778.4876627000012,778.4876627000012,779.2763500000001,779.2763500000001,None,num_4,1.3063820999996096,779.2763500000001,None,sad,0,Sad,780.592574580001,None,None,780.592574580001,None,,,,,,,,,,,,,,,,,,,,,,,,,,,,,,,,,,,,,,,,,,,,,,,,,,,,,16,001,male,29,350,400,2022_Oct_04_1331,Experiment,2021.1.4,360.174756804516,
images\S9_F_H_02.png,images\S9_F_H_02_scrambled.png,9,happy,20,female,5,,530,off,1,0.5,0.75,0.5,0.776,3,529,1,1,1,0,0,0,0,5,,,,,,0,88,88,88,,,,,,,,,,,,,,,,,,,,,,,,,,,,,,,,,,,,,,,,,,,,,,,,,,,,,,,,,780.6397684000003,781.1424142000014,781.1424142000014,781.895064100001,781.895064100001,782.4004556,782.4004556,783.1778666000009,783.1778666000009,None,num_6,0.30878450000091107,783.1778666000009,None,happy,0,Happy,783.5111179600018,None,None,783.5111179600018,None,,,,,,,,,,,,,,,,,,,,,,,,,,,,,,,,,,,,,,,,,,,,,,,,,,,,,16,001,male,29,350,400,2022_Oct_04_1331,Experiment,2021.1.4,360.174756804516,
images\S2_M_H_03.png,images\S2_M_H_03_scrambled.png,2,happy,30,male,6,,309,on,2,0.5,0.75,0.5,0.933,3,308,1,1,1,2,2,32,128,166,,,,,,0,89,89,89,,,,,,,,,,,,,,,,,,,,,,,,,,,,,,,,,,,,,,,,,,,,,,,,,,,,,,,,,783.5666369999999,784.0720684000007,784.0720684000007,784.8273816000001,784.8273816000001,785.3327808000013,785.3327808000013,786.2714055000015,786.2714055000015,None,num_6,0.2394717999995919,786.2714055000015,None,happy,0,Happy,786.526849380001,None,None,786.526849380001,None,,,,,,,,,,,,,,,,,,,,,,,,,,,,,,,,,,,,,,,,,,,,,,,,,,,,,16,001,male,29,350,400,2022_Oct_04_1331,Experiment,2021.1.4,360.174756804516,
images\S1_F_S_01.png,images\S1_F_S_01_scrambled.png,1,sad,-10,female,3,,424,on,2,0.5,0.75,0.5,0.829,3,423,2,1,1,2,2,32,128,163,,,,,,0,90,90,90,,,,,,,,,,,,,,,,,,,,,,,,,,,,,,,,,,,,,,,,,,,,,,,,,,,,,,,,,786.5768311000011,787.0766686000006,787.0766686000006,787.832023500001,787.832023500001,788.3374229000001,788.3374229000001,789.1705750000001,789.1705750000001,None,num_4,0.20440399999824876,789.1705750000001,None,sad,0,Sad,789.3926417800009,None,None,789.3926417800009,None,,,,,,,,,,,,,,,,,,,,,,,,,,,,,,,,,,,,,,,,,,,,,,,,,,,,,16,001,male,29,350,400,2022_Oct_04_1331,Experiment,2021.1.4,360.174756804516,
images\S2_M_S_03.png,images\S2_M_S_03_scrambled.png,2,sad,-30,male,1,,432,on,2,0.5,0.75,0.5,0.828,3,431,3,1,1,2,2,32,128,161,,,,,,0,91,91,91,,,,,,,,,,,,,,,,,,,,,,,,,,,,,,,,,,,,,,,,,,,,,,,,,,,,,,,,,789.4426185000011,789.9453898000011,789.9453898000011,790.6950022000001,790.6950022000001,791.194845,791.194845,792.027917200001,792.027917200001,None,num_4,0.25069729999995616,792.027917200001,None,sad,0,Sad,792.2889841800003,None,None,792.2889841800003,None,,,,,,,,,,,,,,,,,,,,,,,,,,,,,,,,,,,,,,,,,,,,,,,,,,,,,16,001,male,29,350,400,2022_Oct_04_1331,Experiment,2021.1.4,360.174756804516,
images\S6_M_S_01.png,images\S6_M_S_01_scrambled.png,6,sad,-10,male,3,,214,on,2,0.5,0.75,0.5,0.949,3,213,4,1,1,2,2,32,128,163,,,,,,0,92,92,92,,,,,,,,,,,,,,,,,,,,,,,,,,,,,,,,,,,,,,,,,,,,,,,,,,,,,,,,,792.3361711000016,792.8416070000003,792.8416070000003,793.5941115000005,793.5941115000005,794.0967739000007,794.0967739000007,795.0492493000002,795.0492493000002,None,num_4,0.9096099999987928,795.0492493000002,None,sad,0,Sad,795.9739479800006,None,None,795.9739479800006,None,,,,,,,,,,,,,,,,,,,,,,,,,,,,,,,,,,,,,,,,,,,,,,,,,,,,,16,001,male,29,350,400,2022_Oct_04_1331,Experiment,2021.1.4,360.174756804516,
images\S3_F_H_02.png,images\S3_F_H_02_scrambled.png,3,happy,20,female,5,,74,on,2,0.5,0.75,0.5,0.754,3,73,5,1,1,2,2,32,128,165,,,,,,0,93,93,93,,,,,,,,,,,,,,,,,,,,,,,,,,,,,,,,,,,,,,,,,,,,,,,,,,,,,,,,,796.0239233000011,796.5294504000012,796.5294504000012,797.2791287,797.2791287,797.7817533000016,797.7817533000016,798.5426228000015,798.5426228000015,None,num_4,0.504588200001308,798.5426228000015,None,sad,0,Happy,799.0592470600014,None,None,799.0592470600014,None,,,,,,,,,,,,,,,,,,,,,,,,,,,,,,,,,,,,,,,,,,,,,,,,,,,,,16,001,male,29,350,400,2022_Oct_04_1331,Experiment,2021.1.4,360.174756804516,
images\S7_F_S_02.png,images\S7_F_S_02_scrambled.png,7,sad,-20,female,2,,41,off,1,0.5,0.75,0.5,0.841,3,40,1,1,1,0,0,0,0,2,,,,,,0,94,94,94,,,,,,,,,,,,,,,,,,,,,,,,,,,,,,,,,,,,,,,,,,,,,,,,,,,,,,,,,799.1146396000004,799.6172973000012,799.6172973000012,800.3726016,800.3726016,800.8753382000014,800.8753382000014,801.7221964,801.7221964,None,num_4,0.24472859999877983,801.7221964,None,sad,0,Sad,801.9804369800019,None,None,801.9804369800019,None,,,,,,,,,,,,,,,,,,,,,,,,,,,,,,,,,,,,,,,,,,,,,,,,,,,,,16,001,male,29,350,400,2022_Oct_04_1331,Experiment,2021.1.4,360.174756804516,
images\S4_M_S_01.png,images\S4_M_S_01_scrambled.png,4,sad,-10,male,3,,262,off,1,0.5,0.75,0.5,0.908,3,261,2,1,1,0,0,0,0,3,,,,,,0,95,95,95,,,,,,,,,,,,,,,,,,,,,,,,,,,,,,,,,,,,,,,,,,,,,,,,,,,,,,,,,802.0304112000013,802.5330439000008,802.5330439000008,803.2883644000012,803.2883644000012,803.7910214000003,803.7910214000003,804.699029200001,804.699029200001,None,num_4,0.2357893000007607,804.699029200001,None,sad,0,Sad,804.9602083400011,None,None,804.9602083400011,None,,,,,,,,,,,,,,,,,,,,,,,,,,,,,,,,,,,,,,,,,,,,,,,,,,,,,16,001,male,29,350,400,2022_Oct_04_1331,Experiment,2021.1.4,360.174756804516,
images\blank.jpg,images\blank.jpg,none,none,none,none,0,,605,on,2,0.5,0.75,0.5,0.94,0,604,1,1,1,3,3,48,192,240,,,,,,0,96,96,96,,,,,,,,,,,,,,,,,,,,,,,,,,,,,,,,,,,,,,,,,,,,,,,,,,,,,,,,,805.0463204000007,805.5459913000013,805.5459913000013,806.2957783000002,806.2957783000002,806.8012085999999,806.8012085999999,807.7454535000015,807.7454535000015,807.7454535000015,None,,807.7454535000015,None,miss,0,,810.7499715200014,None,None,810.7499715200014,None,,,,,,,,,,,,,,,,,,,,,,,,,,,,,,,,,,,,,,,,,,,,,,,,,,,,,16,001,male,29,350,400,2022_Oct_04_1331,Experiment,2021.1.4,360.174756804516,
images\S7_F_H_02.png,images\S7_F_H_02_scrambled.png,7,happy,20,female,5,,278,off,1,0.5,0.75,0.5,0.941,3,277,1,1,1,0,0,0,0,5,,,,,,0,97,97,97,,,,,,,,,,,,,,,,,,,,,,,,,,,,,,,,,,,,,,,,,,,,,,,,,,,,,,,,,810.8640576000016,811.3664637000002,811.3664637000002,812.1217876999999,812.1217876999999,812.6245083000013,812.6245083000013,813.5713583000015,813.5713583000015,None,num_6,0.34749310000006517,813.5713583000015,810.8640576000016,happy,0,Happy,813.9462068600016,None,None,813.9462068600016,None,,,,,,,,,,,,,,,,,,,,,,,,,,,,,,,,,,,,,,,,,,,,,,,,,,,,,16,001,male,29,350,400,2022_Oct_04_1331,Experiment,2021.1.4,360.174756804516,
images\S7_F_S_02.png,images\S7_F_S_02_scrambled.png,7,sad,-20,female,2,,281,off,1,0.5,0.75,0.5,0.797,3,280,2,2,1,0,0,0,0,2,,,,,,0,98,98,98,,,,,,,,,,,,,,,,,,,,,,,,,,,,,,,,,,,,,,,,,,,,,,,,,,,,,,,,,813.9989479000014,814.4987920000003,814.4987920000003,815.2513404000001,815.2513404000001,815.7567781000016,815.7567781000016,816.5565384000001,816.5565384000001,None,num_4,0.26664269999855605,816.5565384000001,None,sad,0,Sad,816.8454441400015,None,None,816.8454441400015,None,,,,,,,,,,,,,,,,,,,,,,,,,,,,,,,,,,,,,,,,,,,,,,,,,,,,,16,001,male,29,350,400,2022_Oct_04_1331,Experiment,2021.1.4,360.174756804516,
images\S6_M_S_01.png,images\S6_M_S_01_scrambled.png,6,sad,-10,male,3,,334,on,2,0.5,0.75,0.5,0.922,3,333,1,1,1,2,2,32,128,163,,,,,,0,99,99,99,,,,,,,,,,,,,,,,,,,,,,,,,,,,,,,,,,,,,,,,,,,,,,,,,,,,,,,,,816.8952864000003,817.3951278000004,817.3951278000004,818.1449185000001,818.1449185000001,818.647538700001,818.647538700001,819.5722650000007,819.5722650000007,None,num_4,2.242567200000849,819.5722650000007,None,sad,0,Sad,821.8243485800009,None,None,821.8243485800009,None,,,,,,,,,,,,,,,,,,,,,,,,,,,,,,,,,,,,,,,,,,,,,,,,,,,,,16,001,male,29,350,400,2022_Oct_04_1331,Experiment,2021.1.4,360.174756804516,
images\S10_M_S_01.png,images\S10_M_S_01_scrambled.png,10,sad,-10,male,3,,478,on,2,0.5,0.75,0.5,0.925,3,477,2,1,2,2,2,32,128,163,,,,,,0,100,100,100,,,,,,,,,,,,,,,,,,,,,,,,,,,,,,,,,,,,,,,,,,,,,,,,,,,,,,,,,821.8715389000008,822.3741637000003,822.3741637000003,823.1239268000008,823.1239268000008,823.6265851000007,823.6265851000007,824.5568570000014,824.5568570000014,None,num_6,0.24209369999880437,824.5568570000014,None,happy,0,Sad,824.8040339400002,None,None,824.8040339400002,None,,,,,,,,,,,,,,,,,,,,,,,,,,,,,,,,,,,,,,,,,,,,,,,,,,,,,16,001,male,29,350,400,2022_Oct_04_1331,Experiment,2021.1.4,360.174756804516,
images\S5_F_S_03.png,images\S5_F_S_03_scrambled.png,5,sad,-30,female,1,,90,on,2,0.5,0.75,0.5,0.929,3,89,3,1,1,2,2,32,128,161,,,,,,0,101,101,101,,,,,,,,,,,,,,,,,,,,,,,,,,,,,,,,,,,,,,,,,,,,,,,,,,,,,,,,,824.8539414000006,825.3595020000012,825.3595020000012,826.1091218000001,826.1091218000001,826.611777600001,826.611777600001,827.5420068000003,827.5420068000003,None,num_4,0.2570969000007608,827.5420068000003,None,sad,0,Sad,827.8198159000021,None,None,827.8198159000021,None,,,,,,,,,,,,,,,,,,,,,,,,,,,,,,,,,,,,,,,,,,,,,,,,,,,,,16,001,male,29,350,400,2022_Oct_04_1331,Experiment,2021.1.4,360.174756804516,
images\S1_F_H_03.png,images\S1_F_H_03_scrambled.png,1,happy,30,female,6,,123,off,1,0.5,0.75,0.5,0.78,3,122,1,1,1,0,0,0,0,6,,,,,,0,102,102,102,,,,,,,,,,,,,,,,,,,,,,,,,,,,,,,,,,,,,,,,,,,,,,,,,,,,,,,,,827.8891268000007,828.3889677000006,828.3889677000006,829.1415535000015,829.1415535000015,829.6469519000002,829.6469519000002,830.4300413000001,830.4300413000001,None,num_6,0.35288070000024163,830.4300413000001,None,happy,0,Happy,830.796580480002,None,None,830.796580480002,None,,,,,,,,,,,,,,,,,,,,,,,,,,,,,,,,,,,,,,,,,,,,,,,,,,,,,16,001,male,29,350,400,2022_Oct_04_1331,Experiment,2021.1.4,360.174756804516,
images\S4_M_S_03.png,images\S4_M_S_03_scrambled.png,4,sad,-30,male,1,,144,off,1,0.5,0.75,0.5,0.931,3,143,2,1,1,0,0,0,0,1,,,,,,0,103,103,103,,,,,,,,,,,,,,,,,,,,,,,,,,,,,,,,,,,,,,,,,,,,,,,,,,,,,,,,,830.8437804000005,831.3464340999999,831.3464340999999,832.0989372000004,832.0989372000004,832.5988264000007,832.5988264000007,833.5318760000009,833.5318760000009,None,num_4,0.28297229999952833,833.5318760000009,None,sad,0,Sad,833.8289718800003,None,None,833.8289718800003,None,,,,,,,,,,,,,,,,,,,,,,,,,,,,,,,,,,,,,,,,,,,,,,,,,,,,,16,001,male,29,350,400,2022_Oct_04_1331,Experiment,2021.1.4,360.174756804516,
images\S3_F_S_01.png,images\S3_F_S_01_scrambled.png,3,sad,-10,female,3,,196,on,2,0.5,0.75,0.5,0.876,3,195,1,1,1,2,2,32,128,163,,,,,,0,104,104,104,,,,,,,,,,,,,,,,,,,,,,,,,,,,,,,,,,,,,,,,,,,,,,,,,,,,,,,,,833.8761792000005,834.3787974000006,834.3787974000006,835.1313967000006,835.1313967000006,835.6367825000016,835.6367825000016,836.5170558000009,836.5170558000009,None,num_4,0.21760139999969397,836.5170558000009,None,sad,0,Sad,836.7447445800004,None,None,836.7447445800004,None,,,,,,,,,,,,,,,,,,,,,,,,,,,,,,,,,,,,,,,,,,,,,,,,,,,,,16,001,male,29,350,400,2022_Oct_04_1331,Experiment,2021.1.4,360.174756804516,
images\S2_M_H_02.png,images\S2_M_H_02_scrambled.png,2,happy,20,male,5,,548,on,2,0.5,0.75,0.5,0.785,3,547,2,1,1,2,2,32,128,165,,,,,,0,105,105,105,,,,,,,,,,,,,,,,,,,,,,,,,,,,,,,,,,,,,,,,,,,,,,,,,,,,,,,,,836.7919443999999,837.2973720999998,837.2973720999998,838.0471126000011,838.0471126000011,838.5498717999999,838.5498717999999,839.3383835000004,839.3383835000004,None,num_6,0.23676749999867752,839.3383835000004,None,happy,0,Happy,839.602309160001,None,None,839.602309160001,None,,,,,,,,,,,,,,,,,,,,,,,,,,,,,,,,,,,,,,,,,,,,,,,,,,,,,16,001,male,29,350,400,2022_Oct_04_1331,Experiment,2021.1.4,360.174756804516,
images\S3_F_S_01.png,images\S3_F_S_01_scrambled.png,3,sad,-10,female,3,,256,off,1,0.5,0.75,0.5,0.909,3,255,1,1,1,0,0,0,0,3,,,,,,0,106,106,106,,,,,,,,,,,,,,,,,,,,,,,,,,,,,,,,,,,,,,,,,,,,,,,,,,,,,,,,,839.6660643000014,840.1686998000005,840.1686998000005,840.9212273000012,840.9212273000012,841.4210727000009,841.4210727000009,842.3319492999999,842.3319492999999,None,num_4,0.4746322999999393,842.3319492999999,None,sad,0,Sad,842.820656280002,None,None,842.820656280002,None,,,,,,,,,,,,,,,,,,,,,,,,,,,,,,,,,,,,,,,,,,,,,,,,,,,,,16,001,male,29,350,400,2022_Oct_04_1331,Experiment,2021.1.4,360.174756804516,
images\S2_M_S_01.png,images\S2_M_S_01_scrambled.png,2,sad,-10,male,3,,250,off,1,0.5,0.75,0.5,0.778,3,249,2,1,2,0,0,0,0,3,,,,,,0,107,107,107,,,,,,,,,,,,,,,,,,,,,,,,,,,,,,,,,,,,,,,,,,,,,,,,,,,,,,,,,842.8678668000011,843.3732568000014,843.3732568000014,844.1259417000001,844.1259417000001,844.6284817000014,844.6284817000014,845.4115606000014,845.4115606000014,None,num_4,0.3152860000009241,845.4115606000014,None,sad,0,Sad,845.7419797800009,None,None,845.7419797800009,None,,,,,,,,,,,,,,,,,,,,,,,,,,,,,,,,,,,,,,,,,,,,,,,,,,,,,16,001,male,29,350,400,2022_Oct_04_1331,Experiment,2021.1.4,360.174756804516,
images\S2_M_H_01.png,images\S2_M_H_01_scrambled.png,2,happy,10,male,4,,427,on,2,0.5,0.75,0.5,0.774,3,426,1,2,1,2,2,32,128,164,,,,,,0,108,108,108,,,,,,,,,,,,,,,,,,,,,,,,,,,,,,,,,,,,,,,,,,,,,,,,,,,,,,,,,845.7974805000013,846.300268500001,846.300268500001,847.0498982000008,847.0498982000008,847.5554117000011,847.5554117000011,848.3357531000001,848.3357531000001,None,num_6,0.6868708000001789,848.3357531000001,None,happy,0,Happy,849.0465242600013,None,None,849.0465242600013,None,,,,,,,,,,,,,,,,,,,,,,,,,,,,,,,,,,,,,,,,,,,,,,,,,,,,,16,001,male,29,350,400,2022_Oct_04_1331,Experiment,2021.1.4,360.174756804516,
images\S10_M_H_03.png,images\S10_M_H_03_scrambled.png,10,happy,30,male,6,,237,on,2,0.5,0.75,0.5,0.804,3,236,2,1,1,2,2,32,128,166,,,,,,0,109,109,109,,,,,,,,,,,,,,,,,,,,,,,,,,,,,,,,,,,,,,,,,,,,,,,,,,,,,,,,,849.1103833000016,849.6130017000014,849.6130017000014,850.365682900001,850.365682900001,850.8710001,850.8710001,851.6818467000012,851.6818467000012,None,num_6,0.2447707999999693,851.6818467000012,None,happy,0,Happy,851.9567547000024,None,None,851.9567547000024,None,,,,,,,,,,,,,,,,,,,,,,,,,,,,,,,,,,,,,,,,,,,,,,,,,,,,,16,001,male,29,350,400,2022_Oct_04_1331,Experiment,2021.1.4,360.174756804516,
images\S5_F_S_01.png,images\S5_F_S_01_scrambled.png,5,sad,-10,female,3,,28,off,1,0.5,0.75,0.5,0.861,3,27,1,1,1,0,0,0,0,3,,,,,,0,110,110,110,,,,,,,,,,,,,,,,,,,,,,,,,,,,,,,,,,,,,,,,,,,,,,,,,,,,,,,,,852.0206006000008,852.523228,852.523228,853.2758557000016,853.2758557000016,853.7812055000013,853.7812055000013,854.6448168000006,854.6448168000006,None,num_4,0.7777626999995846,854.6448168000006,None,sad,0,Sad,855.4528907200023,None,None,855.4528907200023,None,,,,,,,,,,,,,,,,,,,,,,,,,,,,,,,,,,,,,,,,,,,,,,,,,,,,,16,001,male,29,350,400,2022_Oct_04_1331,Experiment,2021.1.4,360.174756804516,
images\S1_F_S_02.png,images\S1_F_S_02_scrambled.png,1,sad,-20,female,2,,365,off,1,0.5,0.75,0.5,0.81,3,364,2,1,1,0,0,0,0,2,,,,,,0,111,111,111,,,,,,,,,,,,,,,,,,,,,,,,,,,,,,,,,,,,,,,,,,,,,,,,,,,,,,,,,855.5056417000014,856.0082611000016,856.0082611000016,856.7580544000011,856.7580544000011,857.2607416999999,857.2607416999999,858.0715154000009,858.0715154000009,None,num_4,0.6392763999992894,858.0715154000009,None,sad,0,Sad,858.7241004800013,None,None,858.7241004800013,None,,,,,,,,,,,,,,,,,,,,,,,,,,,,,,,,,,,,,,,,,,,,,,,,,,,,,16,001,male,29,350,400,2022_Oct_04_1331,Experiment,2021.1.4,360.174756804516,
images\S1_F_H_01.png,images\S1_F_H_01_scrambled.png,1,happy,10,female,4,,61,on,2,0.5,0.75,0.5,0.779,3,60,1,2,1,2,2,32,128,164,,,,,,0,112,112,112,,,,,,,,,,,,,,,,,,,,,,,,,,,,,,,,,,,,,,,,,,,,,,,,,,,,,,,,,858.7713072000006,859.2739238000013,859.2739238000013,860.0265093000016,860.0265093000016,860.5318935000014,860.5318935000014,861.3149652000011,861.3149652000011,None,num_6,0.2598835999997391,861.3149652000011,None,happy,0,Happy,861.5898906800008,None,None,861.5898906800008,None,,,,,,,,,,,,,,,,,,,,,,,,,,,,,,,,,,,,,,,,,,,,,,,,,,,,,16,001,male,29,350,400,2022_Oct_04_1331,Experiment,2021.1.4,360.174756804516,
images\blank.jpg,images\blank.jpg,none,none,none,none,0,,645,on,2,0.5,0.75,0.5,0.861,0,644,2,1,1,3,3,48,192,240,,,,,,0,113,113,113,,,,,,,,,,,,,,,,,,,,,,,,,,,,,,,,,,,,,,,,,,,,,,,,,,,,,,,,,861.6734441000008,862.1730355,862.1730355,862.9256224000001,862.9256224000001,863.4282061000013,863.4282061000013,864.2890461000006,864.2890461000006,864.2890461000006,None,,864.2890461000006,None,miss,0,,867.288177320001,None,None,867.288177320001,None,,,,,,,,,,,,,,,,,,,,,,,,,,,,,,,,,,,,,,,,,,,,,,,,,,,,,16,001,male,29,350,400,2022_Oct_04_1331,Experiment,2021.1.4,360.174756804516,
images\S4_M_S_03.png,images\S4_M_S_03_scrambled.png,4,sad,-30,male,1,,564,on,2,0.5,0.75,0.5,0.895,3,563,3,1,1,2,2,32,128,161,,,,,,0,114,114,114,,,,,,,,,,,,,,,,,,,,,,,,,,,,,,,,,,,,,,,,,,,,,,,,,,,,,,,,,867.4077819000013,867.9129526000015,867.9129526000015,868.6682652,868.6682652,869.1708781000016,869.1708781000016,870.0707129000002,870.0707129000002,None,num_4,0.2079946000012569,870.0707129000002,867.4077819000013,sad,0,Sad,870.3011320600009,None,None,870.3011320600009,None,,,,,,,,,,,,,,,,,,,,,,,,,,,,,,,,,,,,,,,,,,,,,,,,,,,,,16,001,male,29,350,400,2022_Oct_04_1331,Experiment,2021.1.4,360.174756804516,
images\S3_F_H_01.png,images\S3_F_H_01_scrambled.png,3,happy,10,female,4,,493,off,1,0.5,0.75,0.5,0.831,3,492,1,1,1,0,0,0,0,4,,,,,,0,115,115,115,,,,,,,,,,,,,,,,,,,,,,,,,,,,,,,,,,,,,,,,,,,,,,,,,,,,,,,,,870.3649625000016,870.8648075000001,870.8648075000001,871.6173722000003,871.6173722000003,872.1200863000013,872.1200863000013,872.9559007000007,872.9559007000007,None,num_4,0.26666389999991225,872.9559007000007,None,sad,0,Happy,873.2335354800013,None,None,873.2335354800013,None,,,,,,,,,,,,,,,,,,,,,,,,,,,,,,,,,,,,,,,,,,,,,,,,,,,,,16,001,male,29,350,400,2022_Oct_04_1331,Experiment,2021.1.4,360.174756804516,
images\S6_M_S_03.png,images\S6_M_S_03_scrambled.png,6,sad,-30,male,1,,576,on,2,0.5,0.75,0.5,0.783,3,575,1,1,1,2,2,32,128,161,,,,,,0,116,116,116,,,,,,,,,,,,,,,,,,,,,,,,,,,,,,,,,,,,,,,,,,,,,,,,,,,,,,,,,873.2946212000006,873.7972642000004,873.7972642000004,874.549934300001,874.549934300001,875.0524329,875.0524329,875.8411065,875.8411065,None,num_4,0.22158370000033756,875.8411065,None,sad,0,Sad,876.0771129800011,None,None,876.0771129800011,None,,,,,,,,,,,,,,,,,,,,,,,,,,,,,,,,,,,,,,,,,,,,,,,,,,,,,16,001,male,29,350,400,2022_Oct_04_1331,Experiment,2021.1.4,360.174756804516,
images\S4_M_H_01.png,images\S4_M_H_01_scrambled.png,4,happy,10,male,4,,439,on,2,0.5,0.75,0.5,0.913,3,438,2,1,1,2,2,32,128,164,,,,,,0,117,117,117,,,,,,,,,,,,,,,,,,,,,,,,,,,,,,,,,,,,,,,,,,,,,,,,,,,,,,,,,876.1243009000009,876.6269486000001,876.6269486000001,877.3822682999999,877.3822682999999,877.8849852000003,877.8849852000003,878.8013091000012,878.8013091000012,None,num_4,0.24545199999920442,878.8013091000012,None,sad,0,Happy,879.0539757400009,None,None,879.0539757400009,None,,,,,,,,,,,,,,,,,,,,,,,,,,,,,,,,,,,,,,,,,,,,,,,,,,,,,16,001,male,29,350,400,2022_Oct_04_1331,Experiment,2021.1.4,360.174756804516,
images\S5_F_H_03.png,images\S5_F_H_03_scrambled.png,5,happy,30,female,6,,387,off,1,0.5,0.75,0.5,0.925,3,386,1,1,1,0,0,0,0,6,,,,,,0,118,118,118,,,,,,,,,,,,,,,,,,,,,,,,,,,,,,,,,,,,,,,,,,,,,,,,,,,,,,,,,879.1039390000005,879.6065613999999,879.6065613999999,880.3591050000014,880.3591050000014,880.8589587000006,880.8589587000006,881.7836652000005,881.7836652000005,None,num_6,0.2473136999997223,881.7836652000005,None,happy,0,Happy,882.0558190600015,None,None,882.0558190600015,None,,,,,,,,,,,,,,,,,,,,,,,,,,,,,,,,,,,,,,,,,,,,,,,,,,,,,16,001,male,29,350,400,2022_Oct_04_1331,Experiment,2021.1.4,360.174756804516,
images\blank.jpg,images\blank.jpg,none,none,none,none,0,,648,on,2,0.5,0.75,0.5,0.773,0,647,1,1,1,3,3,48,192,240,,,,,,0,119,119,119,,,,,,,,,,,,,,,,,,,,,,,,,,,,,,,,,,,,,,,,,,,,,,,,,,,,,,,,,882.1478612999999,882.652862500001,882.652862500001,883.4081781000004,883.4081781000004,883.9108775000004,883.9108775000004,884.6911550000004,884.6911550000004,884.6911550000004,None,,884.6911550000004,None,miss,0,,887.6929840200013,None,None,887.6929840200013,None,,,,,,,,,,,,,,,,,,,,,,,,,,,,,,,,,,,,,,,,,,,,,,,,,,,,,16,001,male,29,350,400,2022_Oct_04_1331,Experiment,2021.1.4,360.174756804516,
images\S1_F_S_03.png,images\S1_F_S_03_scrambled.png,1,sad,-30,female,1,,186,on,2,0.5,0.75,0.5,0.882,3,185,2,1,1,2,2,32,128,161,,,,,,0,120,120,120,,,,,,,,,,,,,,,,,,,,,,,,,,,,,,,,,,,,,,,,,,,,,,,,,,,,,,,,,887.8070560000015,888.3122437000002,888.3122437000002,889.0619888000001,889.0619888000001,889.567414000001,889.567414000001,890.4532319000009,890.4532319000009,None,num_4,0.17792570000165142,890.4532319000009,887.8070560000015,sad,0,Sad,890.6505086400018,None,None,890.6505086400018,None,,,,,,,,,,,,,,,,,,,,,,,,,,,,,,,,,,,,,,,,,,,,,,,,,,,,,16,001,male,29,350,400,2022_Oct_04_1331,Experiment,2021.1.4,360.174756804516,
images\S9_F_S_01.png,images\S9_F_S_01_scrambled.png,9,sad,-10,female,3,,292,off,1,0.5,0.75,0.5,0.821,3,291,1,1,1,0,0,0,0,3,,,,,,0,121,121,121,,,,,,,,,,,,,,,,,,,,,,,,,,,,,,,,,,,,,,,,,,,,,,,,,,,,,,,,,890.7008202000015,891.2002453000005,891.2002453000005,891.9527599000012,891.9527599000012,892.4554051000014,892.4554051000014,893.2828997000015,893.2828997000015,None,None,,893.2828997000015,None,miss,0,Sad,896.2819973200006,None,None,896.2819973200006,None,,,,,,,,,,,,,,,,,,,,,,,,,,,,,,,,,,,,,,,,,,,,,,,,,,,,,16,001,male,29,350,400,2022_Oct_04_1331,Experiment,2021.1.4,360.174756804516,
images\S1_F_H_03.png,images\S1_F_H_03_scrambled.png,1,happy,30,female,6,,183,on,2,0.5,0.75,0.5,0.781,3,182,1,1,1,2,2,32,128,166,,,,,,0,122,122,122,,,,,,,,,,,,,,,,,,,,,,,,,,,,,,,,,,,,,,,,,,,,,,,,,,,,,,,,,896.3319802000005,896.8346243000015,896.8346243000015,897.5844062000015,897.5844062000015,898.0870161000003,898.0870161000003,898.8728836999999,898.8728836999999,896.3319802000005,num_6,0.19781479999983276,898.8728836999999,896.3319802000005,happy,0,Happy,899.0811832800006,None,None,899.0811832800006,None,,,,,,,,,,,,,,,,,,,,,,,,,,,,,,,,,,,,,,,,,,,,,,,,,,,,,16,001,male,29,350,400,2022_Oct_04_1331,Experiment,2021.1.4,360.174756804516,
images\S5_F_H_02.png,images\S5_F_H_02_scrambled.png,5,happy,20,female,5,,446,on,2,0.5,0.75,0.5,0.843,3,445,2,1,1,2,2,32,128,165,,,,,,0,123,123,123,,,,,,,,,,,,,,,,,,,,,,,,,,,,,,,,,,,,,,,,,,,,,,,,,,,,,,,,,899.1449994000013,899.6505178000007,899.6505178000007,900.4058031000004,900.4058031000004,900.9111588000014,900.9111588000014,901.7580811000007,901.7580811000007,None,num_6,0.2567185999996582,901.7580811000007,None,happy,0,Happy,902.041415660001,None,None,902.041415660001,None,,,,,,,,,,,,,,,,,,,,,,,,,,,,,,,,,,,,,,,,,,,,,,,,,,,,,16,001,male,29,350,400,2022_Oct_04_1331,Experiment,2021.1.4,360.174756804516,
images\S10_M_S_01.png,images\S10_M_S_01_scrambled.png,10,sad,-10,male,3,,178,off,1,0.5,0.75,0.5,0.853,3,177,1,1,1,0,0,0,0,3,,,,,,0,124,124,124,,,,,,,,,,,,,,,,,,,,,,,,,,,,,,,,,,,,,,,,,,,,,,,,,,,,,,,,,902.0940808000014,902.5967545000003,902.5967545000003,903.3492611000001,903.3492611000001,903.851916900001,903.851916900001,904.7071706000006,904.7071706000006,None,num_6,0.2354494999999588,904.7071706000006,None,happy,0,Sad,904.9515493400002,None,None,904.9515493400002,None,,,,,,,,,,,,,,,,,,,,,,,,,,,,,,,,,,,,,,,,,,,,,,,,,,,,,16,001,male,29,350,400,2022_Oct_04_1331,Experiment,2021.1.4,360.174756804516,
images\S5_F_H_01.png,images\S5_F_H_01_scrambled.png,5,happy,10,female,4,,325,on,2,0.5,0.75,0.5,0.897,3,324,1,1,1,2,2,32,128,164,,,,,,0,125,125,125,,,,,,,,,,,,,,,,,,,,,,,,,,,,,,,,,,,,,,,,,,,,,,,,,,,,,,,,,905.0016269000007,905.5069598000009,905.5069598000009,906.2567007000016,906.2567007000016,906.7565441000006,906.7565441000006,907.6534902000003,907.6534902000003,None,num_6,0.19370700000035868,907.6534902000003,None,happy,0,Happy,907.8702538400019,None,None,907.8702538400019,None,,,,,,,,,,,,,,,,,,,,,,,,,,,,,,,,,,,,,,,,,,,,,,,,,,,,,16,001,male,29,350,400,2022_Oct_04_1331,Experiment,2021.1.4,360.174756804516,
images\S3_F_S_03.png,images\S3_F_S_03_scrambled.png,3,sad,-30,female,1,,558,on,2,0.5,0.75,0.5,0.775,3,557,2,1,1,2,2,32,128,161,,,,,,0,126,126,126,,,,,,,,,,,,,,,,,,,,,,,,,,,,,,,,,,,,,,,,,,,,,,,,,,,,,,,,,907.9200844000006,908.422721500001,908.422721500001,909.1752580000011,909.1752580000011,909.6807538000012,909.6807538000012,910.4610271000001,910.4610271000001,None,num_4,0.2255330000007234,910.4610271000001,None,sad,0,Sad,910.6970725800016,None,None,910.6970725800016,None,,,,,,,,,,,,,,,,,,,,,,,,,,,,,,,,,,,,,,,,,,,,,,,,,,,,,16,001,male,29,350,400,2022_Oct_04_1331,Experiment,2021.1.4,360.174756804516,
images\S2_M_S_02.png,images\S2_M_S_02_scrambled.png,2,sad,-20,male,2,,131,off,1,0.5,0.75,0.5,0.932,3,130,1,1,1,0,0,0,0,2,,,,,,0,127,127,127,,,,,,,,,,,,,,,,,,,,,,,,,,,,,,,,,,,,,,,,,,,,,,,,,,,,,,,,,910.7442148000009,911.2468742000001,911.2468742000001,911.9966025000012,911.9966025000012,912.5020288000014,912.5020288000014,913.4378430000015,913.4378430000015,None,num_4,0.8249350999994931,913.4378430000015,None,sad,0,Sad,914.2764899800019,None,None,914.2764899800019,None,,,,,,,,,,,,,,,,,,,,,,,,,,,,,,,,,,,,,,,,,,,,,,,,,,,,,16,001,male,29,350,400,2022_Oct_04_1331,Experiment,2021.1.4,360.174756804516,
images\S8_M_H_01.png,images\S8_M_H_01_scrambled.png,8,happy,10,male,4,,283,off,1,0.5,0.75,0.5,0.885,3,282,2,1,1,0,0,0,0,4,,,,,,0,128,128,128,,,,,,,,,,,,,,,,,,,,,,,,,,,,,,,,,,,,,,,,,,,,,,,,,,,,,,,,,914.3236762000015,914.8263496,914.8263496,915.5760629000015,915.5760629000015,916.0814888000004,916.0814888000004,916.9702072,916.9702072,None,num_6,0.19656399999985297,916.9702072,None,happy,0,Happy,917.1811280800008,None,None,917.1811280800008,None,,,,,,,,,,,,,,,,,,,,,,,,,,,,,,,,,,,,,,,,,,,,,,,,,,,,,16,001,male,29,350,400,2022_Oct_04_1331,Experiment,2021.1.4,360.174756804516,
images\S9_F_H_01.png,images\S9_F_H_01_scrambled.png,9,happy,10,female,4,,589,on,2,0.5,0.75,0.5,0.833,3,588,1,1,2,2,2,32,128,164,,,,,,0,129,129,129,,,,,,,,,,,,,,,,,,,,,,,,,,,,,,,,,,,,,,,,,,,,,,,,,,,,,,,,,917.2283345000014,917.733738500001,917.733738500001,918.48351,918.48351,918.9861761000011,918.9861761000011,919.8248658000011,919.8248658000011,None,num_6,0.22165270000004966,919.8248658000011,None,happy,0,Happy,920.058024980002,None,None,920.058024980002,None,,,,,,,,,,,,,,,,,,,,,,,,,,,,,,,,,,,,,,,,,,,,,,,,,,,,,16,001,male,29,350,400,2022_Oct_04_1331,Experiment,2021.1.4,360.174756804516,
images\S4_M_H_03.png,images\S4_M_H_03_scrambled.png,4,happy,30,male,6,,561,on,2,0.5,0.75,0.5,0.82,3,560,2,1,1,2,2,32,128,166,,,,,,0,130,130,130,,,,,,,,,,,,,,,,,,,,,,,,,,,,,,,,,,,,,,,,,,,,,,,,,,,,,,,,,920.1052264000009,920.6107228000001,920.6107228000001,921.3660049999999,921.3660049999999,921.8714004000012,921.8714004000012,922.6933767999999,922.6933767999999,None,num_4,0.6494185000010475,922.6933767999999,None,sad,0,Happy,923.3570014000015,None,space,923.3570014000015,None,57.776925300000585,,,,,,,,,,,,,,,,,,,,,,,,,,,,,,,,,,,,,,,,,,,,,,,,,,,,16,001,male,29,350,400,2022_Oct_04_1331,Experiment,2021.1.4,360.174756804516,
images\S6_M_S_01.png,images\S6_M_S_01_scrambled.png,6,sad,-10,male,3,,154,off,1,0.5,0.75,0.5,0.85,3,153,1,1,1,0,0,0,0,3,,,,,,0,131,131,131,,,,,,,,,,,,,,,,,,,,,,,,,,,,,,,,,,,,,,,,,,,,,,,,,,,,,,,,,981.1891850000011,981.6890757000001,981.6890757000001,982.4388434000011,982.4388434000011,982.9387267000002,982.9387267000002,983.7912476000001,983.7912476000001,None,num_4,1.4312751999987086,983.7912476000001,None,sad,0,Sad,985.2518915000019,None,None,985.2518915000019,None,,,,,,,,,,,,,,,,,,,,,,,,,,,,,,,,,,,,,,,,,,,,,,,,,,,,,16,001,male,29,350,400,2022_Oct_04_1331,Experiment,2021.1.4,360.174756804516,
images\S8_M_H_01.png,images\S8_M_H_01_scrambled.png,8,happy,10,male,4,,223,on,2,0.5,0.75,0.5,0.864,3,222,1,1,1,2,2,32,128,164,,,,,,0,132,132,132,,,,,,,,,,,,,,,,,,,,,,,,,,,,,,,,,,,,,,,,,,,,,,,,,,,,,,,,,985.3074052000011,985.8128162000012,985.8128162000012,986.5653737000011,986.5653737000011,987.0652128000002,987.0652128000002,987.9315929000004,987.9315929000004,None,num_4,0.21897309999985737,987.9315929000004,None,sad,0,Happy,988.1593326400005,None,None,988.1593326400005,None,,,,,,,,,,,,,,,,,,,,,,,,,,,,,,,,,,,,,,,,,,,,,,,,,,,,,16,001,male,29,350,400,2022_Oct_04_1331,Experiment,2021.1.4,360.174756804516,
images\S5_F_S_02.png,images\S5_F_S_02_scrambled.png,5,sad,-20,female,2,,509,off,1,0.5,0.75,0.5,0.841,3,508,1,1,1,0,0,0,0,2,,,,,,0,133,133,133,,,,,,,,,,,,,,,,,,,,,,,,,,,,,,,,,,,,,,,,,,,,,,,,,,,,,,,,,988.2065129000002,988.7091304000005,988.7091304000005,989.461706600001,989.461706600001,989.9644365000004,989.9644365000004,990.8084961000004,990.8084961000004,None,num_4,0.24626780000107829,990.8084961000004,None,sad,0,Sad,991.0806438600022,None,None,991.0806438600022,None,,,,,,,,,,,,,,,,,,,,,,,,,,,,,,,,,,,,,,,,,,,,,,,,,,,,,16,001,male,29,350,400,2022_Oct_04_1331,Experiment,2021.1.4,360.174756804516,
images\S5_F_S_02.png,images\S5_F_S_02_scrambled.png,5,sad,-20,female,2,,389,off,1,0.5,0.75,0.5,0.843,3,388,2,2,2,0,0,0,0,2,,,,,,0,134,134,134,,,,,,,,,,,,,,,,,,,,,,,,,,,,,,,,,,,,,,,,,,,,,,,,,,,,,,,,,991.1333893999999,991.6360552000006,991.6360552000006,992.3913708,992.3913708,992.8967729000015,992.8967729000015,993.7465134000013,993.7465134000013,None,num_4,0.2284880000006524,993.7465134000013,None,sad,0,Sad,993.9880756800009,None,None,993.9880756800009,None,,,,,,,,,,,,,,,,,,,,,,,,,,,,,,,,,,,,,,,,,,,,,,,,,,,,,16,001,male,29,350,400,2022_Oct_04_1331,Experiment,2021.1.4,360.174756804516,
images\S10_M_S_02.png,images\S10_M_S_02_scrambled.png,10,sad,-20,male,2,,239,on,2,0.5,0.75,0.5,0.931,3,238,1,1,3,2,2,32,128,162,,,,,,0,135,135,135,,,,,,,,,,,,,,,,,,,,,,,,,,,,,,,,,,,,,,,,,,,,,,,,,,,,,,,,,994.0352817000003,994.5407724000015,994.5407724000015,995.2960454000004,995.2960454000004,995.7958388000006,995.7958388000006,996.7316931000005,996.7316931000005,None,num_4,0.17095440000048256,996.7316931000005,None,sad,0,Sad,996.9261418600009,None,None,996.9261418600009,None,,,,,,,,,,,,,,,,,,,,,,,,,,,,,,,,,,,,,,,,,,,,,,,,,,,,,16,001,male,29,350,400,2022_Oct_04_1331,Experiment,2021.1.4,360.174756804516,
images\S10_M_H_03.png,images\S10_M_H_03_scrambled.png,10,happy,30,male,6,,417,off,1,0.5,0.75,0.5,0.88,3,416,1,2,1,0,0,0,0,6,,,,,,0,136,136,136,,,,,,,,,,,,,,,,,,,,,,,,,,,,,,,,,,,,,,,,,,,,,,,,,,,,,,,,,996.9899238000016,997.4954525000012,997.4954525000012,998.2451179,998.2451179,998.744929800001,998.744929800001,999.6308494000004,999.6308494000004,None,num_6,0.25587629999972705,999.6308494000004,None,happy,0,Happy,999.9029228800006,None,None,999.9029228800006,None,,,,,,,,,,,,,,,,,,,,,,,,,,,,,,,,,,,,,,,,,,,,,,,,,,,,,16,001,male,29,350,400,2022_Oct_04_1331,Experiment,2021.1.4,360.174756804516,
images\S5_F_H_02.png,images\S5_F_H_02_scrambled.png,5,happy,20,female,5,,266,off,1,0.5,0.75,0.5,0.828,3,265,2,1,1,0,0,0,0,5,,,,,,0,137,137,137,,,,,,,,,,,,,,,,,,,,,,,,,,,,,,,,,,,,,,,,,,,,,,,,,,,,,,,,,999.9501261000005,1000.4527624000002,1000.4527624000002,1001.2080741999998,1001.2080741999998,1001.7107089000001,1001.7107089000001,1002.5410548,1002.5410548,None,num_6,0.2258732999998756,1002.5410548,None,happy,0,Happy,1002.7771543800005,None,None,1002.7771543800005,None,,,,,,,,,,,,,,,,,,,,,,,,,,,,,,,,,,,,,,,,,,,,,,,,,,,,,16,001,male,29,350,400,2022_Oct_04_1331,Experiment,2021.1.4,360.174756804516,
images\S6_M_S_02.png,images\S6_M_S_02_scrambled.png,6,sad,-20,male,2,,275,off,1,0.5,0.75,0.5,0.814,3,274,3,1,1,0,0,0,0,2,,,,,,0,138,138,138,,,,,,,,,,,,,,,,,,,,,,,,,,,,,,,,,,,,,,,,,,,,,,,,,,,,,,,,,1002.8242417000001,1003.3269021000015,1003.3269021000015,1004.0795373000001,1004.0795373000001,1004.5792566,1004.5792566,1005.3957862000007,1005.3957862000007,None,num_4,0.21105639999950654,1005.3957862000007,None,sad,0,Sad,1005.6206114800003,None,None,1005.6206114800003,None,,,,,,,,,,,,,,,,,,,,,,,,,,,,,,,,,,,,,,,,,,,,,,,,,,,,,16,001,male,29,350,400,2022_Oct_04_1331,Experiment,2021.1.4,360.174756804516,
images\S7_F_H_02.png,images\S7_F_H_02_scrambled.png,7,happy,20,female,5,,98,on,2,0.5,0.75,0.5,0.868,3,97,1,1,1,2,2,32,128,165,,,,,,0,139,139,139,,,,,,,,,,,,,,,,,,,,,,,,,,,,,,,,,,,,,,,,,,,,,,,,,,,,,,,,,1005.6678163000015,1006.1704494000005,1006.1704494000005,1006.9202281000016,1006.9202281000016,1007.4257066000009,1007.4257066000009,1008.3004568000015,1008.3004568000015,None,num_6,0.7462641000001895,1008.3004568000015,None,happy,0,Happy,1009.0612124800006,None,None,1009.0612124800006,None,,,,,,,,,,,,,,,,,,,,,,,,,,,,,,,,,,,,,,,,,,,,,,,,,,,,,16,001,male,29,350,400,2022_Oct_04_1331,Experiment,2021.1.4,360.174756804516,
