image_face,image_scram,avatar,emo,emotion,sex,trigeeg,dac,trial_no,NMES,stimtime,baseline,iti,face,scr_face,resp_time,index,count_NMES,count_avatar,count_emotion,dac1,dac2,dac1_output,dac2_output,trigs_out,nmes,practice_trials.thisRepN,practice_trials.thisTrialN,practice_trials.thisN,practice_trials.thisIndex,real_trials.thisRepN,real_trials.thisTrialN,real_trials.thisN,real_trials.thisIndex,trials.thisRepN,trials.thisTrialN,trials.thisN,trials.thisIndex,position,Welcome.started,Welcome.stopped,Welcome_resp.keys,Welcome_resp.rt,text_2.started,text_2.stopped,form_2.index,form_2.itemText,form_2.type,form_2.response,form_2.rt,key_resp_4.keys,key_resp_4.rt,key_resp_4.started,key_resp_4.stopped,instructions.started,instructions.stopped,end_instr.keys,end_instr.rt,instructions_2.started,instructions_2.stopped,end_instr_2.keys,end_instr_2.rt,end_instr_2.started,end_instr_2.stopped,instruct_keypress.started,instruct_keypress.stopped,end_instruct_keypress.keys,end_instruct_keypress.rt,start_practice.started,start_practice.stopped,start_practice_resp.keys,start_practice_resp.rt,prac_baseline.started,prac_baseline.stopped,prac_iti.started,prac_iti.stopped,prac_stimulus.started,prac_stimulus.stopped,prac_scram_stim.started,prac_scram_stim.stopped,prac_stimulus_resp.started,prac_stimulus_resp.stopped,prac_resp.keys,prac_resp.started,prac_resp.stopped,prac_resp.rt,transition_to_real.started,transition_to_real.stopped,end_transition_to_real.keys,end_transition_to_real.rt,fixation_cross.started,fixation_cross.stopped,tr_iti.started,tr_iti.stopped,stimulus.started,stimulus.stopped,scram_stim.started,scram_stim.stopped,response_txt.started,response_txt.stopped,response.keys,response.rt,response.started,response.stopped,participant_Resp,grouping,corAnswer,break_msg.started,break_msg.stopped,end_break.keys,end_break.started,end_break.stopped,end_break.rt,text.started,text.stopped,key_resp_3.keys,key_resp_3.rt,key_resp_3.started,key_resp_3.stopped,fix_cross_comf.started,fix_cross_comf.stopped,stimulation_comf.started,stimulation_comf.stopped,rate_instr.started,rate_instr.stopped,comfort_rating.response,comfort_rating.rt,comfort_rating.started,comfort_rating.stopped,resp_form.keys,resp_form.rt,resp_form.started,resp_form.stopped,survey_instructions.started,survey_instructions.stopped,key_resp_2.keys,key_resp_2.rt,key_resp_2.started,key_resp_2.stopped,form.index,form.itemText,form.type,form.response,form.rt,key_resp.keys,key_resp.rt,key_resp.started,key_resp.stopped,text_3.started,text_3.stopped,rate_smile.response,rate_smile.rt,rate_smile.started,rate_smile.stopped,key_resp_5.keys,key_resp_5.rt,key_resp_5.started,key_resp_5.stopped,end_msg.started,end_msg.stopped,end_resp.keys,end_resp.rt,end_resp.started,end_resp.stopped,participant,session,gender,age,LEFT,RIGHT,date,expName,psychopyVersion,frameRate,
,,,,,,,,,,,,,,,,,,,,,,,,,,,,,,,,,,,,,,H-S,23.599281800000426,None,num_add,4.287198500000159,,,,,,,,,,,,,,,,,,,,,,,,,,,,,,,,,,,,,,,,,,,,,,,,,,,,,,,,,,,,,,,,,,,,,,,,,,,,,,,,,,,,,,,,,,,,,,,,,,,,,,,,,,,,,,,,,,,,,,,,,,17,001,0,22,400,400,2022_Oct_05_1435,Experiment,2021.1.4,359.89606200619687,
,,,,,,,,,,,,,,,,,,,,,,,,,,,,,,,,,,,,,,,,,,,27.896874099999877,29.93792829999984,1,"This scale consistes of a number of words that describe different feelings and emotion. Read each item and then list the number from the scale below each word. Indicate (by clicking) to what extend you feel this way RIGHT NOW, that is, AT THE PRESENT MOMENT.",description,,,,,,,,,,,,,,,,,,,,,,,,,,,,,,,,,,,,,,,,,,,,,,,,,,,,,,,,,,,,,,,,,,,,,,,,,,,,,,,,,,,,,,,,,,,,,,,,,,,,,,,,,,,,,,,,,,,,,17,001,0,22,400,400,2022_Oct_05_1435,Experiment,2021.1.4,359.89606200619687,
,,,,,,,,,,,,,,,,,,,,,,,,,,,,,,,,,,,,,,,,,,,,,2,Interested,rating,4.0,39.21020270000008,,,,,,,,,,,,,,,,,,,,,,,,,,,,,,,,,,,,,,,,,,,,,,,,,,,,,,,,,,,,,,,,,,,,,,,,,,,,,,,,,,,,,,,,,,,,,,,,,,,,,,,,,,,,,,,,,,,17,001,0,22,400,400,2022_Oct_05_1435,Experiment,2021.1.4,359.89606200619687,
,,,,,,,,,,,,,,,,,,,,,,,,,,,,,,,,,,,,,,,,,,,,,3,Distressed,rating,1.0,44.95977839999978,,,,,,,,,,,,,,,,,,,,,,,,,,,,,,,,,,,,,,,,,,,,,,,,,,,,,,,,,,,,,,,,,,,,,,,,,,,,,,,,,,,,,,,,,,,,,,,,,,,,,,,,,,,,,,,,,,,17,001,0,22,400,400,2022_Oct_05_1435,Experiment,2021.1.4,359.89606200619687,
,,,,,,,,,,,,,,,,,,,,,,,,,,,,,,,,,,,,,,,,,,,,,4,Excited,rating,3.0,46.28657050000038,,,,,,,,,,,,,,,,,,,,,,,,,,,,,,,,,,,,,,,,,,,,,,,,,,,,,,,,,,,,,,,,,,,,,,,,,,,,,,,,,,,,,,,,,,,,,,,,,,,,,,,,,,,,,,,,,,,17,001,0,22,400,400,2022_Oct_05_1435,Experiment,2021.1.4,359.89606200619687,
,,,,,,,,,,,,,,,,,,,,,,,,,,,,,,,,,,,,,,,,,,,,,5,Upset,rating,1.0,50.238329600000725,,,,,,,,,,,,,,,,,,,,,,,,,,,,,,,,,,,,,,,,,,,,,,,,,,,,,,,,,,,,,,,,,,,,,,,,,,,,,,,,,,,,,,,,,,,,,,,,,,,,,,,,,,,,,,,,,,,17,001,0,22,400,400,2022_Oct_05_1435,Experiment,2021.1.4,359.89606200619687,
,,,,,,,,,,,,,,,,,,,,,,,,,,,,,,,,,,,,,,,,,,,,,6,Strong,rating,4.0,52.03420029999961,,,,,,,,,,,,,,,,,,,,,,,,,,,,,,,,,,,,,,,,,,,,,,,,,,,,,,,,,,,,,,,,,,,,,,,,,,,,,,,,,,,,,,,,,,,,,,,,,,,,,,,,,,,,,,,,,,,17,001,0,22,400,400,2022_Oct_05_1435,Experiment,2021.1.4,359.89606200619687,
,,,,,,,,,,,,,,,,,,,,,,,,,,,,,,,,,,,,,,,,,,,,,7,Guilty,rating,1.0,36.60298369999964,,,,,,,,,,,,,,,,,,,,,,,,,,,,,,,,,,,,,,,,,,,,,,,,,,,,,,,,,,,,,,,,,,,,,,,,,,,,,,,,,,,,,,,,,,,,,,,,,,,,,,,,,,,,,,,,,,,17,001,0,22,400,400,2022_Oct_05_1435,Experiment,2021.1.4,359.89606200619687,
,,,,,,,,,,,,,,,,,,,,,,,,,,,,,,,,,,,,,,,,,,,,,8,Scared,rating,1.0,29.43117270000039,,,,,,,,,,,,,,,,,,,,,,,,,,,,,,,,,,,,,,,,,,,,,,,,,,,,,,,,,,,,,,,,,,,,,,,,,,,,,,,,,,,,,,,,,,,,,,,,,,,,,,,,,,,,,,,,,,,17,001,0,22,400,400,2022_Oct_05_1435,Experiment,2021.1.4,359.89606200619687,
,,,,,,,,,,,,,,,,,,,,,,,,,,,,,,,,,,,,,,,,,,,,,9,Hostile,rating,1.0,26.65516960000059,,,,,,,,,,,,,,,,,,,,,,,,,,,,,,,,,,,,,,,,,,,,,,,,,,,,,,,,,,,,,,,,,,,,,,,,,,,,,,,,,,,,,,,,,,,,,,,,,,,,,,,,,,,,,,,,,,,17,001,0,22,400,400,2022_Oct_05_1435,Experiment,2021.1.4,359.89606200619687,
,,,,,,,,,,,,,,,,,,,,,,,,,,,,,,,,,,,,,,,,,,,,,10,Enthusiastic,rating,4.0,25.521239400000013,,,,,,,,,,,,,,,,,,,,,,,,,,,,,,,,,,,,,,,,,,,,,,,,,,,,,,,,,,,,,,,,,,,,,,,,,,,,,,,,,,,,,,,,,,,,,,,,,,,,,,,,,,,,,,,,,,,17,001,0,22,400,400,2022_Oct_05_1435,Experiment,2021.1.4,359.89606200619687,
,,,,,,,,,,,,,,,,,,,,,,,,,,,,,,,,,,,,,,,,,,,,,11,Proud,rating,3.0,8.017755300000317,,,,,,,,,,,,,,,,,,,,,,,,,,,,,,,,,,,,,,,,,,,,,,,,,,,,,,,,,,,,,,,,,,,,,,,,,,,,,,,,,,,,,,,,,,,,,,,,,,,,,,,,,,,,,,,,,,,17,001,0,22,400,400,2022_Oct_05_1435,Experiment,2021.1.4,359.89606200619687,
,,,,,,,,,,,,,,,,,,,,,,,,,,,,,,,,,,,,,,,,,,,,,12,Irritable,rating,1.0,7.085996599999817,,,,,,,,,,,,,,,,,,,,,,,,,,,,,,,,,,,,,,,,,,,,,,,,,,,,,,,,,,,,,,,,,,,,,,,,,,,,,,,,,,,,,,,,,,,,,,,,,,,,,,,,,,,,,,,,,,,17,001,0,22,400,400,2022_Oct_05_1435,Experiment,2021.1.4,359.89606200619687,
,,,,,,,,,,,,,,,,,,,,,,,,,,,,,,,,,,,,,,,,,,,,,13,Alert,rating,3.0,8.021659,,,,,,,,,,,,,,,,,,,,,,,,,,,,,,,,,,,,,,,,,,,,,,,,,,,,,,,,,,,,,,,,,,,,,,,,,,,,,,,,,,,,,,,,,,,,,,,,,,,,,,,,,,,,,,,,,,,17,001,0,22,400,400,2022_Oct_05_1435,Experiment,2021.1.4,359.89606200619687,
,,,,,,,,,,,,,,,,,,,,,,,,,,,,,,,,,,,,,,,,,,,,,14,Ashamed,rating,1.0,7.895747700000356,,,,,,,,,,,,,,,,,,,,,,,,,,,,,,,,,,,,,,,,,,,,,,,,,,,,,,,,,,,,,,,,,,,,,,,,,,,,,,,,,,,,,,,,,,,,,,,,,,,,,,,,,,,,,,,,,,,17,001,0,22,400,400,2022_Oct_05_1435,Experiment,2021.1.4,359.89606200619687,
,,,,,,,,,,,,,,,,,,,,,,,,,,,,,,,,,,,,,,,,,,,,,15,Inspired,rating,3.0,7.046471900000142,,,,,,,,,,,,,,,,,,,,,,,,,,,,,,,,,,,,,,,,,,,,,,,,,,,,,,,,,,,,,,,,,,,,,,,,,,,,,,,,,,,,,,,,,,,,,,,,,,,,,,,,,,,,,,,,,,,17,001,0,22,400,400,2022_Oct_05_1435,Experiment,2021.1.4,359.89606200619687,
,,,,,,,,,,,,,,,,,,,,,,,,,,,,,,,,,,,,,,,,,,,,,16,Nervous,rating,1.0,8.691384700000526,,,,,,,,,,,,,,,,,,,,,,,,,,,,,,,,,,,,,,,,,,,,,,,,,,,,,,,,,,,,,,,,,,,,,,,,,,,,,,,,,,,,,,,,,,,,,,,,,,,,,,,,,,,,,,,,,,,17,001,0,22,400,400,2022_Oct_05_1435,Experiment,2021.1.4,359.89606200619687,
,,,,,,,,,,,,,,,,,,,,,,,,,,,,,,,,,,,,,,,,,,,,,17,Determined,rating,3.0,9.77358710000044,,,,,,,,,,,,,,,,,,,,,,,,,,,,,,,,,,,,,,,,,,,,,,,,,,,,,,,,,,,,,,,,,,,,,,,,,,,,,,,,,,,,,,,,,,,,,,,,,,,,,,,,,,,,,,,,,,,17,001,0,22,400,400,2022_Oct_05_1435,Experiment,2021.1.4,359.89606200619687,
,,,,,,,,,,,,,,,,,,,,,,,,,,,,,,,,,,,,,,,,,,,,,18,Attentive,rating,4.0,9.647335599999678,,,,,,,,,,,,,,,,,,,,,,,,,,,,,,,,,,,,,,,,,,,,,,,,,,,,,,,,,,,,,,,,,,,,,,,,,,,,,,,,,,,,,,,,,,,,,,,,,,,,,,,,,,,,,,,,,,,17,001,0,22,400,400,2022_Oct_05_1435,Experiment,2021.1.4,359.89606200619687,
,,,,,,,,,,,,,,,,,,,,,,,,,,,,,,,,,,,,,,,,,,,,,19,Jittery,rating,3.0,10.770857299999989,,,,,,,,,,,,,,,,,,,,,,,,,,,,,,,,,,,,,,,,,,,,,,,,,,,,,,,,,,,,,,,,,,,,,,,,,,,,,,,,,,,,,,,,,,,,,,,,,,,,,,,,,,,,,,,,,,,17,001,0,22,400,400,2022_Oct_05_1435,Experiment,2021.1.4,359.89606200619687,
,,,,,,,,,,,,,,,,,,,,,,,,,,,,,,,,,,,,,,,,,,,,,20,Active,rating,4.0,7.2773550000001705,,,,,,,,,,,,,,,,,,,,,,,,,,,,,,,,,,,,,,,,,,,,,,,,,,,,,,,,,,,,,,,,,,,,,,,,,,,,,,,,,,,,,,,,,,,,,,,,,,,,,,,,,,,,,,,,,,,17,001,0,22,400,400,2022_Oct_05_1435,Experiment,2021.1.4,359.89606200619687,
,,,,,,,,,,,,,,,,,,,,,,,,,,,,,,,,,,,,,,,,,,,,,21,Afraid,rating,1.0,7.9579131999998935,,,,,,,,,,,,,,,,,,,,,,,,,,,,,,,,,,,,,,,,,,,,,,,,,,,,,,,,,,,,,,,,,,,,,,,,,,,,,,,,,,,,,,,,,,,,,,,,,,,,,,,,,,,,,,,,,,,17,001,0,22,400,400,2022_Oct_05_1435,Experiment,2021.1.4,359.89606200619687,
,,,,,,,,,,,,,,,,,,,,,,,,,,,,,,,,,,,,,,,,,,,,,22,Press the + button to submit your answers,description,,,,,,,,,,,,,,,,,,,,,,,,,,,,,,,,,,,,,,,,,,,,,,,,,,,,,,,,,,,,,,,,,,,,,,,,,,,,,,,,,,,,,,,,,,,,,,,,,,,,,,,,,,,,,,,,,,,,,17,001,0,22,400,400,2022_Oct_05_1435,Experiment,2021.1.4,359.89606200619687,
,,,,,,,,,,,,,,,,,,,,,,,,,,,,,,,,,,,,,,,,,,,,,,,,,,num_add,103.17299360000015,37.92158759999984,None,,,,,,,,,,,,,,,,,,,,,,,,,,,,,,,,,,,,,,,,,,,,,,,,,,,,,,,,,,,,,,,,,,,,,,,,,,,,,,,,,,,,,,,,,,,,,,,,,,,,,,,,,,,,,,,17,001,0,22,400,400,2022_Oct_05_1435,Experiment,2021.1.4,359.89606200619687,
,,,,,,,,,,,,,,,,,,,,,,,,,,,,,,,,,,,,,,,,,,,,,,,,,,,,,,141.12346440000056,None,num_add,17.739099600000372,,,,,,,,,,,,,,,,,,,,,,,,,,,,,,,,,,,,,,,,,,,,,,,,,,,,,,,,,,,,,,,,,,,,,,,,,,,,,,,,,,,,,,,,,,,,,,,,,,,,,,,,,,,17,001,0,22,400,400,2022_Oct_05_1435,Experiment,2021.1.4,359.89606200619687,
,,,,,,,,,,,,,,,,,,,,,,,,,,,,,,,,,,,,,,,,,,,,,,,,,,,,,,,,,,158.8707027999999,None,num_add,12.936067999999977,158.8707027999999,None,,,,,,,,,,,,,,,,,,,,,,,,,,,,,,,,,,,,,,,,,,,,,,,,,,,,,,,,,,,,,,,,,,,,,,,,,,,,,,,,,,,,,,,,,,,,,,,,,,,,,17,001,0,22,400,400,2022_Oct_05_1435,Experiment,2021.1.4,359.89606200619687,
,,,,,,,,,,,,,,,,,,,,,,,,,,,,,,,,,,,,,,,,,,,,,,,,,,,,,,,,,,,,,,,,171.83061980000002,None,num_add,9.640075700000125,,,,,,,,,,,,,,,,,,,,,,,,,,,,,,,,,,,,,,,,,,,,,,,,,,,,,,,,,,,,,,,,,,,,,,,,,,,,,,,,,,,,,,,,,,,,,,,,,17,001,0,22,400,400,2022_Oct_05_1435,Experiment,2021.1.4,359.89606200619687,
,,,,,,,,,,,,,,,,,,,,,,,,,,,,,,,,,,,,,,,,,,,,,,,,,,,,,,,,,,,,,,,,,,,,181.4804494,None,space,22.91001150000011,,,,,,,,,,,,,,,,,,,,,,,,,,,,,,,,,,,,,,,,,,,,,,,,,,,,,,,,,,,,,,,,,,,,,,,,,,,,,,,,,,,,,,,,,,,,,17,001,0,22,400,400,2022_Oct_05_1435,Experiment,2021.1.4,359.89606200619687,
images\S22_M_S_03.png,images\S22_M_S_03_scrambled.png,22,Sad,0.3,M,0,0,practice,on,2,0.5,0.75,0.5,0.87,3,,,,,,,,,,,0,0,0,4,,,,,,,,,,,,,,,,,,,,,,,,,,,,,,,,,,,,,,,,,,,204.55393389999972,205.05656590000035,205.05656590000035,205.80632310000055,205.80632310000055,206.3090769999999,206.3090769999999,207.1865453999999,207.1865453999999,None,None,207.1865453999999,None,,,,,,,,,,,,,,,,,,,,,,,,,,,,,,,,,,,,,,,,,,,,,,,,,,,,,,,,,,,,,,,,,,,,,,,,,,,,,,,,17,001,0,22,400,400,2022_Oct_05_1435,Experiment,2021.1.4,359.89606200619687,
images\S22_M_S_02.png,images\S22_M_S_02_scrambled.png,22,Sad,0.2,M,0,0,practice,off,1,0.5,0.75,0.5,0.751,3,,,,,,,,,,,0,1,1,3,,,,,,,,,,,,,,,,,,,,,,,,,,,,,,,,,,,,,,,,,,,210.27162430000044,210.77148170000055,210.77148170000055,211.52124220000042,211.52124220000042,212.02669590000005,212.02669590000005,212.78200900000047,212.78200900000047,210.27162430000044,num_6,212.78200900000047,210.27162430000044,2.14521220000006,,,,,,,,,,,,,,,,,,,,,,,,,,,,,,,,,,,,,,,,,,,,,,,,,,,,,,,,,,,,,,,,,,,,,,,,,,,,,,,17,001,0,22,400,400,2022_Oct_05_1435,Experiment,2021.1.4,359.89606200619687,
images\S22_M_S_02.png,images\S22_M_S_02_scrambled.png,22,Sad,0.2,M,0,0,practice,on,2,0.5,0.75,0.5,0.783,3,,,,,,,,,,,0,2,2,6,,,,,,,,,,,,,,,,,,,,,,,,,,,,,,,,,,,,,,,,,,,214.9785208000003,215.48396719999982,215.48396719999982,216.23929120000048,216.23929120000048,216.74190160000035,216.74190160000035,217.53053530000034,217.53053530000034,None,num_4,217.53053530000034,None,0.8525637999991886,,,,,,,,,,,,,,,,,,,,,,,,,,,,,,,,,,,,,,,,,,,,,,,,,,,,,,,,,,,,,,,,,,,,,,,,,,,,,,,17,001,0,22,400,400,2022_Oct_05_1435,Experiment,2021.1.4,359.89606200619687,
images\S21_F_H_02.png,images\S21_F_H_02_scrambled.png,21,Happy,-0.2,F,0,0,practice,off,1,0.5,0.75,0.5,0.91,3,,,,,,,,,,,0,3,3,1,,,,,,,,,,,,,,,,,,,,,,,,,,,,,,,,,,,,,,,,,,,218.4691211999998,218.97186930000044,218.97186930000044,219.72154240000054,219.72154240000054,220.22135600000001,220.22135600000001,221.13778660000025,221.13778660000025,None,num_4,221.13778660000025,None,0.7975466000007145,,,,,,,,,,,,,,,,,,,,,,,,,,,,,,,,,,,,,,,,,,,,,,,,,,,,,,,,,,,,,,,,,,,,,,,,,,,,,,,17,001,0,22,400,400,2022_Oct_05_1435,Experiment,2021.1.4,359.89606200619687,
images\S22_M_S_01.png,images\S22_M_S_01_scrambled.png,22,Sad,0.1,M,0,0,practice,on,2,0.5,0.75,0.5,0.867,3,,,,,,,,,,,0,4,4,5,,,,,,,,,,,,,,,,,,,,,,,,,,,,,,,,,,,,,,,,,,,222.05412979999983,222.55953109999973,222.55953109999973,223.30929809999998,223.30929809999998,223.8120670999997,223.8120670999997,224.68390920000002,224.68390920000002,None,num_4,224.68390920000002,None,1.1153404000006049,,,,,,,,,,,,,,,,,,,,,,,,,,,,,,,,,,,,,,,,,,,,,,,,,,,,,,,,,,,,,,,,,,,,,,,,,,,,,,,17,001,0,22,400,400,2022_Oct_05_1435,Experiment,2021.1.4,359.89606200619687,
images\S21_F_H_01.png,images\S21_F_H_01_scrambled.png,21,Happy,-0.1,F,0,0,practice,off,1,0.5,0.75,0.5,0.853,3,,,,,,,,,,,0,5,5,0,,,,,,,,,,,,,,,,,,,,,,,,,,,,,,,,,,,,,,,,,,,225.88907389999986,226.39171239999996,226.39171239999996,227.1470390000004,227.1470390000004,227.6496956000001,227.6496956000001,228.50498229999994,228.50498229999994,None,num_4,228.50498229999994,None,0.6300683999998,,,,,,,,,,,,,,,,,,,,,,,,,,,,,,,,,,,,,,,,,,,,,,,,,,,,,,,,,,,,,,,,,,,,,,,,,,,,,,,17,001,0,22,400,400,2022_Oct_05_1435,Experiment,2021.1.4,359.89606200619687,
images\S22_M_H_02.png,images\S22_M_H_02_scrambled.png,22,Happy,-0.2,M,0,0,practice,off,1,0.5,0.75,0.5,0.883,3,,,,,,,,,,,0,6,6,2,,,,,,,,,,,,,,,,,,,,,,,,,,,,,,,,,,,,,,,,,,,229.2435999999998,229.74626239999998,229.74626239999998,230.50159170000006,230.50159170000006,231.0014299000004,231.0014299000004,231.8901353000001,231.8901353000001,None,num_4,231.8901353000001,None,0.6133202000000892,,,,,,,,,,,,,,,,,,,,,,,,,,,,,,,,,,,,,,,,,,,,,,,,,,,,,,,,,,,,,,,,,,,,,,,,,,,,,,,17,001,0,22,400,400,2022_Oct_05_1435,Experiment,2021.1.4,359.89606200619687,
images\S22_M_S_03.png,images\S22_M_S_03_scrambled.png,22,Sad,0.3,M,0,0,practice,on,2,0.5,0.75,0.5,0.794,3,,,,,,,,,,,0,7,7,7,,,,,,,,,,,,,,,,,,,,,,,,,,,,,,,,,,,,,,,,,,,232.5814720999997,233.08699950000027,233.08699950000027,233.83942840000054,233.83942840000054,234.34217220000028,234.34217220000028,235.14191050000045,235.14191050000045,None,num_6,235.14191050000045,None,0.48937109999951645,,,,,,,,,,,,,,,,,,,,,,,,,,,,,,,,,,,,,,,,,,,,,,,,,,,,,,,,,,,,,,,,,,,,,,,,,,,,,,,17,001,0,22,400,400,2022_Oct_05_1435,Experiment,2021.1.4,359.89606200619687,
,,,,,,,,,,,,,,,,,,,,,,,,,,,,,,,,,,,,,,,,,,,,,,,,,,,,,,,,,,,,,,,,,,,,,,,,,,,,,,,,,,,,,,235.66386000000057,None,space,56.422754900000655,,,,,,,,,,,,,,,,,,,,,,,,,,,,,,,,,,,,,,,,,,,,,,,,,,,,,,,,,,,,,,,,,,,,,,,,,,,17,001,0,22,400,400,2022_Oct_05_1435,Experiment,2021.1.4,359.89606200619687,
images\S6_M_H_01.png,images\S6_M_H_01_scrambled.png,6,happy,10,male,4,,211,on,2,0.5,0.75,0.5,0.877,3,210,1,1,1,2,2,32,128,164,,,,,,0,0,0,0,,,,,,,,,,,,,,,,,,,,,,,,,,,,,,,,,,,,,,,,,,,,,,,,,,,,,,,,,292.5881027000005,293.09073609999996,293.09073609999996,293.84048859999984,293.84048859999984,294.34325940000053,294.34325940000053,295.2235480999998,295.2235480999998,None,num_6,1.8477743000003102,295.2235480999998,None,sad,1,Happy,297.0895317499999,None,None,297.0895317499999,None,,,,,,,,,,,,,,,,,,,,,,,,,,,,,,,,,,,,,,,,,,,,,,,,,,,,,17,001,0,22,400,400,2022_Oct_05_1435,Experiment,2021.1.4,359.89606200619687,
images\S2_M_S_03.png,images\S2_M_S_03_scrambled.png,2,sad,-30,male,1,,492,off,1,0.5,0.75,0.5,0.886,3,491,1,1,1,0,0,0,0,1,,,,,,0,1,1,1,,,,,,,,,,,,,,,,,,,,,,,,,,,,,,,,,,,,,,,,,,,,,,,,,,,,,,,,,297.17281449999973,297.67825040000025,297.67825040000025,298.4307638,298.4307638,298.9334104999998,298.9334104999998,299.8221244000006,299.8221244000006,None,num_6,0.5450407999996969,299.8221244000006,None,sad,1,Sad,300.3968693000006,None,None,300.3968693000006,None,,,,,,,,,,,,,,,,,,,,,,,,,,,,,,,,,,,,,,,,,,,,,,,,,,,,,17,001,0,22,400,400,2022_Oct_05_1435,Experiment,2021.1.4,359.89606200619687,
images\S3_F_H_01.png,images\S3_F_H_01_scrambled.png,3,happy,10,female,4,,73,on,2,0.5,0.75,0.5,0.768,3,72,1,1,1,2,2,32,128,164,,,,,,0,2,2,2,,,,,,,,,,,,,,,,,,,,,,,,,,,,,,,,,,,,,,,,,,,,,,,,,,,,,,,,,300.4829147999999,300.9883240999998,300.9883240999998,301.74098849999973,301.74098849999973,302.2463951,302.2463951,303.0182612999997,303.0182612999997,None,num_6,0.4929082999997263,303.0182612999997,None,sad,1,Happy,303.52366325,None,None,303.52366325,None,,,,,,,,,,,,,,,,,,,,,,,,,,,,,,,,,,,,,,,,,,,,,,,,,,,,,17,001,0,22,400,400,2022_Oct_05_1435,Experiment,2021.1.4,359.89606200619687,
images\S5_F_S_01.png,images\S5_F_S_01_scrambled.png,5,sad,-10,female,3,,448,on,2,0.5,0.75,0.5,0.817,3,447,2,1,1,2,2,32,128,163,,,,,,0,3,3,3,,,,,,,,,,,,,,,,,,,,,,,,,,,,,,,,,,,,,,,,,,,,,,,,,,,,,,,,,303.64302320000024,304.1457982000002,304.1457982000002,304.8982396000001,304.8982396000001,305.40087289999974,305.40087289999974,306.21726450000006,306.21726450000006,None,num_4,0.5259501999998974,306.21726450000006,None,happy,1,Sad,306.7532101500001,None,None,306.7532101500001,None,,,,,,,,,,,,,,,,,,,,,,,,,,,,,,,,,,,,,,,,,,,,,,,,,,,,,17,001,0,22,400,400,2022_Oct_05_1435,Experiment,2021.1.4,359.89606200619687,
images\S9_F_H_03.png,images\S9_F_H_03_scrambled.png,9,happy,30,female,6,,591,on,2,0.5,0.75,0.5,0.814,3,590,3,1,1,2,2,32,128,166,,,,,,0,4,4,4,,,,,,,,,,,,,,,,,,,,,,,,,,,,,,,,,,,,,,,,,,,,,,,,,,,,,,,,,306.8642861999997,307.36695020000025,307.36695020000025,308.12226199999986,308.12226199999986,308.6248467000005,308.6248467000005,309.4413695000003,309.4413695000003,None,num_4,0.48579140000038024,309.4413695000003,None,happy,1,Happy,309.9411316000005,None,None,309.9411316000005,None,,,,,,,,,,,,,,,,,,,,,,,,,,,,,,,,,,,,,,,,,,,,,,,,,,,,,17,001,0,22,400,400,2022_Oct_05_1435,Experiment,2021.1.4,359.89606200619687,
images\S8_M_S_01.png,images\S8_M_S_01_scrambled.png,8,sad,-10,male,3,,466,on,2,0.5,0.75,0.5,0.758,3,465,4,1,1,2,2,32,128,163,,,,,,0,5,5,5,,,,,,,,,,,,,,,,,,,,,,,,,,,,,,,,,,,,,,,,,,,,,,,,,,,,,,,,,310.05219149999994,310.5520580000002,310.5520580000002,311.3046224999998,311.3046224999998,311.80725770000026,311.80725770000026,312.5681192000002,312.5681192000002,None,num_6,0.47115630000007513,312.5681192000002,None,sad,1,Sad,313.05687235000005,None,None,313.05687235000005,None,,,,,,,,,,,,,,,,,,,,,,,,,,,,,,,,,,,,,,,,,,,,,,,,,,,,,17,001,0,22,400,400,2022_Oct_05_1435,Experiment,2021.1.4,359.89606200619687,
images\S5_F_S_03.png,images\S5_F_S_03_scrambled.png,5,sad,-30,female,1,,150,off,1,0.5,0.75,0.5,0.826,3,149,1,1,1,0,0,0,0,1,,,,,,0,6,6,6,,,,,,,,,,,,,,,,,,,,,,,,,,,,,,,,,,,,,,,,,,,,,,,,,,,,,,,,,313.14015930000005,313.6399941999998,313.6399941999998,314.39545569999973,314.39545569999973,314.89796690000003,314.89796690000003,315.73114200000055,315.73114200000055,None,num_6,0.5801354999994146,315.73114200000055,None,sad,1,Sad,316.32529690000047,None,None,316.32529690000047,None,,,,,,,,,,,,,,,,,,,,,,,,,,,,,,,,,,,,,,,,,,,,,,,,,,,,,17,001,0,22,400,400,2022_Oct_05_1435,Experiment,2021.1.4,359.89606200619687,
images\S3_F_H_03.png,images\S3_F_H_03_scrambled.png,3,happy,30,female,6,,375,off,1,0.5,0.75,0.5,0.805,3,374,2,1,1,0,0,0,0,6,,,,,,0,7,7,7,,,,,,,,,,,,,,,,,,,,,,,,,,,,,,,,,,,,,,,,,,,,,,,,,,,,,,,,,316.4113662999998,316.9168074999998,316.9168074999998,317.6693584000004,317.6693584000004,318.1719767000004,318.1719767000004,318.9800605999999,318.9800605999999,None,num_4,0.4753982000001997,318.9800605999999,None,happy,1,Happy,319.4799025500006,None,None,319.4799025500006,None,,,,,,,,,,,,,,,,,,,,,,,,,,,,,,,,,,,,,,,,,,,,,,,,,,,,,17,001,0,22,400,400,2022_Oct_05_1435,Experiment,2021.1.4,359.89606200619687,
images\S6_M_H_03.png,images\S6_M_H_03_scrambled.png,6,happy,30,male,6,,453,on,2,0.5,0.75,0.5,0.878,3,452,1,1,2,2,2,32,128,166,,,,,,0,8,8,8,,,,,,,,,,,,,,,,,,,,,,,,,,,,,,,,,,,,,,,,,,,,,,,,,,,,,,,,,319.5937246000003,320.0963665999998,320.0963665999998,320.84613809999973,320.84613809999973,321.3515803,321.3515803,322.2318221000005,322.2318221000005,None,num_4,0.5198819000006552,322.2318221000005,None,happy,1,Happy,322.7649959999999,None,None,322.7649959999999,None,,,,,,,,,,,,,,,,,,,,,,,,,,,,,,,,,,,,,,,,,,,,,,,,,,,,,17,001,0,22,400,400,2022_Oct_05_1435,Experiment,2021.1.4,359.89606200619687,
images\S10_M_H_02.png,images\S10_M_H_02_scrambled.png,10,happy,20,male,5,,356,on,2,0.5,0.75,0.5,0.855,3,355,2,1,1,2,2,32,128,165,,,,,,0,9,9,9,,,,,,,,,,,,,,,,,,,,,,,,,,,,,,,,,,,,,,,,,,,,,,,,,,,,,,,,,322.8788263000006,323.38147449999997,323.38147449999997,324.1368233000003,324.1368233000003,324.64222020000034,324.64222020000034,325.5030526999999,325.5030526999999,None,num_4,0.6403467999998611,325.5030526999999,None,happy,1,Happy,326.1583928,None,None,326.1583928,None,,,,,,,,,,,,,,,,,,,,,,,,,,,,,,,,,,,,,,,,,,,,,,,,,,,,,17,001,0,22,400,400,2022_Oct_05_1435,Experiment,2021.1.4,359.89606200619687,
images\S8_M_S_03.png,images\S8_M_S_03_scrambled.png,8,sad,-30,male,1,,528,off,1,0.5,0.75,0.5,0.804,3,527,1,1,1,0,0,0,0,1,,,,,,0,10,10,10,,,,,,,,,,,,,,,,,,,,,,,,,,,,,,,,,,,,,,,,,,,,,,,,,,,,,,,,,326.23891150000054,326.74435450000055,326.74435450000055,327.49690610000016,327.49690610000016,327.99950979999994,327.99950979999994,328.80756780000047,328.80756780000047,None,num_6,0.47989899999993213,328.80756780000047,None,sad,1,Sad,329.3130159000002,None,None,329.3130159000002,None,,,,,,,,,,,,,,,,,,,,,,,,,,,,,,,,,,,,,,,,,,,,,,,,,,,,,17,001,0,22,400,400,2022_Oct_05_1435,Experiment,2021.1.4,359.89606200619687,
images\S7_F_H_03.png,images\S7_F_H_03_scrambled.png,7,happy,30,female,6,,399,off,1,0.5,0.75,0.5,0.875,3,398,2,1,1,0,0,0,0,6,,,,,,0,11,11,11,,,,,,,,,,,,,,,,,,,,,,,,,,,,,,,,,,,,,,,,,,,,,,,,,,,,,,,,,329.4268232000004,329.92666910000025,329.92666910000025,330.6792297000002,330.6792297000002,331.18184100000053,331.18184100000053,332.0565815,332.0565815,None,num_4,0.566729199999827,332.0565815,None,happy,1,Happy,332.6370112000004,None,None,332.6370112000004,None,,,,,,,,,,,,,,,,,,,,,,,,,,,,,,,,,,,,,,,,,,,,,,,,,,,,,17,001,0,22,400,400,2022_Oct_05_1435,Experiment,2021.1.4,359.89606200619687,
images\S6_M_H_02.png,images\S6_M_H_02_scrambled.png,6,happy,20,male,5,,512,off,1,0.5,0.75,0.5,0.938,3,511,3,1,1,0,0,0,0,5,,,,,,0,12,12,12,,,,,,,,,,,,,,,,,,,,,,,,,,,,,,,,,,,,,,,,,,,,,,,,,,,,,,,,,332.7202677000005,333.2229051000004,333.2229051000004,333.97545210000044,333.97545210000044,334.4808473000003,334.4808473000003,335.4223528000002,335.4223528000002,None,num_4,0.5129668999998103,335.4223528000002,None,happy,1,Happy,335.94986640000025,None,None,335.94986640000025,None,,,,,,,,,,,,,,,,,,,,,,,,,,,,,,,,,,,,,,,,,,,,,,,,,,,,,17,001,0,22,400,400,2022_Oct_05_1435,Experiment,2021.1.4,359.89606200619687,
images\S9_F_H_03.png,images\S9_F_H_03_scrambled.png,9,happy,30,female,6,,471,on,2,0.5,0.75,0.5,0.923,3,470,1,1,1,2,2,32,128,166,,,,,,0,13,13,13,,,,,,,,,,,,,,,,,,,,,,,,,,,,,,,,,,,,,,,,,,,,,,,,,,,,,,,,,335.99981840000055,336.5052562999999,336.5052562999999,337.2605338000003,337.2605338000003,337.76318830000037,337.76318830000037,338.69068659999994,338.69068659999994,None,num_4,0.4284631000000445,338.69068659999994,None,happy,1,Happy,339.12944229999994,None,None,339.12944229999994,None,,,,,,,,,,,,,,,,,,,,,,,,,,,,,,,,,,,,,,,,,,,,,,,,,,,,,17,001,0,22,400,400,2022_Oct_05_1435,Experiment,2021.1.4,359.89606200619687,
images\S4_M_H_03.png,images\S4_M_H_03_scrambled.png,4,happy,30,male,6,,261,off,1,0.5,0.75,0.5,0.819,3,260,1,1,2,0,0,0,0,6,,,,,,0,14,14,14,,,,,,,,,,,,,,,,,,,,,,,,,,,,,,,,,,,,,,,,,,,,,,,,,,,,,,,,,339.2404938999998,339.74591640000017,339.74591640000017,340.49847709999995,340.49847709999995,341.0010861999999,341.0010861999999,341.82583440000053,341.82583440000053,None,num_4,0.909574799999973,341.82583440000053,None,happy,1,Happy,342.75057170000036,None,None,342.75057170000036,None,,,,,,,,,,,,,,,,,,,,,,,,,,,,,,,,,,,,,,,,,,,,,,,,,,,,,17,001,0,22,400,400,2022_Oct_05_1435,Experiment,2021.1.4,359.89606200619687,
images\S1_F_S_03.png,images\S1_F_S_03_scrambled.png,1,sad,-30,female,1,,306,on,2,0.5,0.75,0.5,0.785,3,305,1,1,1,2,2,32,128,161,,,,,,0,15,15,15,,,,,,,,,,,,,,,,,,,,,,,,,,,,,,,,,,,,,,,,,,,,,,,,,,,,,,,,,342.8587673000002,343.3614679000002,343.3614679000002,344.1141365000003,344.1141365000003,344.6194666000001,344.6194666000001,345.41084630000023,345.41084630000023,None,num_6,0.6205659999995987,345.41084630000023,None,sad,1,Sad,346.04122389999975,None,None,346.04122389999975,None,,,,,,,,,,,,,,,,,,,,,,,,,,,,,,,,,,,,,,,,,,,,,,,,,,,,,17,001,0,22,400,400,2022_Oct_05_1435,Experiment,2021.1.4,359.89606200619687,
images\S10_M_S_02.png,images\S10_M_S_02_scrambled.png,10,sad,-20,male,2,,179,off,1,0.5,0.75,0.5,0.904,3,178,1,1,1,0,0,0,0,2,,,,,,0,16,16,16,,,,,,,,,,,,,,,,,,,,,,,,,,,,,,,,,,,,,,,,,,,,,,,,,,,,,,,,,346.1272730999999,346.62994570000046,346.62994570000046,347.3852585000004,347.3852585000004,347.8878413000002,347.8878413000002,348.79592690000027,348.79592690000027,None,num_6,0.5235644000003958,348.79592690000027,None,sad,1,Sad,349.3429908500002,None,None,349.3429908500002,None,,,,,,,,,,,,,,,,,,,,,,,,,,,,,,,,,,,,,,,,,,,,,,,,,,,,,17,001,0,22,400,400,2022_Oct_05_1435,Experiment,2021.1.4,359.89606200619687,
images\S8_M_S_03.png,images\S8_M_S_03_scrambled.png,8,sad,-30,male,1,,588,on,2,0.5,0.75,0.5,0.851,3,587,1,1,1,2,2,32,128,161,,,,,,0,17,17,17,,,,,,,,,,,,,,,,,,,,,,,,,,,,,,,,,,,,,,,,,,,,,,,,,,,,,,,,,349.39571220000016,349.9011491000001,349.9011491000001,350.6564539000001,350.6564539000001,351.1591948000005,351.1591948000005,352.0116003000003,352.0116003000003,None,num_6,0.41991929999949207,352.0116003000003,None,sad,1,Sad,352.4475731000002,None,None,352.4475731000002,None,,,,,,,,,,,,,,,,,,,,,,,,,,,,,,,,,,,,,,,,,,,,,,,,,,,,,17,001,0,22,400,400,2022_Oct_05_1435,Experiment,2021.1.4,359.89606200619687,
images\S8_M_S_02.png,images\S8_M_S_02_scrambled.png,8,sad,-20,male,2,,527,off,1,0.5,0.75,0.5,0.836,3,526,1,2,1,0,0,0,0,2,,,,,,0,18,18,18,,,,,,,,,,,,,,,,,,,,,,,,,,,,,,,,,,,,,,,,,,,,,,,,,,,,,,,,,352.5280912999997,353.02793829999973,353.02793829999973,353.7777481000003,353.7777481000003,354.2775498000001,354.2775498000001,355.11620550000043,355.11620550000043,None,num_6,0.4431851999997889,355.11620550000043,None,sad,1,Sad,355.5883088999999,None,None,355.5883088999999,None,,,,,,,,,,,,,,,,,,,,,,,,,,,,,,,,,,,,,,,,,,,,,,,,,,,,,17,001,0,22,400,400,2022_Oct_05_1435,Experiment,2021.1.4,359.89606200619687,
images\S2_M_H_01.png,images\S2_M_H_01_scrambled.png,2,happy,10,male,4,,127,off,1,0.5,0.75,0.5,0.751,3,126,2,1,1,0,0,0,0,4,,,,,,0,19,19,19,,,,,,,,,,,,,,,,,,,,,,,,,,,,,,,,,,,,,,,,,,,,,,,,,,,,,,,,,355.70211780000045,356.20477720000054,356.20477720000054,356.9600929999997,356.9600929999997,357.46269649999977,357.46269649999977,358.22082090000004,358.22082090000004,None,num_6,0.362657699999545,358.22082090000004,None,sad,1,Happy,358.5929094000003,None,None,358.5929094000003,None,,,,,,,,,,,,,,,,,,,,,,,,,,,,,,,,,,,,,,,,,,,,,,,,,,,,,17,001,0,22,400,400,2022_Oct_05_1435,Experiment,2021.1.4,359.89606200619687,
images\S1_F_H_03.png,images\S1_F_H_03_scrambled.png,1,happy,30,female,6,,543,on,2,0.5,0.75,0.5,0.848,3,542,1,1,1,2,2,32,128,166,,,,,,0,20,20,20,,,,,,,,,,,,,,,,,,,,,,,,,,,,,,,,,,,,,,,,,,,,,,,,,,,,,,,,,358.6789918000004,359.17882350000036,359.17882350000036,359.92862590000004,359.92862590000004,360.43124400000033,360.43124400000033,361.2838489000005,361.2838489000005,None,num_4,0.5073958000002676,361.2838489000005,None,happy,1,Happy,361.8058047000004,None,None,361.8058047000004,None,,,,,,,,,,,,,,,,,,,,,,,,,,,,,,,,,,,,,,,,,,,,,,,,,,,,,17,001,0,22,400,400,2022_Oct_05_1435,Experiment,2021.1.4,359.89606200619687,
images\S7_F_S_01.png,images\S7_F_S_01_scrambled.png,7,sad,-10,female,3,,520,off,1,0.5,0.75,0.5,0.923,3,519,1,1,1,0,0,0,0,3,,,,,,0,21,21,21,,,,,,,,,,,,,,,,,,,,,,,,,,,,,,,,,,,,,,,,,,,,,,,,,,,,,,,,,361.91689750000023,362.4196311000005,362.4196311000005,363.1692769000001,363.1692769000001,363.6719023000005,363.6719023000005,364.5994731999999,364.5994731999999,None,num_6,0.32017830000040703,364.5994731999999,None,sad,1,Sad,364.93264050000016,None,None,364.93264050000016,None,,,,,,,,,,,,,,,,,,,,,,,,,,,,,,,,,,,,,,,,,,,,,,,,,,,,,17,001,0,22,400,400,2022_Oct_05_1435,Experiment,2021.1.4,359.89606200619687,
images\S10_M_S_02.png,images\S10_M_S_02_scrambled.png,10,sad,-20,male,2,,119,on,2,0.5,0.75,0.5,0.901,3,118,1,1,1,2,2,32,128,162,,,,,,0,22,22,22,,,,,,,,,,,,,,,,,,,,,,,,,,,,,,,,,,,,,,,,,,,,,,,,,,,,,,,,,364.9826137,365.48528030000034,365.48528030000034,366.2406007999998,366.2406007999998,366.7459885999997,366.7459885999997,367.6541457000003,367.6541457000003,None,num_4,0.5132784999996147,367.6541457000003,None,happy,1,Sad,368.1760841000005,None,None,368.1760841000005,None,,,,,,,,,,,,,,,,,,,,,,,,,,,,,,,,,,,,,,,,,,,,,,,,,,,,,17,001,0,22,400,400,2022_Oct_05_1435,Experiment,2021.1.4,359.89606200619687,
images\S5_F_H_02.png,images\S5_F_H_02_scrambled.png,5,happy,20,female,5,,86,on,2,0.5,0.75,0.5,0.882,3,85,2,1,1,2,2,32,128,165,,,,,,0,23,23,23,,,,,,,,,,,,,,,,,,,,,,,,,,,,,,,,,,,,,,,,,,,,,,,,,,,,,,,,,368.2593919000001,368.76483290000033,368.76483290000033,369.51737890000004,369.51737890000004,370.0199594000005,370.0199594000005,370.90579380000054,370.90579380000054,None,num_4,0.5736606000000393,370.90579380000054,None,happy,1,Happy,371.5028791499999,None,None,371.5028791499999,None,,,,,,,,,,,,,,,,,,,,,,,,,,,,,,,,,,,,,,,,,,,,,,,,,,,,,17,001,0,22,400,400,2022_Oct_05_1435,Experiment,2021.1.4,359.89606200619687,
images\S5_F_S_03.png,images\S5_F_S_03_scrambled.png,5,sad,-30,female,1,,90,on,2,0.5,0.75,0.5,0.929,3,89,3,2,1,2,2,32,128,161,,,,,,0,24,24,24,,,,,,,,,,,,,,,,,,,,,,,,,,,,,,,,,,,,,,,,,,,,,,,,,,,,,,,,,371.55837710000014,372.05822350000017,372.05822350000017,372.80803259999993,372.80803259999993,373.3106131000004,373.3106131000004,374.2437968000004,374.2437968000004,None,num_6,0.6274533000005249,374.2437968000004,None,sad,1,Sad,374.89627595,None,None,374.89627595,None,,,,,,,,,,,,,,,,,,,,,,,,,,,,,,,,,,,,,,,,,,,,,,,,,,,,,17,001,0,22,400,400,2022_Oct_05_1435,Experiment,2021.1.4,359.89606200619687,
images\S9_F_S_02.png,images\S9_F_S_02_scrambled.png,9,sad,-20,female,2,,593,on,2,0.5,0.75,0.5,0.773,3,592,4,1,1,2,2,32,128,162,,,,,,0,25,25,25,,,,,,,,,,,,,,,,,,,,,,,,,,,,,,,,,,,,,,,,,,,,,,,,,,,,,,,,,375.0073265000001,375.5099889000003,375.5099889000003,376.2596972000001,376.2596972000001,376.7651556999999,376.7651556999999,377.5426699999998,377.5426699999998,None,num_6,0.584904500000448,377.5426699999998,None,sad,1,Sad,378.1424698000001,None,None,378.1424698000001,None,,,,,,,,,,,,,,,,,,,,,,,,,,,,,,,,,,,,,,,,,,,,,,,,,,,,,17,001,0,22,400,400,2022_Oct_05_1435,Experiment,2021.1.4,359.89606200619687,
images\S4_M_H_01.png,images\S4_M_H_01_scrambled.png,4,happy,10,male,4,,19,off,1,0.5,0.75,0.5,0.934,3,18,1,1,1,0,0,0,0,4,,,,,,0,26,26,26,,,,,,,,,,,,,,,,,,,,,,,,,,,,,,,,,,,,,,,,,,,,,,,,,,,,,,,,,378.2285603999999,378.7311776000006,378.7311776000006,379.48372740000013,379.48372740000013,379.9835828000005,379.9835828000005,380.92219769999974,380.92219769999974,None,num_6,0.5173353000000134,380.92219769999974,None,sad,1,Happy,381.4443160000001,None,None,381.4443160000001,None,,,,,,,,,,,,,,,,,,,,,,,,,,,,,,,,,,,,,,,,,,,,,,,,,,,,,17,001,0,22,400,400,2022_Oct_05_1435,Experiment,2021.1.4,359.89606200619687,
images\S1_F_S_01.png,images\S1_F_S_01_scrambled.png,1,sad,-10,female,3,,484,off,1,0.5,0.75,0.5,0.846,3,483,2,1,1,0,0,0,0,3,,,,,,0,27,27,27,,,,,,,,,,,,,,,,,,,,,,,,,,,,,,,,,,,,,,,,,,,,,,,,,,,,,,,,,381.5525421000002,382.0579480000006,382.0579480000006,382.8105703000001,382.8105703000001,383.3159327000003,383.3159327000003,384.16563570000017,384.16563570000017,None,num_6,0.5219178999996075,384.16563570000017,None,sad,1,Sad,384.70160510000005,None,None,384.70160510000005,None,,,,,,,,,,,,,,,,,,,,,,,,,,,,,,,,,,,,,,,,,,,,,,,,,,,,,17,001,0,22,400,400,2022_Oct_05_1435,Experiment,2021.1.4,359.89606200619687,
images\S9_F_H_01.png,images\S9_F_H_01_scrambled.png,9,happy,10,female,4,,469,on,2,0.5,0.75,0.5,0.817,3,468,1,1,1,2,2,32,128,164,,,,,,0,28,28,28,,,,,,,,,,,,,,,,,,,,,,,,,,,,,,,,,,,,,,,,,,,,,,,,,,,,,,,,,384.7876634000004,385.2930760999998,385.2930760999998,386.0457137000003,386.0457137000003,386.5510641000001,386.5510641000001,387.3703211000002,387.3703211000002,None,num_4,0.5650243999998565,387.3703211000002,None,happy,1,Happy,387.9505792,None,None,387.9505792,None,,,,,,,,,,,,,,,,,,,,,,,,,,,,,,,,,,,,,,,,,,,,,,,,,,,,,17,001,0,22,400,400,2022_Oct_05_1435,Experiment,2021.1.4,359.89606200619687,
images\S8_M_H_02.png,images\S8_M_H_02_scrambled.png,8,happy,20,male,5,,584,on,2,0.5,0.75,0.5,0.803,3,583,2,1,1,2,2,32,128,165,,,,,,0,29,29,29,,,,,,,,,,,,,,,,,,,,,,,,,,,,,,,,,,,,,,,,,,,,,,,,,,,,,,,,,388.0366684999999,388.54209450000053,388.54209450000053,389.29473789999975,389.29473789999975,389.8001598000001,389.8001598000001,390.60812350000015,390.60812350000015,None,num_4,0.6151525000004767,390.60812350000015,None,happy,1,Happy,391.2412671000002,None,None,391.2412671000002,None,,,,,,,,,,,,,,,,,,,,,,,,,,,,,,,,,,,,,,,,,,,,,,,,,,,,,17,001,0,22,400,400,2022_Oct_05_1435,Experiment,2021.1.4,359.89606200619687,
images\S6_M_H_03.png,images\S6_M_H_03_scrambled.png,6,happy,30,male,6,,213,on,2,0.5,0.75,0.5,0.896,3,212,3,1,1,2,2,32,128,166,,,,,,0,30,30,30,,,,,,,,,,,,,,,,,,,,,,,,,,,,,,,,,,,,,,,,,,,,,,,,,,,,,,,,,391.29122929999994,391.7938519999998,391.7938519999998,392.5464391000005,392.5464391000005,393.0462206000002,393.0462206000002,393.94601479999983,393.94601479999983,None,num_4,0.5493405999995957,393.94601479999983,None,happy,1,Happy,394.5097002000002,None,None,394.5097002000002,None,,,,,,,,,,,,,,,,,,,,,,,,,,,,,,,,,,,,,,,,,,,,,,,,,,,,,17,001,0,22,400,400,2022_Oct_05_1435,Experiment,2021.1.4,359.89606200619687,
images\S6_M_S_02.png,images\S6_M_S_02_scrambled.png,6,sad,-20,male,2,,515,off,1,0.5,0.75,0.5,0.768,3,514,1,2,1,0,0,0,0,2,,,,,,0,31,31,31,,,,,,,,,,,,,,,,,,,,,,,,,,,,,,,,,,,,,,,,,,,,,,,,,,,,,,,,,394.6207642999998,395.1206037000002,395.1206037000002,395.8759815000003,395.8759815000003,396.37859000000026,396.37859000000026,397.14776299999994,397.14776299999994,None,num_6,0.3316203999993377,397.14776299999994,None,sad,1,Sad,397.5060633000003,None,None,397.5060633000003,None,,,,,,,,,,,,,,,,,,,,,,,,,,,,,,,,,,,,,,,,,,,,,,,,,,,,,17,001,0,22,400,400,2022_Oct_05_1435,Experiment,2021.1.4,359.89606200619687,
images\S3_F_S_02.png,images\S3_F_S_02_scrambled.png,3,sad,-20,female,2,,197,on,2,0.5,0.75,0.5,0.913,3,196,1,1,2,2,2,32,128,162,,,,,,0,32,32,32,,,,,,,,,,,,,,,,,,,,,,,,,,,,,,,,,,,,,,,,,,,,,,,,,,,,,,,,,397.59485589999986,398.0974951999997,398.0974951999997,398.85004240000035,398.85004240000035,399.35553119999986,399.35553119999986,400.27471270000024,400.27471270000024,None,num_6,0.5648775999998179,400.27471270000024,None,sad,1,Sad,400.8661249000006,None,None,400.8661249000006,None,,,,,,,,,,,,,,,,,,,,,,,,,,,,,,,,,,,,,,,,,,,,,,,,,,,,,17,001,0,22,400,400,2022_Oct_05_1435,Experiment,2021.1.4,359.89606200619687,
images\S6_M_H_01.png,images\S6_M_H_01_scrambled.png,6,happy,10,male,4,,331,on,2,0.5,0.75,0.5,0.791,3,330,2,1,1,2,2,32,128,164,,,,,,0,33,33,33,,,,,,,,,,,,,,,,,,,,,,,,,,,,,,,,,,,,,,,,,,,,,,,,,,,,,,,,,400.91883659999985,401.4214969000004,401.4214969000004,402.1768149999998,402.1768149999998,402.6822092000002,402.6822092000002,403.47360430000026,403.47360430000026,None,num_6,0.4301057000002402,403.47360430000026,None,sad,1,Happy,403.9097234000001,None,None,403.9097234000001,None,,,,,,,,,,,,,,,,,,,,,,,,,,,,,,,,,,,,,,,,,,,,,,,,,,,,,17,001,0,22,400,400,2022_Oct_05_1435,Experiment,2021.1.4,359.89606200619687,
images\S6_M_H_01.png,images\S6_M_H_01_scrambled.png,6,happy,10,male,4,,151,off,1,0.5,0.75,0.5,0.775,3,150,1,2,2,0,0,0,0,4,,,,,,0,34,34,34,,,,,,,,,,,,,,,,,,,,,,,,,,,,,,,,,,,,,,,,,,,,,,,,,,,,,,,,,403.9595710000003,404.45941550000043,404.45941550000043,405.21196469999995,405.21196469999995,405.7147157999998,405.7147157999998,406.49209710000014,406.49209710000014,None,num_4,0.45957889999954205,406.49209710000014,None,happy,1,Happy,406.9670104000006,None,None,406.9670104000006,None,,,,,,,,,,,,,,,,,,,,,,,,,,,,,,,,,,,,,,,,,,,,,,,,,,,,,17,001,0,22,400,400,2022_Oct_05_1435,Experiment,2021.1.4,359.89606200619687,
images\S8_M_S_02.png,images\S8_M_S_02_scrambled.png,8,sad,-20,male,2,,407,off,1,0.5,0.75,0.5,0.838,3,406,2,1,1,0,0,0,0,2,,,,,,0,35,35,35,,,,,,,,,,,,,,,,,,,,,,,,,,,,,,,,,,,,,,,,,,,,,,,,,,,,,,,,,407.01419129999977,407.5168437000002,407.5168437000002,408.27216060000046,408.27216060000046,408.7748922999999,408.7748922999999,409.61620120000043,409.61620120000043,None,num_6,0.35925399999996444,409.61620120000043,None,sad,1,Sad,409.98830270000053,None,None,409.98830270000053,None,,,,,,,,,,,,,,,,,,,,,,,,,,,,,,,,,,,,,,,,,,,,,,,,,,,,,17,001,0,22,400,400,2022_Oct_05_1435,Experiment,2021.1.4,359.89606200619687,
images\S6_M_H_01.png,images\S6_M_H_01_scrambled.png,6,happy,10,male,4,,271,off,1,0.5,0.75,0.5,0.947,3,270,3,1,1,0,0,0,0,4,,,,,,0,36,36,36,,,,,,,,,,,,,,,,,,,,,,,,,,,,,,,,,,,,,,,,,,,,,,,,,,,,,,,,,410.03826730000037,410.5409393,410.5409393,411.29625899999974,411.29625899999974,411.7988671000003,411.7988671000003,412.75135279999995,412.75135279999995,None,num_6,0.5520225999998729,412.75135279999995,None,sad,1,Happy,413.3150599999999,None,None,413.3150599999999,None,,,,,,,,,,,,,,,,,,,,,,,,,,,,,,,,,,,,,,,,,,,,,,,,,,,,,17,001,0,22,400,400,2022_Oct_05_1435,Experiment,2021.1.4,359.89606200619687,
images\S7_F_S_01.png,images\S7_F_S_01_scrambled.png,7,sad,-10,female,3,,160,off,1,0.5,0.75,0.5,0.81,3,159,4,1,1,0,0,0,0,3,,,,,,0,37,37,37,,,,,,,,,,,,,,,,,,,,,,,,,,,,,,,,,,,,,,,,,,,,,,,,,,,,,,,,,413.3622535000004,413.8649989000005,413.8649989000005,414.6174381000001,414.6174381000001,415.1201864000004,415.1201864000004,415.9364886000003,415.9364886000003,None,num_4,0.47884370000065246,415.9364886000003,None,happy,1,Sad,416.42798564999975,None,None,416.42798564999975,None,,,,,,,,,,,,,,,,,,,,,,,,,,,,,,,,,,,,,,,,,,,,,,,,,,,,,17,001,0,22,400,400,2022_Oct_05_1435,Experiment,2021.1.4,359.89606200619687,
images\S4_M_S_01.png,images\S4_M_S_01_scrambled.png,4,sad,-10,male,3,,322,on,2,0.5,0.75,0.5,0.862,3,321,1,1,2,2,2,32,128,163,,,,,,0,38,38,38,,,,,,,,,,,,,,,,,,,,,,,,,,,,,,,,,,,,,,,,,,,,,,,,,,,,,,,,,416.54183490000014,417.04169290000027,417.04169290000027,417.79701250000016,417.79701250000016,418.2996218999997,418.2996218999997,419.1660356000002,419.1660356000002,None,num_6,0.4573483000003762,419.1660356000002,None,sad,1,Sad,419.6492618000002,None,None,419.6492618000002,None,,,,,,,,,,,,,,,,,,,,,,,,,,,,,,,,,,,,,,,,,,,,,,,,,,,,,17,001,0,22,400,400,2022_Oct_05_1435,Experiment,2021.1.4,359.89606200619687,
images\S1_F_H_02.png,images\S1_F_H_02_scrambled.png,1,happy,20,female,5,,62,on,2,0.5,0.75,0.5,0.788,3,61,2,1,1,2,2,32,128,165,,,,,,0,39,39,39,,,,,,,,,,,,,,,,,,,,,,,,,,,,,,,,,,,,,,,,,,,,,,,,,,,,,,,,,419.76030360000004,420.26574020000044,420.26574020000044,421.01825290000033,421.01825290000033,421.52090659999976,421.52090659999976,422.3122979,422.3122979,None,num_4,0.5431810999998561,422.3122979,None,happy,1,Happy,422.87882725000054,None,None,422.87882725000054,None,,,,,,,,,,,,,,,,,,,,,,,,,,,,,,,,,,,,,,,,,,,,,,,,,,,,,17,001,0,22,400,400,2022_Oct_05_1435,Experiment,2021.1.4,359.89606200619687,
images\S6_M_S_02.png,images\S6_M_S_02_scrambled.png,6,sad,-20,male,2,,155,off,1,0.5,0.75,0.5,0.773,3,154,1,1,1,0,0,0,0,2,,,,,,0,40,40,40,,,,,,,,,,,,,,,,,,,,,,,,,,,,,,,,,,,,,,,,,,,,,,,,,,,,,,,,,422.9315428,423.4341685999998,423.4341685999998,424.1867452000006,424.1867452000006,424.69214400000055,424.69214400000055,425.46690639999997,425.46690639999997,None,num_6,0.5730595999993966,425.46690639999997,None,sad,1,Sad,426.0528008000001,None,None,426.0528008000001,None,,,,,,,,,,,,,,,,,,,,,,,,,,,,,,,,,,,,,,,,,,,,,,,,,,,,,17,001,0,22,400,400,2022_Oct_05_1435,Experiment,2021.1.4,359.89606200619687,
images\S6_M_S_03.png,images\S6_M_S_03_scrambled.png,6,sad,-30,male,1,,156,off,1,0.5,0.75,0.5,0.924,3,155,2,2,1,0,0,0,0,1,,,,,,0,41,41,41,,,,,,,,,,,,,,,,,,,,,,,,,,,,,,,,,,,,,,,,,,,,,,,,,,,,,,,,,426.16111,426.66374350000024,426.66374350000024,427.41919080000025,427.41919080000025,427.9217215999997,427.9217215999997,428.84917510000014,428.84917510000014,None,num_6,0.5425850999999966,428.84917510000014,None,sad,1,Sad,429.401922,None,None,429.401922,None,,,,,,,,,,,,,,,,,,,,,,,,,,,,,,,,,,,,,,,,,,,,,,,,,,,,,17,001,0,22,400,400,2022_Oct_05_1435,Experiment,2021.1.4,359.89606200619687,
images\S2_M_S_01.png,images\S2_M_S_01_scrambled.png,2,sad,-10,male,3,,370,off,1,0.5,0.75,0.5,0.948,3,369,3,1,1,0,0,0,0,3,,,,,,0,42,42,42,,,,,,,,,,,,,,,,,,,,,,,,,,,,,,,,,,,,,,,,,,,,,,,,,,,,,,,,,429.5100886,430.0127199999997,430.0127199999997,430.76804080000056,430.76804080000056,431.2707068999998,431.2707068999998,432.2204535000001,432.2204535000001,None,num_6,0.4830141000002186,432.2204535000001,None,sad,1,Sad,432.71744800000033,None,None,432.71744800000033,None,,,,,,,,,,,,,,,,,,,,,,,,,,,,,,,,,,,,,,,,,,,,,,,,,,,,,17,001,0,22,400,400,2022_Oct_05_1435,Experiment,2021.1.4,359.89606200619687,
images\S8_M_H_01.png,images\S8_M_H_01_scrambled.png,8,happy,10,male,4,,403,off,1,0.5,0.75,0.5,0.903,3,402,4,1,1,0,0,0,0,4,,,,,,0,43,43,43,,,,,,,,,,,,,,,,,,,,,,,,,,,,,,,,,,,,,,,,,,,,,,,,,,,,,,,,,432.80075399999987,433.3061912000003,433.3061912000003,434.06150119999984,434.06150119999984,434.5642366000002,434.5642366000002,435.4721774999998,435.4721774999998,None,num_4,0.1993555999997625,435.4721774999998,None,happy,1,Happy,435.6944385000006,None,None,435.6944385000006,None,,,,,,,,,,,,,,,,,,,,,,,,,,,,,,,,,,,,,,,,,,,,,,,,,,,,,17,001,0,22,400,400,2022_Oct_05_1435,Experiment,2021.1.4,359.89606200619687,
images\S1_F_S_01.png,images\S1_F_S_01_scrambled.png,1,sad,-10,female,3,,184,on,2,0.5,0.75,0.5,0.826,3,183,1,1,1,2,2,32,128,163,,,,,,0,44,44,44,,,,,,,,,,,,,,,,,,,,,,,,,,,,,,,,,,,,,,,,,,,,,,,,,,,,,,,,,435.7470659999999,436.2524779000005,436.2524779000005,437.00778379999974,437.00778379999974,437.5076321000006,437.5076321000006,438.3407613999998,438.3407613999998,None,num_4,0.45919970000068133,438.3407613999998,None,happy,1,Sad,438.8073290000002,None,None,438.8073290000002,None,,,,,,,,,,,,,,,,,,,,,,,,,,,,,,,,,,,,,,,,,,,,,,,,,,,,,17,001,0,22,400,400,2022_Oct_05_1435,Experiment,2021.1.4,359.89606200619687,
images\S2_M_S_02.png,images\S2_M_S_02_scrambled.png,2,sad,-20,male,2,,191,on,2,0.5,0.75,0.5,0.831,3,190,2,1,1,2,2,32,128,162,,,,,,0,45,45,45,,,,,,,,,,,,,,,,,,,,,,,,,,,,,,,,,,,,,,,,,,,,,,,,,,,,,,,,,438.91840649999995,439.4209381999999,439.4209381999999,440.17354539999997,440.17354539999997,440.6761787000005,440.6761787000005,441.5119788000002,441.5119788000002,None,num_6,0.5755017000001317,441.5119788000002,None,sad,1,Sad,442.10072135000064,None,None,442.10072135000064,None,,,,,,,,,,,,,,,,,,,,,,,,,,,,,,,,,,,,,,,,,,,,,,,,,,,,,17,001,0,22,400,400,2022_Oct_05_1435,Experiment,2021.1.4,359.89606200619687,
images\blank.jpg,images\blank.jpg,none,none,none,none,0,,608,on,2,0.5,0.75,0.5,0.944,0,607,3,1,1,3,3,48,192,240,,,,,,0,46,46,46,,,,,,,,,,,,,,,,,,,,,,,,,,,,,,,,,,,,,,,,,,,,,,,,,,,,,,,,,442.2203479,442.72272560000056,442.72272560000056,443.4752736999999,443.4752736999999,443.9778759000001,443.9778759000001,444.92218049999974,444.92218049999974,444.92218049999974,None,,444.92218049999974,None,miss,1,,447.92397210000036,None,None,447.92397210000036,None,,,,,,,,,,,,,,,,,,,,,,,,,,,,,,,,,,,,,,,,,,,,,,,,,,,,,17,001,0,22,400,400,2022_Oct_05_1435,Experiment,2021.1.4,359.89606200619687,
images\S1_F_S_02.png,images\S1_F_S_02_scrambled.png,1,sad,-20,female,2,,365,off,1,0.5,0.75,0.5,0.81,3,364,1,1,1,0,0,0,0,2,,,,,,0,47,47,47,,,,,,,,,,,,,,,,,,,,,,,,,,,,,,,,,,,,,,,,,,,,,,,,,,,,,,,,,448.0824545000005,448.5876788000005,448.5876788000005,449.3373693000003,449.3373693000003,449.8399707999997,449.8399707999997,450.65364190000037,450.65364190000037,None,num_4,0.5218037000004188,450.65364190000037,448.0824545000005,happy,1,Sad,451.18399560000034,None,None,451.18399560000034,None,,,,,,,,,,,,,,,,,,,,,,,,,,,,,,,,,,,,,,,,,,,,,,,,,,,,,17,001,0,22,400,400,2022_Oct_05_1435,Experiment,2021.1.4,359.89606200619687,
images\S7_F_S_02.png,images\S7_F_S_02_scrambled.png,7,sad,-20,female,2,,281,off,1,0.5,0.75,0.5,0.797,3,280,2,1,2,0,0,0,0,2,,,,,,0,48,48,48,,,,,,,,,,,,,,,,,,,,,,,,,,,,,,,,,,,,,,,,,,,,,,,,,,,,,,,,,451.2700939000006,451.76993820000007,451.76993820000007,452.5197189999999,452.5197189999999,453.02247890000035,453.02247890000035,453.8249526999998,453.8249526999998,None,num_6,0.2784097000003385,453.8249526999998,None,sad,1,Sad,454.1137104999998,None,None,454.1137104999998,None,,,,,,,,,,,,,,,,,,,,,,,,,,,,,,,,,,,,,,,,,,,,,,,,,,,,,17,001,0,22,400,400,2022_Oct_05_1435,Experiment,2021.1.4,359.89606200619687,
images\S10_M_H_03.png,images\S10_M_H_03_scrambled.png,10,happy,30,male,6,,597,on,2,0.5,0.75,0.5,0.855,3,596,1,1,1,2,2,32,128,166,,,,,,0,49,49,49,,,,,,,,,,,,,,,,,,,,,,,,,,,,,,,,,,,,,,,,,,,,,,,,,,,,,,,,,454.1997521000003,454.7024970000002,454.7024970000002,455.4521641000001,455.4521641000001,455.9576317000001,455.9576317000001,456.8184360000005,456.8184360000005,None,num_4,0.30899180000051274,456.8184360000005,None,happy,1,Happy,457.157287,None,None,457.157287,None,,,,,,,,,,,,,,,,,,,,,,,,,,,,,,,,,,,,,,,,,,,,,,,,,,,,,17,001,0,22,400,400,2022_Oct_05_1435,Experiment,2021.1.4,359.89606200619687,
images\S10_M_S_03.png,images\S10_M_S_03_scrambled.png,10,sad,-30,male,1,,480,on,2,0.5,0.75,0.5,0.843,3,479,2,2,1,2,2,32,128,161,,,,,,0,50,50,50,,,,,,,,,,,,,,,,,,,,,,,,,,,,,,,,,,,,,,,,,,,,,,,,,,,,,,,,,457.2682485000005,457.76811,457.76811,458.5178753,458.5178753,459.02050899999995,459.02050899999995,459.8675423000004,459.8675423000004,None,num_6,0.7720233000000007,459.8675423000004,None,sad,1,Sad,460.65336600000046,None,None,460.65336600000046,None,,,,,,,,,,,,,,,,,,,,,,,,,,,,,,,,,,,,,,,,,,,,,,,,,,,,,17,001,0,22,400,400,2022_Oct_05_1435,Experiment,2021.1.4,359.89606200619687,
images\S8_M_S_01.png,images\S8_M_S_01_scrambled.png,8,sad,-10,male,3,,406,off,1,0.5,0.75,0.5,0.848,3,405,1,1,1,0,0,0,0,3,,,,,,0,51,51,51,,,,,,,,,,,,,,,,,,,,,,,,,,,,,,,,,,,,,,,,,,,,,,,,,,,,,,,,,460.70332150000013,461.20880099999977,461.20880099999977,461.95848560000013,461.95848560000013,462.4611106000002,462.4611106000002,463.31370010000046,463.31370010000046,None,num_6,0.5577008000000205,463.31370010000046,None,sad,1,Sad,463.88568060000034,None,None,463.88568060000034,None,,,,,,,,,,,,,,,,,,,,,,,,,,,,,,,,,,,,,,,,,,,,,,,,,,,,,17,001,0,22,400,400,2022_Oct_05_1435,Experiment,2021.1.4,359.89606200619687,
images\S1_F_H_01.png,images\S1_F_H_01_scrambled.png,1,happy,10,female,4,,481,off,1,0.5,0.75,0.5,0.855,3,480,2,1,1,0,0,0,0,4,,,,,,0,52,52,52,,,,,,,,,,,,,,,,,,,,,,,,,,,,,,,,,,,,,,,,,,,,,,,,,,,,,,,,,463.9689887000004,464.4744257000002,464.4744257000002,465.2297401000005,465.2297401000005,465.7351421000003,465.7351421000003,466.5931773000002,466.5931773000002,None,num_4,0.3662421999997605,466.5931773000002,None,happy,1,Happy,466.9735993000004,None,None,466.9735993000004,None,,,,,,,,,,,,,,,,,,,,,,,,,,,,,,,,,,,,,,,,,,,,,,,,,,,,,17,001,0,22,400,400,2022_Oct_05_1435,Experiment,2021.1.4,359.89606200619687,
images\S8_M_H_03.png,images\S8_M_H_03_scrambled.png,8,happy,30,male,6,,525,off,1,0.5,0.75,0.5,0.786,3,524,3,1,1,0,0,0,0,6,,,,,,0,53,53,53,,,,,,,,,,,,,,,,,,,,,,,,,,,,,,,,,,,,,,,,,,,,,,,,,,,,,,,,,467.0847015999998,467.5901291,467.5901291,468.34267050000017,468.34267050000017,468.8452948000004,468.8452948000004,469.6339235000005,469.6339235000005,None,num_4,0.38947230000030686,469.6339235000005,None,happy,1,Happy,470.0365652999999,None,None,470.0365652999999,None,,,,,,,,,,,,,,,,,,,,,,,,,,,,,,,,,,,,,,,,,,,,,,,,,,,,,17,001,0,22,400,400,2022_Oct_05_1435,Experiment,2021.1.4,359.89606200619687,
images\S6_M_S_01.png,images\S6_M_S_01_scrambled.png,6,sad,-10,male,3,,454,on,2,0.5,0.75,0.5,0.874,3,453,1,1,1,2,2,32,128,163,,,,,,0,54,54,54,,,,,,,,,,,,,,,,,,,,,,,,,,,,,,,,,,,,,,,,,,,,,,,,,,,,,,,,,470.12266499999987,470.6252985000001,470.6252985000001,471.3806212999998,471.3806212999998,471.8833241000002,471.8833241000002,472.7636008999998,472.7636008999998,None,num_6,0.6519645000007586,472.7636008999998,None,sad,1,Sad,473.42997079999986,None,None,473.42997079999986,None,,,,,,,,,,,,,,,,,,,,,,,,,,,,,,,,,,,,,,,,,,,,,,,,,,,,,17,001,0,22,400,400,2022_Oct_05_1435,Experiment,2021.1.4,359.89606200619687,
images\S2_M_H_02.png,images\S2_M_H_02_scrambled.png,2,happy,20,male,5,,548,on,2,0.5,0.75,0.5,0.785,3,547,2,1,1,2,2,32,128,165,,,,,,0,55,55,55,,,,,,,,,,,,,,,,,,,,,,,,,,,,,,,,,,,,,,,,,,,,,,,,,,,,,,,,,473.5133013000004,474.01592979999987,474.01592979999987,474.7684698000003,474.7684698000003,475.27108560000033,475.27108560000033,476.0597538000002,476.0597538000002,None,num_4,0.3397575999997571,476.0597538000002,None,happy,1,Happy,476.41240480000033,None,None,476.41240480000033,None,,,,,,,,,,,,,,,,,,,,,,,,,,,,,,,,,,,,,,,,,,,,,,,,,,,,,17,001,0,22,400,400,2022_Oct_05_1435,Experiment,2021.1.4,359.89606200619687,
images\S4_M_H_03.png,images\S4_M_H_03_scrambled.png,4,happy,30,male,6,,21,off,1,0.5,0.75,0.5,0.832,3,20,1,1,1,0,0,0,0,6,,,,,,0,56,56,56,,,,,,,,,,,,,,,,,,,,,,,,,,,,,,,,,,,,,,,,,,,,,,,,,,,,,,,,,476.46787510000013,476.9705786000004,476.9705786000004,477.7231274000005,477.7231274000005,478.22859979999976,478.22859979999976,479.0671669000003,479.0671669000003,None,num_4,0.2204677999998239,479.0671669000003,None,happy,1,Happy,479.3143377000006,None,None,479.3143377000006,None,,,,,,,,,,,,,,,,,,,,,,,,,,,,,,,,,,,,,,,,,,,,,,,,,,,,,17,001,0,22,400,400,2022_Oct_05_1435,Experiment,2021.1.4,359.89606200619687,
images\blank.jpg,images\blank.jpg,none,none,none,none,0,,622,on,2,0.5,0.75,0.5,0.763,0,621,1,1,1,3,3,48,192,240,,,,,,0,57,57,57,,,,,,,,,,,,,,,,,,,,,,,,,,,,,,,,,,,,,,,,,,,,,,,,,,,,,,,,,479.41445290000047,479.9196548,479.9196548,480.66943059999994,480.66943059999994,481.1720938999997,481.1720938999997,481.93856030000006,481.93856030000006,481.93856030000006,None,,481.93856030000006,None,miss,1,,484.94041319999997,None,None,484.94041319999997,None,,,,,,,,,,,,,,,,,,,,,,,,,,,,,,,,,,,,,,,,,,,,,,,,,,,,,17,001,0,22,400,400,2022_Oct_05_1435,Experiment,2021.1.4,359.89606200619687,
images\S5_F_H_01.png,images\S5_F_H_01_scrambled.png,5,happy,10,female,4,,445,on,2,0.5,0.75,0.5,0.815,3,444,2,1,1,2,2,32,128,164,,,,,,0,58,58,58,,,,,,,,,,,,,,,,,,,,,,,,,,,,,,,,,,,,,,,,,,,,,,,,,,,,,,,,,485.08761270000014,485.59014819999993,485.59014819999993,486.3426948000006,486.3426948000006,486.8481198999998,486.8481198999998,487.6672851000003,487.6672851000003,None,num_4,0.4281393000001117,487.6672851000003,485.08761270000014,happy,1,Happy,488.10882820000006,None,None,488.10882820000006,None,,,,,,,,,,,,,,,,,,,,,,,,,,,,,,,,,,,,,,,,,,,,,,,,,,,,,17,001,0,22,400,400,2022_Oct_05_1435,Experiment,2021.1.4,359.89606200619687,
images\S2_M_S_01.png,images\S2_M_S_01_scrambled.png,2,sad,-10,male,3,,430,on,2,0.5,0.75,0.5,0.928,3,429,3,1,1,2,2,32,128,163,,,,,,0,59,59,59,,,,,,,,,,,,,,,,,,,,,,,,,,,,,,,,,,,,,,,,,,,,,,,,,,,,,,,,,488.1560317000003,488.6586674,488.6586674,489.4139851,489.4139851,489.9138361000005,489.9138361000005,490.84409870000036,490.84409870000036,None,num_6,0.3314049000000523,490.84409870000036,None,sad,1,Sad,491.18569060000027,None,None,491.18569060000027,None,,,,,,,,,,,,,,,,,,,,,,,,,,,,,,,,,,,,,,,,,,,,,,,,,,,,,17,001,0,22,400,400,2022_Oct_05_1435,Experiment,2021.1.4,359.89606200619687,
images\S10_M_H_03.png,images\S10_M_H_03_scrambled.png,10,happy,30,male,6,,117,on,2,0.5,0.75,0.5,0.792,3,116,4,1,1,2,2,32,128,166,,,,,,0,60,60,60,,,,,,,,,,,,,,,,,,,,,,,,,,,,,,,,,,,,,,,,,,,,,,,,,,,,,,,,,491.2328658000006,491.73828740000044,491.73828740000044,492.4909396000003,492.4909396000003,492.99065530000007,492.99065530000007,493.7876627000005,493.7876627000005,None,num_4,0.2518309000006411,493.7876627000005,None,happy,1,Happy,494.0542440999998,None,None,494.0542440999998,None,,,,,,,,,,,,,,,,,,,,,,,,,,,,,,,,,,,,,,,,,,,,,,,,,,,,,17,001,0,22,400,400,2022_Oct_05_1435,Experiment,2021.1.4,359.89606200619687,
images\S8_M_H_01.png,images\S8_M_H_01_scrambled.png,8,happy,10,male,4,,283,off,1,0.5,0.75,0.5,0.885,3,282,1,1,1,0,0,0,0,4,,,,,,0,61,61,61,,,,,,,,,,,,,,,,,,,,,,,,,,,,,,,,,,,,,,,,,,,,,,,,,,,,,,,,,494.10143810000045,494.6068758000001,494.6068758000001,495.35661380000056,495.35661380000056,495.8620441000003,495.8620441000003,496.75341320000007,496.75341320000007,None,num_6,0.3985075999999026,496.75341320000007,None,sad,1,Happy,497.1643627499998,None,None,497.1643627499998,None,,,,,,,,,,,,,,,,,,,,,,,,,,,,,,,,,,,,,,,,,,,,,,,,,,,,,17,001,0,22,400,400,2022_Oct_05_1435,Experiment,2021.1.4,359.89606200619687,
images\S8_M_H_03.png,images\S8_M_H_03_scrambled.png,8,happy,30,male,6,,585,on,2,0.5,0.75,0.5,0.869,3,584,1,2,1,2,2,32,128,166,,,,,,0,62,62,62,,,,,,,,,,,,,,,,,,,,,,,,,,,,,,,,,,,,,,,,,,,,,,,,,,,,,,,,,497.2226965,497.7281211999998,497.7281211999998,498.4807675000002,498.4807675000002,498.9804586999999,498.9804586999999,499.85248630000024,499.85248630000024,None,num_4,0.3232422000000952,499.85248630000024,None,happy,1,Happy,500.20792470000015,None,None,500.20792470000015,None,,,,,,,,,,,,,,,,,,,,,,,,,,,,,,,,,,,,,,,,,,,,,,,,,,,,,17,001,0,22,400,400,2022_Oct_05_1435,Experiment,2021.1.4,359.89606200619687,
images\S5_F_H_03.png,images\S5_F_H_03_scrambled.png,5,happy,30,female,6,,507,off,1,0.5,0.75,0.5,0.911,3,506,1,1,2,0,0,0,0,6,,,,,,0,63,63,63,,,,,,,,,,,,,,,,,,,,,,,,,,,,,,,,,,,,,,,,,,,,,,,,,,,,,,,,,500.3189696999998,500.8216044999999,500.8216044999999,501.5741579000005,501.5741579000005,502.07399950000035,502.07399950000035,502.9876231999997,502.9876231999997,None,num_4,0.5638017999999647,502.9876231999997,None,happy,1,Happy,503.5624631999999,None,None,503.5624631999999,None,,,,,,,,,,,,,,,,,,,,,,,,,,,,,,,,,,,,,,,,,,,,,,,,,,,,,17,001,0,22,400,400,2022_Oct_05_1435,Experiment,2021.1.4,359.89606200619687,
images\S6_M_S_01.png,images\S6_M_S_01_scrambled.png,6,sad,-10,male,3,,94,on,2,0.5,0.75,0.5,0.947,3,93,1,1,1,2,2,32,128,163,,,,,,0,64,64,64,,,,,,,,,,,,,,,,,,,,,,,,,,,,,,,,,,,,,,,,,,,,,,,,,,,,,,,,,503.6124039000006,504.1178011000002,504.1178011000002,504.8703937,504.8703937,505.3729798000004,505.3729798000004,506.3226900999998,506.3226900999998,None,num_6,0.2927167999996527,506.3226900999998,None,sad,1,Sad,506.6476510000002,None,None,506.6476510000002,None,,,,,,,,,,,,,,,,,,,,,,,,,,,,,,,,,,,,,,,,,,,,,,,,,,,,,17,001,0,22,400,400,2022_Oct_05_1435,Experiment,2021.1.4,359.89606200619687,
images\blank.jpg,images\blank.jpg,none,none,none,none,0,,633,on,2,0.5,0.75,0.5,0.918,0,632,2,1,1,3,3,48,192,240,,,,,,0,65,65,65,,,,,,,,,,,,,,,,,,,,,,,,,,,,,,,,,,,,,,,,,,,,,,,,,,,,,,,,,506.74781950000033,507.2529790999997,507.2529790999997,508.0083031000004,508.0083031000004,508.51106720000007,508.51106720000007,509.4301225999998,509.4301225999998,509.4301225999998,None,,509.4301225999998,None,miss,1,,512.4319506500005,None,None,512.4319506500005,None,,,,,,,,,,,,,,,,,,,,,,,,,,,,,,,,,,,,,,,,,,,,,,,,,,,,,17,001,0,22,400,400,2022_Oct_05_1435,Experiment,2021.1.4,359.89606200619687,
images\S6_M_S_01.png,images\S6_M_S_01_scrambled.png,6,sad,-10,male,3,,34,off,1,0.5,0.75,0.5,0.812,3,33,1,1,1,0,0,0,0,3,,,,,,0,66,66,66,,,,,,,,,,,,,,,,,,,,,,,,,,,,,,,,,,,,,,,,,,,,,,,,,,,,,,,,,512.5460318000005,513.0484101000002,513.0484101000002,513.8037633000004,513.8037633000004,514.3091608000004,514.3091608000004,515.1227700999998,515.1227700999998,None,num_6,0.30065319999994244,515.1227700999998,512.5460318000005,sad,1,Sad,515.4338367,None,None,515.4338367,None,,,,,,,,,,,,,,,,,,,,,,,,,,,,,,,,,,,,,,,,,,,,,,,,,,,,,17,001,0,22,400,400,2022_Oct_05_1435,Experiment,2021.1.4,359.89606200619687,
images\S4_M_H_03.png,images\S4_M_H_03_scrambled.png,4,happy,30,male,6,,441,on,2,0.5,0.75,0.5,0.835,3,440,1,1,1,2,2,32,128,166,,,,,,0,67,67,67,,,,,,,,,,,,,,,,,,,,,,,,,,,,,,,,,,,,,,,,,,,,,,,,,,,,,,,,,515.4810371000003,515.9836572000004,515.9836572000004,516.7389762000003,516.7389762000003,517.2387856000005,517.2387856000005,518.0802831000001,518.0802831000001,None,num_6,0.38338260000000446,518.0802831000001,None,sad,1,Happy,518.4718169500002,None,None,518.4718169500002,None,,,,,,,,,,,,,,,,,,,,,,,,,,,,,,,,,,,,,,,,,,,,,,,,,,,,,17,001,0,22,400,400,2022_Oct_05_1435,Experiment,2021.1.4,359.89606200619687,
images\S3_F_H_01.png,images\S3_F_H_01_scrambled.png,3,happy,10,female,4,,133,off,1,0.5,0.75,0.5,0.887,3,132,1,1,1,0,0,0,0,4,,,,,,0,68,68,68,,,,,,,,,,,,,,,,,,,,,,,,,,,,,,,,,,,,,,,,,,,,,,,,,,,,,,,,,518.5328416000002,519.0382916999997,519.0382916999997,519.7880187000001,519.7880187000001,520.2934389000002,520.2934389000002,521.1876715999997,521.1876715999997,None,num_4,0.5318674000000101,521.1876715999997,None,happy,1,Happy,521.7346016000001,None,None,521.7346016000001,None,,,,,,,,,,,,,,,,,,,,,,,,,,,,,,,,,,,,,,,,,,,,,,,,,,,,,17,001,0,22,400,400,2022_Oct_05_1435,Experiment,2021.1.4,359.89606200619687,
images\S3_F_H_01.png,images\S3_F_H_01_scrambled.png,3,happy,10,female,4,,313,on,2,0.5,0.75,0.5,0.757,3,312,1,2,2,2,2,32,128,164,,,,,,0,69,69,69,,,,,,,,,,,,,,,,,,,,,,,,,,,,,,,,,,,,,,,,,,,,,,,,,,,,,,,,,521.7818449000006,522.2817194999998,522.2817194999998,523.0314981000001,523.0314981000001,523.5313348,523.5313348,524.2949853,524.2949853,None,num_4,0.44852410000021337,524.2949853,None,happy,1,Happy,524.7587013000002,None,None,524.7587013000002,None,,,,,,,,,,,,,,,,,,,,,,,,,,,,,,,,,,,,,,,,,,,,,,,,,,,,,17,001,0,22,400,400,2022_Oct_05_1435,Experiment,2021.1.4,359.89606200619687,
images\S7_F_H_02.png,images\S7_F_H_02_scrambled.png,7,happy,20,female,5,,338,on,2,0.5,0.75,0.5,0.816,3,337,2,1,1,2,2,32,128,165,,,,,,0,70,70,70,,,,,,,,,,,,,,,,,,,,,,,,,,,,,,,,,,,,,,,,,,,,,,,,,,,,,,,,,524.8447992000001,525.3446426,525.3446426,526.0999683,526.0999683,526.6026812999999,526.6026812999999,527.4219233000003,527.4219233000003,None,num_4,0.3298326000003726,527.4219233000003,None,happy,1,Happy,527.7634173000006,None,None,527.7634173000006,None,,,,,,,,,,,,,,,,,,,,,,,,,,,,,,,,,,,,,,,,,,,,,,,,,,,,,17,001,0,22,400,400,2022_Oct_05_1435,Experiment,2021.1.4,359.89606200619687,
images\S4_M_H_02.png,images\S4_M_H_02_scrambled.png,4,happy,20,male,5,,80,on,2,0.5,0.75,0.5,0.756,3,79,3,1,2,2,2,32,128,165,,,,,,0,71,71,71,,,,,,,,,,,,,,,,,,,,,,,,,,,,,,,,,,,,,,,,,,,,,,,,,,,,,,,,,527.8522121000005,528.3576843999999,528.3576843999999,529.1129883000003,529.1129883000003,529.6156099999998,529.6156099999998,530.3736976,530.3736976,None,num_6,0.2817549000001236,530.3736976,None,sad,1,Happy,530.6624585999998,None,None,530.6624585999998,None,,,,,,,,,,,,,,,,,,,,,,,,,,,,,,,,,,,,,,,,,,,,,,,,,,,,,17,001,0,22,400,400,2022_Oct_05_1435,Experiment,2021.1.4,359.89606200619687,
images\S10_M_S_03.png,images\S10_M_S_03_scrambled.png,10,sad,-30,male,1,,360,on,2,0.5,0.75,0.5,0.907,3,359,4,1,1,2,2,32,128,161,,,,,,0,72,72,72,,,,,,,,,,,,,,,,,,,,,,,,,,,,,,,,,,,,,,,,,,,,,,,,,,,,,,,,,530.7096634999998,531.2123866000002,531.2123866000002,531.9620585000002,531.9620585000002,532.4619060000005,532.4619060000005,533.3727945999999,533.3727945999999,None,num_6,0.4670395000002827,533.3727945999999,None,sad,1,Sad,533.8615175499999,None,None,533.8615175499999,None,,,,,,,,,,,,,,,,,,,,,,,,,,,,,,,,,,,,,,,,,,,,,,,,,,,,,17,001,0,22,400,400,2022_Oct_05_1435,Experiment,2021.1.4,359.89606200619687,
images\S7_F_S_02.png,images\S7_F_S_02_scrambled.png,7,sad,-20,female,2,,221,on,2,0.5,0.75,0.5,0.787,3,220,5,1,1,2,2,32,128,162,,,,,,0,73,73,73,,,,,,,,,,,,,,,,,,,,,,,,,,,,,,,,,,,,,,,,,,,,,,,,,,,,,,,,,533.9142454000003,534.4170011000006,534.4170011000006,535.1666359000001,535.1666359000001,535.6692921000003,535.6692921000003,536.4635043999997,536.4635043999997,None,num_6,0.35987870000008115,536.4635043999997,None,sad,1,Sad,536.8383338000003,None,None,536.8383338000003,None,,,,,,,,,,,,,,,,,,,,,,,,,,,,,,,,,,,,,,,,,,,,,,,,,,,,,17,001,0,22,400,400,2022_Oct_05_1435,Experiment,2021.1.4,359.89606200619687,
images\S9_F_H_03.png,images\S9_F_H_03_scrambled.png,9,happy,30,female,6,,291,off,1,0.5,0.75,0.5,0.901,3,290,1,1,1,0,0,0,0,6,,,,,,0,74,74,74,,,,,,,,,,,,,,,,,,,,,,,,,,,,,,,,,,,,,,,,,,,,,,,,,,,,,,,,,536.9022224,537.4020628999997,537.4020628999997,538.1546075000006,538.1546075000006,538.6572538,538.6572538,539.5625306000002,539.5625306000002,None,num_4,0.34943769999972574,539.5625306000002,None,happy,1,Happy,539.9320326500001,None,None,539.9320326500001,None,,,,,,,,,,,,,,,,,,,,,,,,,,,,,,,,,,,,,,,,,,,,,,,,,,,,,17,001,0,22,400,400,2022_Oct_05_1435,Experiment,2021.1.4,359.89606200619687,
images\S9_F_S_01.png,images\S9_F_S_01_scrambled.png,9,sad,-10,female,3,,352,on,2,0.5,0.75,0.5,0.83,3,351,1,2,1,2,2,32,128,163,,,,,,0,75,75,75,,,,,,,,,,,,,,,,,,,,,,,,,,,,,,,,,,,,,,,,,,,,,,,,,,,,,,,,,540.040148,540.5428932000004,540.5428932000004,541.2981394999997,541.2981394999997,541.8035222999997,541.8035222999997,542.6338031000005,542.6338031000005,None,num_6,0.8939180999996097,542.6338031000005,None,sad,1,Sad,543.5418796000004,None,None,543.5418796000004,None,,,,,,,,,,,,,,,,,,,,,,,,,,,,,,,,,,,,,,,,,,,,,,,,,,,,,17,001,0,22,400,400,2022_Oct_05_1435,Experiment,2021.1.4,359.89606200619687,
images\S2_M_H_01.png,images\S2_M_H_01_scrambled.png,2,happy,10,male,4,,487,off,1,0.5,0.75,0.5,0.926,3,486,1,1,1,0,0,0,0,4,,,,,,0,76,76,76,,,,,,,,,,,,,,,,,,,,,,,,,,,,,,,,,,,,,,,,,,,,,,,,,,,,,,,,,543.5890619000002,544.0918221000002,544.0918221000002,544.8414211999998,544.8414211999998,545.3413289,545.3413289,546.2743841000001,546.2743841000001,None,num_6,0.6532042999997429,546.2743841000001,None,sad,1,Happy,546.9352684000005,None,None,546.9352684000005,None,,,,,,,,,,,,,,,,,,,,,,,,,,,,,,,,,,,,,,,,,,,,,,,,,,,,,17,001,0,22,400,400,2022_Oct_05_1435,Experiment,2021.1.4,359.89606200619687,
images\S7_F_H_01.png,images\S7_F_H_01_scrambled.png,7,happy,10,female,4,,217,on,2,0.5,0.75,0.5,0.829,3,216,1,1,2,2,2,32,128,164,,,,,,0,77,77,77,,,,,,,,,,,,,,,,,,,,,,,,,,,,,,,,,,,,,,,,,,,,,,,,,,,,,,,,,547.0186048000005,547.5212185999999,547.5212185999999,548.2709949999999,548.2709949999999,548.7736265000003,548.7736265000003,549.6068014000002,549.6068014000002,None,num_6,1.120892900000399,549.6068014000002,None,sad,1,Happy,550.7368881000002,None,None,550.7368881000002,None,,,,,,,,,,,,,,,,,,,,,,,,,,,,,,,,,,,,,,,,,,,,,,,,,,,,,17,001,0,22,400,400,2022_Oct_05_1435,Experiment,2021.1.4,359.89606200619687,
images\S6_M_H_02.png,images\S6_M_H_02_scrambled.png,6,happy,20,male,5,,92,on,2,0.5,0.75,0.5,0.808,3,91,2,1,1,2,2,32,128,165,,,,,,0,78,78,78,,,,,,,,,,,,,,,,,,,,,,,,,,,,,,,,,,,,,,,,,,,,,,,,,,,,,,,,,550.7840911000003,551.2895168000005,551.2895168000005,552.0420561000001,552.0420561000001,552.5475702000003,552.5475702000003,553.3583322000004,553.3583322000004,None,num_4,0.4733593999999357,553.3583322000004,None,happy,1,Happy,553.8609488500006,None,None,553.8609488500006,None,,,,,,,,,,,,,,,,,,,,,,,,,,,,,,,,,,,,,,,,,,,,,,,,,,,,,17,001,0,22,400,400,2022_Oct_05_1435,Experiment,2021.1.4,359.89606200619687,
images\S8_M_H_01.png,images\S8_M_H_01_scrambled.png,8,happy,10,male,4,,463,on,2,0.5,0.75,0.5,0.805,3,462,3,1,1,2,2,32,128,164,,,,,,0,79,79,79,,,,,,,,,,,,,,,,,,,,,,,,,,,,,,,,,,,,,,,,,,,,,,,,,,,,,,,,,553.9136784000002,554.4191108000005,554.4191108000005,555.1688473000004,555.1688473000004,555.6742769000002,555.6742769000002,556.4824338999997,556.4824338999997,None,num_6,0.4772644999993645,556.4824338999997,None,sad,1,Happy,556.9682886,None,None,556.9682886,None,,,,,,,,,,,,,,,,,,,,,,,,,,,,,,,,,,,,,,,,,,,,,,,,,,,,,17,001,0,22,400,400,2022_Oct_05_1435,Experiment,2021.1.4,359.89606200619687,
images\S1_F_H_01.png,images\S1_F_H_01_scrambled.png,1,happy,10,female,4,,181,on,2,0.5,0.75,0.5,0.861,3,180,4,1,2,2,2,32,128,164,,,,,,0,80,80,80,,,,,,,,,,,,,,,,,,,,,,,,,,,,,,,,,,,,,,,,,,,,,,,,,,,,,,,,,557.0155172000004,557.5181387000002,557.5181387000002,558.2734849999997,558.2734849999997,558.7760994999999,558.7760994999999,559.6397210000005,559.6397210000005,None,num_4,0.4319228000003932,559.6397210000005,None,happy,1,Happy,560.0867948000005,None,None,560.0867948000005,None,,,,,,,,,,,,,,,,,,,,,,,,,,,,,,,,,,,,,,,,,,,,,,,,,,,,,17,001,0,22,400,400,2022_Oct_05_1435,Experiment,2021.1.4,359.89606200619687,
images\S10_M_S_03.png,images\S10_M_S_03_scrambled.png,10,sad,-30,male,1,,540,off,1,0.5,0.75,0.5,0.867,3,539,1,1,1,0,0,0,0,1,,,,,,0,81,81,81,,,,,,,,,,,,,,,,,,,,,,,,,,,,,,,,,,,,,,,,,,,,,,,,,,,,,,,,,560.1367768,560.6393957,560.6393957,561.3920643000001,561.3920643000001,561.8918234000002,561.8918234000002,562.7637763000002,562.7637763000002,None,num_6,0.25176699999974517,562.7637763000002,None,sad,1,Sad,563.0303352999999,None,None,563.0303352999999,None,,,,,,,,,,,,,,,,,,,,,,,,,,,,,,,,,,,,,,,,,,,,,,,,,,,,,17,001,0,22,400,400,2022_Oct_05_1435,Experiment,2021.1.4,359.89606200619687,
images\S7_F_S_03.png,images\S7_F_S_03_scrambled.png,7,sad,-30,female,1,,222,on,2,0.5,0.75,0.5,0.813,3,221,1,1,2,2,2,32,128,161,,,,,,0,82,82,82,,,,,,,,,,,,,,,,,,,,,,,,,,,,,,,,,,,,,,,,,,,,,,,,,,,,,,,,,563.1136483,563.6190618,563.6190618,564.3717290000004,564.3717290000004,564.8742416000005,564.8742416000005,565.6878776000003,565.6878776000003,None,num_4,0.32785489999969286,565.6878776000003,None,happy,1,Sad,566.0238533000002,None,None,566.0238533000002,None,,,,,,,,,,,,,,,,,,,,,,,,,,,,,,,,,,,,,,,,,,,,,,,,,,,,,17,001,0,22,400,400,2022_Oct_05_1435,Experiment,2021.1.4,359.89606200619687,
images\S5_F_S_02.png,images\S5_F_S_02_scrambled.png,5,sad,-20,female,2,,209,on,2,0.5,0.75,0.5,0.779,3,208,2,1,1,2,2,32,128,162,,,,,,0,83,83,83,,,,,,,,,,,,,,,,,,,,,,,,,,,,,,,,,,,,,,,,,,,,,,,,,,,,,,,,,566.1349394999997,566.6376431999997,566.6376431999997,567.3929321000005,567.3929321000005,567.8983280000002,567.8983280000002,568.6841850999999,568.6841850999999,None,num_6,0.33974639999996725,568.6841850999999,None,sad,1,Sad,569.0453131000004,None,None,569.0453131000004,None,,,,,,,,,,,,,,,,,,,,,,,,,,,,,,,,,,,,,,,,,,,,,,,,,,,,,17,001,0,22,400,400,2022_Oct_05_1435,Experiment,2021.1.4,359.89606200619687,
images\blank.jpg,images\blank.jpg,none,none,none,none,0,,635,on,2,0.5,0.75,0.5,0.766,0,634,3,1,1,3,3,48,192,240,,,,,,0,84,84,84,,,,,,,,,,,,,,,,,,,,,,,,,,,,,,,,,,,,,,,,,,,,,,,,,,,,,,,,,569.1342401000002,569.6367657999999,569.6367657999999,570.3891883000006,570.3891883000006,570.8919479000006,570.8919479000006,571.6638394000001,571.6638394000001,571.6638394000001,None,,571.6638394000001,None,miss,1,,574.6685118000005,None,None,574.6685118000005,None,,,,,,,,,,,,,,,,,,,,,,,,,,,,,,,,,,,,,,,,,,,,,,,,,,,,,17,001,0,22,400,400,2022_Oct_05_1435,Experiment,2021.1.4,359.89606200619687,
images\S1_F_S_01.png,images\S1_F_S_01_scrambled.png,1,sad,-10,female,3,,304,on,2,0.5,0.75,0.5,0.782,3,303,4,1,1,2,2,32,128,163,,,,,,0,85,85,85,,,,,,,,,,,,,,,,,,,,,,,,,,,,,,,,,,,,,,,,,,,,,,,,,,,,,,,,,574.7909371000005,575.2933975000005,575.2933975000005,576.0457905000003,576.0457905000003,576.5485421000003,576.5485421000003,577.3342864000006,577.3342864000006,None,num_4,0.32949720000033267,577.3342864000006,574.7909371000005,happy,1,Sad,577.6730453999999,None,None,577.6730453999999,None,,,,,,,,,,,,,,,,,,,,,,,,,,,,,,,,,,,,,,,,,,,,,,,,,,,,,17,001,0,22,400,400,2022_Oct_05_1435,Experiment,2021.1.4,359.89606200619687,
images\S6_M_H_01.png,images\S6_M_H_01_scrambled.png,6,happy,10,male,4,,31,off,1,0.5,0.75,0.5,0.773,3,30,1,1,1,0,0,0,0,4,,,,,,0,86,86,86,,,,,,,,,,,,,,,,,,,,,,,,,,,,,,,,,,,,,,,,,,,,,,,,,,,,,,,,,577.7230557000003,578.2285935,578.2285935,578.9810292000002,578.9810292000002,579.4837115,579.4837115,580.2585324000001,580.2585324000001,None,num_6,0.21311599999989994,580.2585324000001,None,sad,1,Happy,580.4805721000002,None,None,580.4805721000002,None,,,,,,,,,,,,,,,,,,,,,,,,,,,,,,,,,,,,,,,,,,,,,,,,,,,,,17,001,0,22,400,400,2022_Oct_05_1435,Experiment,2021.1.4,359.89606200619687,
images\S2_M_H_02.png,images\S2_M_H_02_scrambled.png,2,happy,20,male,5,,188,on,2,0.5,0.75,0.5,0.925,3,187,1,1,1,2,2,32,128,165,,,,,,0,87,87,87,,,,,,,,,,,,,,,,,,,,,,,,,,,,,,,,,,,,,,,,,,,,,,,,,,,,,,,,,580.5277561000003,581.0304010999998,581.0304010999998,581.7829228,581.7829228,582.2855785000002,582.2855785000002,583.213205,583.213205,None,num_4,0.8503221999999369,583.213205,None,happy,1,Happy,584.0739365999998,None,None,584.0739365999998,None,,,,,,,,,,,,,,,,,,,,,,,,,,,,,,,,,,,,,,,,,,,,,,,,,,,,,17,001,0,22,400,400,2022_Oct_05_1435,Experiment,2021.1.4,359.89606200619687,
images\S2_M_S_03.png,images\S2_M_S_03_scrambled.png,2,sad,-30,male,1,,72,on,2,0.5,0.75,0.5,0.796,3,71,2,2,1,2,2,32,128,161,,,,,,0,88,88,88,,,,,,,,,,,,,,,,,,,,,,,,,,,,,,,,,,,,,,,,,,,,,,,,,,,,,,,,,584.1238767000004,584.6293088000002,584.6293088000002,585.3818695999998,585.3818695999998,585.884489,585.884489,586.684252,586.684252,None,num_6,0.3073436999993646,586.684252,None,sad,1,Sad,587.0063335000004,None,None,587.0063335000004,None,,,,,,,,,,,,,,,,,,,,,,,,,,,,,,,,,,,,,,,,,,,,,,,,,,,,,17,001,0,22,400,400,2022_Oct_05_1435,Experiment,2021.1.4,359.89606200619687,
images\S4_M_S_01.png,images\S4_M_S_01_scrambled.png,4,sad,-10,male,3,,502,off,1,0.5,0.75,0.5,0.854,3,501,1,1,1,0,0,0,0,3,,,,,,0,89,89,89,,,,,,,,,,,,,,,,,,,,,,,,,,,,,,,,,,,,,,,,,,,,,,,,,,,,,,,,,587.0535384000004,587.5589887000006,587.5589887000006,588.3115292000002,588.3115292000002,588.8141147000006,588.8141147000006,589.6722201000002,589.6722201000002,None,num_6,0.36727669999982027,589.6722201000002,None,sad,1,Sad,590.0526325000001,None,None,590.0526325000001,None,,,,,,,,,,,,,,,,,,,,,,,,,,,,,,,,,,,,,,,,,,,,,,,,,,,,,17,001,0,22,400,400,2022_Oct_05_1435,Experiment,2021.1.4,359.89606200619687,
images\S4_M_H_02.png,images\S4_M_H_02_scrambled.png,4,happy,20,male,5,,200,on,2,0.5,0.75,0.5,0.765,3,199,1,2,1,2,2,32,128,165,,,,,,0,90,90,90,,,,,,,,,,,,,,,,,,,,,,,,,,,,,,,,,,,,,,,,,,,,,,,,,,,,,,,,,590.1026038999998,590.6024539999999,590.6024539999999,591.3522209000002,591.3522209000002,591.8548860000001,591.8548860000001,592.6240521,592.6240521,None,num_4,1.1355754000005618,592.6240521,None,happy,1,Happy,593.7737150000003,None,None,593.7737150000003,None,,,,,,,,,,,,,,,,,,,,,,,,,,,,,,,,,,,,,,,,,,,,,,,,,,,,,17,001,0,22,400,400,2022_Oct_05_1435,Experiment,2021.1.4,359.89606200619687,
images\S1_F_H_01.png,images\S1_F_H_01_scrambled.png,1,happy,10,female,4,,301,on,2,0.5,0.75,0.5,0.925,3,300,2,1,1,2,2,32,128,164,,,,,,0,91,91,91,,,,,,,,,,,,,,,,,,,,,,,,,,,,,,,,,,,,,,,,,,,,,,,,,,,,,,,,,593.8209128999997,594.3235457999999,594.3235457999999,595.0761354000006,595.0761354000006,595.5815263000004,595.5815263000004,596.5117955000005,596.5117955000005,None,num_4,0.5758741999998165,596.5117955000005,None,happy,1,Happy,597.1032673,None,None,597.1032673,None,,,,,,,,,,,,,,,,,,,,,,,,,,,,,,,,,,,,,,,,,,,,,,,,,,,,,17,001,0,22,400,400,2022_Oct_05_1435,Experiment,2021.1.4,359.89606200619687,
images\S9_F_H_03.png,images\S9_F_H_03_scrambled.png,9,happy,30,female,6,,51,off,1,0.5,0.75,0.5,0.906,3,50,1,1,1,0,0,0,0,6,,,,,,0,92,92,92,,,,,,,,,,,,,,,,,,,,,,,,,,,,,,,,,,,,,,,,,,,,,,,,,,,,,,,,,597.1504557999997,597.6559437000005,597.6559437000005,598.4056353000005,598.4056353000005,598.9055092999997,598.9055092999997,599.8135105000001,599.8135105000001,None,num_4,0.7061110000004192,599.8135105000001,None,happy,1,Happy,600.5411113,None,None,600.5411113,None,,,,,,,,,,,,,,,,,,,,,,,,,,,,,,,,,,,,,,,,,,,,,,,,,,,,,17,001,0,22,400,400,2022_Oct_05_1435,Experiment,2021.1.4,359.89606200619687,
images\S10_M_S_01.png,images\S10_M_S_01_scrambled.png,10,sad,-10,male,3,,178,off,1,0.5,0.75,0.5,0.853,3,177,2,1,1,0,0,0,0,3,,,,,,0,93,93,93,,,,,,,,,,,,,,,,,,,,,,,,,,,,,,,,,,,,,,,,,,,,,,,,,,,,,,,,,600.6438220999999,601.1464937000001,601.1464937000001,601.8962235999998,601.8962235999998,602.4016769,602.4016769,603.2569404000005,603.2569404000005,None,num_4,0.5189142999997785,603.2569404000005,None,happy,1,Sad,603.7873519499999,None,None,603.7873519499999,None,,,,,,,,,,,,,,,,,,,,,,,,,,,,,,,,,,,,,,,,,,,,,,,,,,,,,17,001,0,22,400,400,2022_Oct_05_1435,Experiment,2021.1.4,359.89606200619687,
images\S4_M_H_01.png,images\S4_M_H_01_scrambled.png,4,happy,10,male,4,,259,off,1,0.5,0.75,0.5,0.888,3,258,3,1,1,0,0,0,0,4,,,,,,0,94,94,94,,,,,,,,,,,,,,,,,,,,,,,,,,,,,,,,,,,,,,,,,,,,,,,,,,,,,,,,,603.8456219,604.3510822999997,604.3510822999997,605.1035822000003,605.1035822000003,605.6061894000004,605.6061894000004,606.5032314,606.5032314,None,num_6,0.29640520000066317,606.5032314,None,sad,1,Happy,606.8113956500001,None,None,606.8113956500001,None,,,,,,,,,,,,,,,,,,,,,,,,,,,,,,,,,,,,,,,,,,,,,,,,,,,,,17,001,0,22,400,400,2022_Oct_05_1435,Experiment,2021.1.4,359.89606200619687,
images\S7_F_S_01.png,images\S7_F_S_01_scrambled.png,7,sad,-10,female,3,,460,on,2,0.5,0.75,0.5,0.865,3,459,1,1,1,2,2,32,128,163,,,,,,0,95,95,95,,,,,,,,,,,,,,,,,,,,,,,,,,,,,,,,,,,,,,,,,,,,,,,,,,,,,,,,,606.8752525999998,607.3807489000001,607.3807489000001,608.133202,608.133202,608.6330998000003,608.6330998000003,609.5022580000004,609.5022580000004,None,num_6,0.4014507000001686,609.5022580000004,None,sad,1,Sad,609.9132444000006,None,None,609.9132444000006,None,,,,,,,,,,,,,,,,,,,,,,,,,,,,,,,,,,,,,,,,,,,,,,,,,,,,,17,001,0,22,400,400,2022_Oct_05_1435,Experiment,2021.1.4,359.89606200619687,
images\S2_M_S_01.png,images\S2_M_S_01_scrambled.png,2,sad,-10,male,3,,190,on,2,0.5,0.75,0.5,0.799,3,189,2,1,2,2,2,32,128,163,,,,,,0,96,96,96,,,,,,,,,,,,,,,,,,,,,,,,,,,,,,,,,,,,,,,,,,,,,,,,,,,,,,,,,609.9604171000001,610.4630623000003,610.4630623000003,611.2156021000001,611.2156021000001,611.7182057,611.7182057,612.5208435000004,612.5208435000004,None,num_6,0.3107148999997662,612.5208435000004,None,sad,1,Sad,612.8456446999999,None,None,612.8456446999999,None,,,,,,,,,,,,,,,,,,,,,,,,,,,,,,,,,,,,,,,,,,,,,,,,,,,,,17,001,0,22,400,400,2022_Oct_05_1435,Experiment,2021.1.4,359.89606200619687,
images\S7_F_H_03.png,images\S7_F_H_03_scrambled.png,7,happy,30,female,6,,219,on,2,0.5,0.75,0.5,0.931,3,218,3,1,1,2,2,32,128,166,,,,,,0,97,97,97,,,,,,,,,,,,,,,,,,,,,,,,,,,,,,,,,,,,,,,,,,,,,,,,,,,,,,,,,612.8928533999997,613.3956247000006,613.3956247000006,614.1452724000001,614.1452724000001,614.6507226000003,614.6507226000003,615.5865177000005,615.5865177000005,None,num_4,0.5732068999996045,615.5865177000005,None,happy,1,Happy,616.1752098000006,None,None,616.1752098000006,None,,,,,,,,,,,,,,,,,,,,,,,,,,,,,,,,,,,,,,,,,,,,,,,,,,,,,17,001,0,22,400,400,2022_Oct_05_1435,Experiment,2021.1.4,359.89606200619687,
images\S10_M_S_01.png,images\S10_M_S_01_scrambled.png,10,sad,-10,male,3,,598,on,2,0.5,0.75,0.5,0.933,3,597,4,1,1,2,2,32,128,163,,,,,,0,98,98,98,,,,,,,,,,,,,,,,,,,,,,,,,,,,,,,,,,,,,,,,,,,,,,,,,,,,,,,,,616.2223887,616.7251332000005,616.7251332000005,617.4775869000005,617.4775869000005,617.9803340999997,617.9803340999997,618.9160516000002,618.9160516000002,None,num_4,0.39567150000038964,618.9160516000002,None,happy,1,Sad,619.3214508000001,None,None,619.3214508000001,None,,,,,,,,,,,,,,,,,,,,,,,,,,,,,,,,,,,,,,,,,,,,,,,,,,,,,17,001,0,22,400,400,2022_Oct_05_1435,Experiment,2021.1.4,359.89606200619687,
images\S1_F_H_01.png,images\S1_F_H_01_scrambled.png,1,happy,10,female,4,,541,on,2,0.5,0.75,0.5,0.919,3,540,5,1,1,2,2,32,128,164,,,,,,0,99,99,99,,,,,,,,,,,,,,,,,,,,,,,,,,,,,,,,,,,,,,,,,,,,,,,,,,,,,,,,,619.3686515999998,619.8713023999999,619.8713023999999,620.6210517,620.6210517,621.1236485999998,621.1236485999998,622.0456992,622.0456992,None,num_4,0.30559510000057344,622.0456992,None,happy,1,Happy,622.3622303000002,None,None,622.3622303000002,None,,,,,,,,,,,,,,,,,,,,,,,,,,,,,,,,,,,,,,,,,,,,,,,,,,,,,17,001,0,22,400,400,2022_Oct_05_1435,Experiment,2021.1.4,359.89606200619687,
images\S5_F_S_02.png,images\S5_F_S_02_scrambled.png,5,sad,-20,female,2,,149,off,1,0.5,0.75,0.5,0.924,3,148,1,1,1,0,0,0,0,2,,,,,,0,100,100,100,,,,,,,,,,,,,,,,,,,,,,,,,,,,,,,,,,,,,,,,,,,,,,,,,,,,,,,,,622.4121551999997,622.9175494000001,622.9175494000001,623.6702565000005,623.6702565000005,624.1727510000001,624.1727510000001,625.1030243000005,625.1030243000005,None,num_4,0.27276220000021567,625.1030243000005,None,happy,1,Sad,625.3834628000004,None,None,625.3834628000004,None,,,,,,,,,,,,,,,,,,,,,,,,,,,,,,,,,,,,,,,,,,,,,,,,,,,,,17,001,0,22,400,400,2022_Oct_05_1435,Experiment,2021.1.4,359.89606200619687,
images\S4_M_S_02.png,images\S4_M_S_02_scrambled.png,4,sad,-20,male,2,,83,on,2,0.5,0.75,0.5,0.842,3,82,1,1,2,2,2,32,128,162,,,,,,0,101,101,101,,,,,,,,,,,,,,,,,,,,,,,,,,,,,,,,,,,,,,,,,,,,,,,,,,,,,,,,,625.4640131000006,625.9694342000003,625.9694342000003,626.7191764999998,626.7191764999998,627.2218929999999,627.2218929999999,628.0661349000002,628.0661349000002,None,num_6,0.42139050000059797,628.0661349000002,None,sad,1,Sad,628.5103446000003,None,None,628.5103446000003,None,,,,,,,,,,,,,,,,,,,,,,,,,,,,,,,,,,,,,,,,,,,,,,,,,,,,,17,001,0,22,400,400,2022_Oct_05_1435,Experiment,2021.1.4,359.89606200619687,
images\S7_F_H_01.png,images\S7_F_H_01_scrambled.png,7,happy,10,female,4,,37,off,1,0.5,0.75,0.5,0.851,3,36,1,1,1,0,0,0,0,4,,,,,,0,102,102,102,,,,,,,,,,,,,,,,,,,,,,,,,,,,,,,,,,,,,,,,,,,,,,,,,,,,,,,,,628.5630572999999,629.0684916999999,629.0684916999999,629.8210298000004,629.8210298000004,630.3208515000006,630.3208515000006,631.1762936000005,631.1762936000005,None,num_6,0.8074220999997124,631.1762936000005,None,sad,1,Happy,631.9927333000005,None,None,631.9927333000005,None,,,,,,,,,,,,,,,,,,,,,,,,,,,,,,,,,,,,,,,,,,,,,,,,,,,,,17,001,0,22,400,400,2022_Oct_05_1435,Experiment,2021.1.4,359.89606200619687,
images\S7_F_H_01.png,images\S7_F_H_01_scrambled.png,7,happy,10,female,4,,157,off,1,0.5,0.75,0.5,0.938,3,156,2,2,2,0,0,0,0,4,,,,,,0,103,103,103,,,,,,,,,,,,,,,,,,,,,,,,,,,,,,,,,,,,,,,,,,,,,,,,,,,,,,,,,632.0425517000003,632.5479850000002,632.5479850000002,633.3033059999998,633.3033059999998,633.8060363000004,633.8060363000004,634.7473172,634.7473172,None,num_4,0.2604563999993843,634.7473172,None,happy,1,Happy,635.0361260500003,None,None,635.0361260500003,None,,,,,,,,,,,,,,,,,,,,,,,,,,,,,,,,,,,,,,,,,,,,,,,,,,,,,17,001,0,22,400,400,2022_Oct_05_1435,Experiment,2021.1.4,359.89606200619687,
images\S3_F_H_01.png,images\S3_F_H_01_scrambled.png,3,happy,10,female,4,,373,off,1,0.5,0.75,0.5,0.759,3,372,3,1,3,0,0,0,0,4,,,,,,0,104,104,104,,,,,,,,,,,,,,,,,,,,,,,,,,,,,,,,,,,,,,,,,,,,,,,,,,,,,,,,,635.1027216000002,635.6053423000003,635.6053423000003,636.3551088000004,636.3551088000004,636.8577782000002,636.8577782000002,637.6214802000004,637.6214802000004,None,num_4,0.4102781999999934,637.6214802000004,None,happy,1,Happy,638.0462901999999,None,None,638.0462901999999,None,,,,,,,,,,,,,,,,,,,,,,,,,,,,,,,,,,,,,,,,,,,,,,,,,,,,,17,001,0,22,400,400,2022_Oct_05_1435,Experiment,2021.1.4,359.89606200619687,
images\S2_M_S_03.png,images\S2_M_S_03_scrambled.png,2,sad,-30,male,1,,432,on,2,0.5,0.75,0.5,0.828,3,431,1,1,1,2,2,32,128,161,,,,,,0,105,105,105,,,,,,,,,,,,,,,,,,,,,,,,,,,,,,,,,,,,,,,,,,,,,,,,,,,,,,,,,638.0934798999997,638.5960934000004,638.5960934000004,639.3458944000004,639.3458944000004,639.8485209,639.8485209,640.6816672000004,640.6816672000004,None,num_6,0.37417829999958485,640.6816672000004,None,sad,1,Sad,641.0731773500002,None,None,641.0731773500002,None,,,,,,,,,,,,,,,,,,,,,,,,,,,,,,,,,,,,,,,,,,,,,,,,,,,,,17,001,0,22,400,400,2022_Oct_05_1435,Experiment,2021.1.4,359.89606200619687,
images\S8_M_H_02.png,images\S8_M_H_02_scrambled.png,8,happy,20,male,5,,284,off,1,0.5,0.75,0.5,0.887,3,283,1,1,1,0,0,0,0,5,,,,,,0,106,106,106,,,,,,,,,,,,,,,,,,,,,,,,,,,,,,,,,,,,,,,,,,,,,,,,,,,,,,,,,641.1203168000002,641.6258699,641.6258699,642.3782603,642.3782603,642.8836959999999,642.8836959999999,643.7750677000004,643.7750677000004,None,num_4,0.6725742999997237,643.7750677000004,None,happy,1,Happy,644.4609853000002,None,None,644.4609853000002,None,,,,,,,,,,,,,,,,,,,,,,,,,,,,,,,,,,,,,,,,,,,,,,,,,,,,,17,001,0,22,400,400,2022_Oct_05_1435,Experiment,2021.1.4,359.89606200619687,
images\S3_F_H_01.png,images\S3_F_H_01_scrambled.png,3,happy,10,female,4,,13,off,1,0.5,0.75,0.5,0.759,3,12,2,1,1,0,0,0,0,4,,,,,,0,107,107,107,,,,,,,,,,,,,,,,,,,,,,,,,,,,,,,,,,,,,,,,,,,,,,,,,,,,,,,,,644.5081878999999,645.0136067000003,645.0136067000003,645.7661219000001,645.7661219000001,646.2659672,646.2659672,647.0269850000004,647.0269850000004,None,num_4,0.6765613999996276,647.0269850000004,None,happy,1,Happy,647.7183289000004,None,None,647.7183289000004,None,,,,,,,,,,,,,,,,,,,,,,,,,,,,,,,,,,,,,,,,,,,,,,,,,,,,,17,001,0,22,400,400,2022_Oct_05_1435,Experiment,2021.1.4,359.89606200619687,
images\blank.jpg,images\blank.jpg,none,none,none,none,0,,627,on,2,0.5,0.75,0.5,0.816,0,626,1,1,1,3,3,48,192,240,,,,,,0,108,108,108,,,,,,,,,,,,,,,,,,,,,,,,,,,,,,,,,,,,,,,,,,,,,,,,,,,,,,,,,647.8018517999999,648.3070585000005,648.3070585000005,649.0595706000004,649.0595706000004,649.5621864000004,649.5621864000004,650.3787364999998,650.3787364999998,650.3787364999998,None,,650.3787364999998,None,miss,1,,653.3805446000006,None,None,653.3805446000006,None,,,,,,,,,,,,,,,,,,,,,,,,,,,,,,,,,,,,,,,,,,,,,,,,,,,,,17,001,0,22,400,400,2022_Oct_05_1435,Experiment,2021.1.4,359.89606200619687,
images\S4_M_S_01.png,images\S4_M_S_01_scrambled.png,4,sad,-10,male,3,,142,off,1,0.5,0.75,0.5,0.885,3,141,1,1,1,0,0,0,0,3,,,,,,0,109,109,109,,,,,,,,,,,,,,,,,,,,,,,,,,,,,,,,,,,,,,,,,,,,,,,,,,,,,,,,,653.5029513,654.0080463000004,654.0080463000004,654.7578167000001,654.7578167000001,655.2604785000003,655.2604785000003,656.1519662999999,656.1519662999999,None,num_6,0.2722106999999596,656.1519662999999,653.5029513,sad,1,Sad,656.4463572499999,None,None,656.4463572499999,None,,,,,,,,,,,,,,,,,,,,,,,,,,,,,,,,,,,,,,,,,,,,,,,,,,,,,17,001,0,22,400,400,2022_Oct_05_1435,Experiment,2021.1.4,359.89606200619687,
images\S9_F_H_02.png,images\S9_F_H_02_scrambled.png,9,happy,20,female,5,,470,on,2,0.5,0.75,0.5,0.942,3,469,1,1,1,2,2,32,128,165,,,,,,0,110,110,110,,,,,,,,,,,,,,,,,,,,,,,,,,,,,,,,,,,,,,,,,,,,,,,,,,,,,,,,,656.5544872,657.0571792000001,657.0571792000001,657.8124689000006,657.8124689000006,658.3178657999997,658.3178657999997,659.2620395000004,659.2620395000004,None,num_4,0.289507099999355,659.2620395000004,None,happy,1,Happy,659.5619431000005,None,None,659.5619431000005,None,,,,,,,,,,,,,,,,,,,,,,,,,,,,,,,,,,,,,,,,,,,,,,,,,,,,,17,001,0,22,400,400,2022_Oct_05_1435,Experiment,2021.1.4,359.89606200619687,
images\S10_M_H_03.png,images\S10_M_H_03_scrambled.png,10,happy,30,male,6,,57,off,1,0.5,0.75,0.5,0.854,3,56,1,1,1,0,0,0,0,6,,,,,,0,111,111,111,,,,,,,,,,,,,,,,,,,,,,,,,,,,,,,,,,,,,,,,,,,,,,,,,,,,,,,,,659.6118845999999,660.1173337,660.1173337,660.8670459000004,660.8670459000004,661.3725024000005,661.3725024000005,662.2305572000005,662.2305572000005,None,num_4,0.289065799999662,662.2305572000005,None,happy,1,Happy,662.5304342,None,None,662.5304342,None,,,,,,,,,,,,,,,,,,,,,,,,,,,,,,,,,,,,,,,,,,,,,,,,,,,,,17,001,0,22,400,400,2022_Oct_05_1435,Experiment,2021.1.4,359.89606200619687,
images\S1_F_H_02.png,images\S1_F_H_02_scrambled.png,1,happy,20,female,5,,422,on,2,0.5,0.75,0.5,0.879,3,421,1,1,1,2,2,32,128,165,,,,,,0,112,112,112,,,,,,,,,,,,,,,,,,,,,,,,,,,,,,,,,,,,,,,,,,,,,,,,,,,,,,,,,662.5860516000002,663.0914659,663.0914659,663.8439410999999,663.8439410999999,664.3466863000003,664.3466863000003,665.2324315000005,665.2324315000005,None,num_4,0.5991489999996702,665.2324315000005,None,happy,1,Happy,665.8516800000007,None,None,665.8516800000007,None,,,,,,,,,,,,,,,,,,,,,,,,,,,,,,,,,,,,,,,,,,,,,,,,,,,,,17,001,0,22,400,400,2022_Oct_05_1435,Experiment,2021.1.4,359.89606200619687,
images\S9_F_S_02.png,images\S9_F_S_02_scrambled.png,9,sad,-20,female,2,,293,off,1,0.5,0.75,0.5,0.855,3,292,1,1,1,0,0,0,0,2,,,,,,0,113,113,113,,,,,,,,,,,,,,,,,,,,,,,,,,,,,,,,,,,,,,,,,,,,,,,,,,,,,,,,,665.8988596999998,666.4014742999998,666.4014742999998,667.1512473000003,667.1512473000003,667.6567339000003,667.6567339000003,668.5175432000005,668.5175432000005,None,num_6,0.2741630000000441,668.5175432000005,None,sad,1,Sad,668.8063283000001,None,None,668.8063283000001,None,,,,,,,,,,,,,,,,,,,,,,,,,,,,,,,,,,,,,,,,,,,,,,,,,,,,,17,001,0,22,400,400,2022_Oct_05_1435,Experiment,2021.1.4,359.89606200619687,
images\S1_F_S_02.png,images\S1_F_S_02_scrambled.png,1,sad,-20,female,2,,125,off,1,0.5,0.75,0.5,0.822,3,124,2,1,2,0,0,0,0,2,,,,,,0,114,114,114,,,,,,,,,,,,,,,,,,,,,,,,,,,,,,,,,,,,,,,,,,,,,,,,,,,,,,,,,668.8535129000002,669.3562634,669.3562634,670.1059266000002,670.1059266000002,670.6085401999999,670.6085401999999,671.4332976000005,671.4332976000005,None,num_6,0.34226550000039424,671.4332976000005,None,sad,1,Sad,671.7887193000006,None,None,671.7887193000006,None,,,,,,,,,,,,,,,,,,,,,,,,,,,,,,,,,,,,,,,,,,,,,,,,,,,,,17,001,0,22,400,400,2022_Oct_05_1435,Experiment,2021.1.4,359.89606200619687,
images\S7_F_S_03.png,images\S7_F_S_03_scrambled.png,7,sad,-30,female,1,,522,off,1,0.5,0.75,0.5,0.931,3,521,3,1,1,0,0,0,0,1,,,,,,0,115,115,115,,,,,,,,,,,,,,,,,,,,,,,,,,,,,,,,,,,,,,,,,,,,,,,,,,,,,,,,,671.8359265999998,672.3385656,672.3385656,673.0911895999998,673.0911895999998,673.5937362000004,673.5937362000004,674.5269094000005,674.5269094000005,None,num_6,0.19284119999974791,674.5269094000005,None,sad,1,Sad,674.7295349000005,None,None,674.7295349000005,None,,,,,,,,,,,,,,,,,,,,,,,,,,,,,,,,,,,,,,,,,,,,,,,,,,,,,17,001,0,22,400,400,2022_Oct_05_1435,Experiment,2021.1.4,359.89606200619687,
images\S2_M_S_02.png,images\S2_M_S_02_scrambled.png,2,sad,-20,male,2,,551,on,2,0.5,0.75,0.5,0.773,3,550,1,1,1,2,2,32,128,162,,,,,,0,116,116,116,,,,,,,,,,,,,,,,,,,,,,,,,,,,,,,,,,,,,,,,,,,,,,,,,,,,,,,,,674.7794672,675.2821372999997,675.2821372999997,676.0318572000006,676.0318572000006,676.5373074999998,676.5373074999998,677.3120693999999,677.3120693999999,None,num_6,0.3515844000003199,677.3120693999999,None,sad,1,Sad,677.6897638500004,None,None,677.6897638500004,None,,,,,,,,,,,,,,,,,,,,,,,,,,,,,,,,,,,,,,,,,,,,,,,,,,,,,17,001,0,22,400,400,2022_Oct_05_1435,Experiment,2021.1.4,359.89606200619687,
images\S4_M_S_02.png,images\S4_M_S_02_scrambled.png,4,sad,-20,male,2,,383,off,1,0.5,0.75,0.5,0.783,3,382,1,1,2,0,0,0,0,2,,,,,,0,117,117,117,,,,,,,,,,,,,,,,,,,,,,,,,,,,,,,,,,,,,,,,,,,,,,,,,,,,,,,,,677.7424474999998,678.2450808000003,678.2450808000003,678.9976612,678.9976612,679.5002734,679.5002734,680.2889123000004,680.2889123000004,None,num_6,0.35930160000043543,680.2889123000004,None,sad,1,Sad,680.6750335000006,None,None,680.6750335000006,None,,,,,,,,,,,,,,,,,,,,,,,,,,,,,,,,,,,,,,,,,,,,,,,,,,,,,17,001,0,22,400,400,2022_Oct_05_1435,Experiment,2021.1.4,359.89606200619687,
images\S8_M_H_02.png,images\S8_M_H_02_scrambled.png,8,happy,20,male,5,,404,off,1,0.5,0.75,0.5,0.795,3,403,2,1,1,0,0,0,0,5,,,,,,0,118,118,118,,,,,,,,,,,,,,,,,,,,,,,,,,,,,,,,,,,,,,,,,,,,,,,,,,,,,,,,,680.7276882000006,681.2330849999998,681.2330849999998,681.9883993000003,681.9883993000003,682.4911314000001,682.4911314000001,683.2879656000005,683.2879656000005,None,num_4,0.26403799999934563,683.2879656000005,None,happy,1,Happy,683.5630619000003,None,None,683.5630619000003,None,,,,,,,,,,,,,,,,,,,,,,,,,,,,,,,,,,,,,,,,,,,,,,,,,,,,,17,001,0,22,400,400,2022_Oct_05_1435,Experiment,2021.1.4,359.89606200619687,
images\S6_M_S_02.png,images\S6_M_S_02_scrambled.png,6,sad,-20,male,2,,275,off,1,0.5,0.75,0.5,0.814,3,274,3,1,1,0,0,0,0,2,,,,,,0,119,119,119,,,,,,,,,,,,,,,,,,,,,,,,,,,,,,,,,,,,,,,,,,,,,,,,,,,,,,,,,683.6100940000006,684.1127258000006,684.1127258000006,684.8624939000001,684.8624939000001,685.3679338000002,685.3679338000002,686.1871292000005,686.1871292000005,None,num_6,0.2447833999995055,686.1871292000005,None,sad,1,Sad,686.4453653999999,None,None,686.4453653999999,None,,,,,,,,,,,,,,,,,,,,,,,,,,,,,,,,,,,,,,,,,,,,,,,,,,,,,17,001,0,22,400,400,2022_Oct_05_1435,Experiment,2021.1.4,359.89606200619687,
images\S2_M_H_03.png,images\S2_M_H_03_scrambled.png,2,happy,30,male,6,,249,off,1,0.5,0.75,0.5,0.794,3,248,4,1,1,0,0,0,0,6,,,,,,0,120,120,120,,,,,,,,,,,,,,,,,,,,,,,,,,,,,,,,,,,,,,,,,,,,,,,,,,,,,,,,,686.5286560000004,687.0312739999999,687.0312739999999,687.7838443999999,687.7838443999999,688.2865797000004,688.2865797000004,689.0834199000001,689.0834199000001,None,num_4,0.2125439000001279,689.0834199000001,None,happy,1,Happy,689.3222747,None,None,689.3222747,None,,,,,,,,,,,,,,,,,,,,,,,,,,,,,,,,,,,,,,,,,,,,,,,,,,,,,17,001,0,22,400,400,2022_Oct_05_1435,Experiment,2021.1.4,359.89606200619687,
images\S3_F_S_01.png,images\S3_F_S_01_scrambled.png,3,sad,-10,female,3,,556,on,2,0.5,0.75,0.5,0.909,3,555,1,1,1,2,2,32,128,163,,,,,,0,121,121,121,,,,,,,,,,,,,,,,,,,,,,,,,,,,,,,,,,,,,,,,,,,,,,,,,,,,,,,,,689.4111076999998,689.9137434000004,689.9137434000004,690.6690622000006,690.6690622000006,691.1717624000003,691.1717624000003,692.0825434999997,692.0825434999997,None,num_6,0.3011864999998579,692.0825434999997,None,sad,1,Sad,692.3990917000001,None,None,692.3990917000001,None,,,,,,,,,,,,,,,,,,,,,,,,,,,,,,,,,,,,,,,,,,,,,,,,,,,,,17,001,0,22,400,400,2022_Oct_05_1435,Experiment,2021.1.4,359.89606200619687,
images\S3_F_S_03.png,images\S3_F_S_03_scrambled.png,3,sad,-30,female,1,,18,off,1,0.5,0.75,0.5,0.753,3,17,1,2,1,0,0,0,0,1,,,,,,0,122,122,122,,,,,,,,,,,,,,,,,,,,,,,,,,,,,,,,,,,,,,,,,,,,,,,,,,,,,,,,,692.4851682999997,692.9878140999999,692.9878140999999,693.7403558000005,693.7403558000005,694.2429941,694.2429941,694.9983087999999,694.9983087999999,None,num_6,0.40954209999927116,694.9983087999999,None,sad,1,Sad,695.4370438000005,None,None,695.4370438000005,None,,,,,,,,,,,,,,,,,,,,,,,,,,,,,,,,,,,,,,,,,,,,,,,,,,,,,17,001,0,22,400,400,2022_Oct_05_1435,Experiment,2021.1.4,359.89606200619687,
images\S4_M_S_01.png,images\S4_M_S_01_scrambled.png,4,sad,-10,male,3,,382,off,1,0.5,0.75,0.5,0.809,3,381,2,1,1,0,0,0,0,3,,,,,,0,123,123,123,,,,,,,,,,,,,,,,,,,,,,,,,,,,,,,,,,,,,,,,,,,,,,,,,,,,,,,,,695.4925779000005,695.9952390999997,695.9952390999997,696.7449650999997,696.7449650999997,697.2476286000001,697.2476286000001,698.0584555000005,698.0584555000005,None,num_6,0.21380619999945338,698.0584555000005,None,sad,1,Sad,698.2973726,None,None,698.2973726,None,,,,,,,,,,,,,,,,,,,,,,,,,,,,,,,,,,,,,,,,,,,,,,,,,,,,,17,001,0,22,400,400,2022_Oct_05_1435,Experiment,2021.1.4,359.89606200619687,
images\S2_M_S_03.png,images\S2_M_S_03_scrambled.png,2,sad,-30,male,1,,312,on,2,0.5,0.75,0.5,0.95,3,311,1,1,1,2,2,32,128,161,,,,,,0,124,124,124,,,,,,,,,,,,,,,,,,,,,,,,,,,,,,,,,,,,,,,,,,,,,,,,,,,,,,,,,698.3611387000001,698.8637900000003,698.8637900000003,699.6191060000001,699.6191060000001,700.1218085,700.1218085,701.0770453000005,701.0770453000005,None,num_6,0.07507170000008045,701.0770453000005,None,sad,1,Sad,701.1632079000001,None,None,701.1632079000001,None,,,,,,,,,,,,,,,,,,,,,,,,,,,,,,,,,,,,,,,,,,,,,,,,,,,,,17,001,0,22,400,400,2022_Oct_05_1435,Experiment,2021.1.4,359.89606200619687,
images\S9_F_H_02.png,images\S9_F_H_02_scrambled.png,9,happy,20,female,5,,110,on,2,0.5,0.75,0.5,0.815,3,109,2,1,1,2,2,32,128,165,,,,,,0,125,125,125,,,,,,,,,,,,,,,,,,,,,,,,,,,,,,,,,,,,,,,,,,,,,,,,,,,,,,,,,701.2130469000003,701.7128807999998,701.7128807999998,702.4626638,702.4626638,702.9625598000002,702.9625598000002,703.7817949999999,703.7817949999999,None,num_4,0.3779154000003473,703.7817949999999,None,happy,1,Happy,704.1705043000002,None,None,704.1705043000002,None,,,,,,,,,,,,,,,,,,,,,,,,,,,,,,,,,,,,,,,,,,,,,,,,,,,,,17,001,0,22,400,400,2022_Oct_05_1435,Experiment,2021.1.4,359.89606200619687,
images\S5_F_H_02.png,images\S5_F_H_02_scrambled.png,5,happy,20,female,5,,146,off,1,0.5,0.75,0.5,0.84,3,145,1,1,2,0,0,0,0,5,,,,,,0,126,126,126,,,,,,,,,,,,,,,,,,,,,,,,,,,,,,,,,,,,,,,,,,,,,,,,,,,,,,,,,704.2176909999998,704.7203035000002,704.7203035000002,705.4700733,705.4700733,705.9727380000004,705.9727380000004,706.8169761999998,706.8169761999998,None,num_4,0.1669519000006403,706.8169761999998,None,happy,1,Happy,706.9947232000004,None,None,706.9947232000004,None,,,,,,,,,,,,,,,,,,,,,,,,,,,,,,,,,,,,,,,,,,,,,,,,,,,,,17,001,0,22,400,400,2022_Oct_05_1435,Experiment,2021.1.4,359.89606200619687,
images\S9_F_S_03.png,images\S9_F_S_03_scrambled.png,9,sad,-30,female,1,,114,on,2,0.5,0.75,0.5,0.817,3,113,1,1,1,2,2,32,128,161,,,,,,0,127,127,127,,,,,,,,,,,,,,,,,,,,,,,,,,,,,,,,,,,,,,,,,,,,,,,,,,,,,,,,,707.0807045000001,707.5833460000003,707.5833460000003,708.3358937000003,708.3358937000003,708.8357403,708.8357403,709.6577223000004,709.6577223000004,None,num_4,0.27046229999996285,709.6577223000004,None,happy,1,Sad,709.9437872500002,None,None,709.9437872500002,None,,,,,,,,,,,,,,,,,,,,,,,,,,,,,,,,,,,,,,,,,,,,,,,,,,,,,17,001,0,22,400,400,2022_Oct_05_1435,Experiment,2021.1.4,359.89606200619687,
images\S5_F_S_03.png,images\S5_F_S_03_scrambled.png,5,sad,-30,female,1,,450,on,2,0.5,0.75,0.5,0.779,3,449,2,1,2,2,2,32,128,161,,,,,,0,128,128,128,,,,,,,,,,,,,,,,,,,,,,,,,,,,,,,,,,,,,,,,,,,,,,,,,,,,,,,,,710.0020206999998,710.5074402999999,710.5074402999999,711.262745,711.262745,711.7654106999998,711.7654106999998,712.5484930000002,712.5484930000002,None,num_4,0.4831448000004457,712.5484930000002,None,happy,1,Sad,713.0372305999999,None,None,713.0372305999999,None,,,,,,,,,,,,,,,,,,,,,,,,,,,,,,,,,,,,,,,,,,,,,,,,,,,,,17,001,0,22,400,400,2022_Oct_05_1435,Experiment,2021.1.4,359.89606200619687,
images\S7_F_S_02.png,images\S7_F_S_02_scrambled.png,7,sad,-20,female,2,,461,on,2,0.5,0.75,0.5,0.757,3,460,3,1,1,2,2,32,128,162,,,,,,0,129,129,129,,,,,,,,,,,,,,,,,,,,,,,,,,,,,,,,,,,,,,,,,,,,,,,,,,,,,,,,,713.0844138000002,713.5870970000005,713.5870970000005,714.3424050000003,714.3424050000003,714.8477989000003,714.8477989000003,715.6086679999999,715.6086679999999,None,num_6,0.3512670000000071,715.6086679999999,None,sad,1,Sad,715.9863468000003,None,None,715.9863468000003,None,,,,,,,,,,,,,,,,,,,,,,,,,,,,,,,,,,,,,,,,,,,,,,,,,,,,,17,001,0,22,400,400,2022_Oct_05_1435,Experiment,2021.1.4,359.89606200619687,
images\S3_F_S_03.png,images\S3_F_S_03_scrambled.png,3,sad,-30,female,1,,558,on,2,0.5,0.75,0.5,0.775,3,557,4,1,1,2,2,32,128,161,,,,,,0,130,130,130,,,,,,,,,,,,,,,,,,,,,,,,,,,,,,,,,,,,,,,,,,,,,,,,,,,,,,,,,716.0390599000002,716.5389012000005,716.5389012000005,717.2915981000006,717.2915981000006,717.7940770000005,717.7940770000005,718.5717765999998,718.5717765999998,None,num_6,0.3082074999992983,718.5717765999998,None,sad,1,Sad,718.8965184999997,None,space,718.8965184999997,None,35.854742099999385,,,,,,,,,,,,,,,,,,,,,,,,,,,,,,,,,,,,,,,,,,,,,,,,,,,,17,001,0,22,400,400,2022_Oct_05_1435,Experiment,2021.1.4,359.89606200619687,
images\S4_M_S_03.png,images\S4_M_S_03_scrambled.png,4,sad,-30,male,1,,384,off,1,0.5,0.75,0.5,0.844,3,383,1,1,2,0,0,0,0,1,,,,,,0,131,131,131,,,,,,,,,,,,,,,,,,,,,,,,,,,,,,,,,,,,,,,,,,,,,,,,,,,,,,,,,754.8465972000004,755.3464820999998,755.3464820999998,756.0962596999998,756.0962596999998,756.5989134000001,756.5989134000001,757.4486501000001,757.4486501000001,None,num_6,0.35960090000025957,757.4486501000001,None,sad,1,Sad,757.8318609500002,None,None,757.8318609500002,None,,,,,,,,,,,,,,,,,,,,,,,,,,,,,,,,,,,,,,,,,,,,,,,,,,,,,17,001,0,22,400,400,2022_Oct_05_1435,Experiment,2021.1.4,359.89606200619687,
images\S1_F_H_03.png,images\S1_F_H_03_scrambled.png,1,happy,30,female,6,,303,on,2,0.5,0.75,0.5,0.883,3,302,1,1,1,2,2,32,128,166,,,,,,0,132,132,132,,,,,,,,,,,,,,,,,,,,,,,,,,,,,,,,,,,,,,,,,,,,,,,,,,,,,,,,,757.8984741000004,758.3983200000002,758.3983200000002,759.1480916,759.1480916,759.6535196000004,759.6535196000004,760.5421302000004,760.5421302000004,None,num_4,0.4818697999999131,760.5421302000004,None,happy,1,Happy,761.0475436000006,None,None,761.0475436000006,None,,,,,,,,,,,,,,,,,,,,,,,,,,,,,,,,,,,,,,,,,,,,,,,,,,,,,17,001,0,22,400,400,2022_Oct_05_1435,Experiment,2021.1.4,359.89606200619687,
images\blank.jpg,images\blank.jpg,none,none,none,none,0,,623,on,2,0.5,0.75,0.5,0.822,0,622,2,1,1,3,3,48,192,240,,,,,,0,133,133,133,,,,,,,,,,,,,,,,,,,,,,,,,,,,,,,,,,,,,,,,,,,,,,,,,,,,,,,,,761.1365668999997,761.6389952,761.6389952,762.3887698999997,762.3887698999997,762.8914242000001,762.8914242000001,763.7189576000001,763.7189576000001,763.7189576000001,None,,763.7189576000001,None,miss,1,,766.7180492500001,None,None,766.7180492500001,None,,,,,,,,,,,,,,,,,,,,,,,,,,,,,,,,,,,,,,,,,,,,,,,,,,,,,17,001,0,22,400,400,2022_Oct_05_1435,Experiment,2021.1.4,359.89606200619687,
images\S4_M_S_02.png,images\S4_M_S_02_scrambled.png,4,sad,-20,male,2,,263,off,1,0.5,0.75,0.5,0.775,3,262,1,1,1,0,0,0,0,2,,,,,,0,134,134,134,,,,,,,,,,,,,,,,,,,,,,,,,,,,,,,,,,,,,,,,,,,,,,,,,,,,,,,,,766.8404728000005,767.3400558000003,767.3400558000003,768.0953916999997,768.0953916999997,768.6007998000005,768.6007998000005,769.3811147000006,769.3811147000006,None,num_6,0.25891559999945457,769.3811147000006,766.8404728000005,sad,1,Sad,769.6560098,None,None,769.6560098,None,,,,,,,,,,,,,,,,,,,,,,,,,,,,,,,,,,,,,,,,,,,,,,,,,,,,,17,001,0,22,400,400,2022_Oct_05_1435,Experiment,2021.1.4,359.89606200619687,
images\S5_F_H_02.png,images\S5_F_H_02_scrambled.png,5,happy,20,female,5,,446,on,2,0.5,0.75,0.5,0.843,3,445,1,1,1,2,2,32,128,165,,,,,,0,135,135,135,,,,,,,,,,,,,,,,,,,,,,,,,,,,,,,,,,,,,,,,,,,,,,,,,,,,,,,,,769.7032135,770.2058570999998,770.2058570999998,770.9611712000005,770.9611712000005,771.4609937000005,771.4609937000005,772.3051758000001,772.3051758000001,None,num_4,0.31859489999988,772.3051758000001,None,happy,1,Happy,772.6524164500006,None,None,772.6524164500006,None,,,,,,,,,,,,,,,,,,,,,,,,,,,,,,,,,,,,,,,,,,,,,,,,,,,,,17,001,0,22,400,400,2022_Oct_05_1435,Experiment,2021.1.4,359.89606200619687,
images\S7_F_S_03.png,images\S7_F_S_03_scrambled.png,7,sad,-30,female,1,,462,on,2,0.5,0.75,0.5,0.853,3,461,2,1,1,2,2,32,128,161,,,,,,0,136,136,136,,,,,,,,,,,,,,,,,,,,,,,,,,,,,,,,,,,,,,,,,,,,,,,,,,,,,,,,,772.7078341000006,773.2104767999999,773.2104767999999,773.9658174000006,773.9658174000006,774.4684489000001,774.4684489000001,775.3237090000002,775.3237090000002,None,num_6,0.3085178999999698,775.3237090000002,None,sad,1,Sad,775.6458401,None,None,775.6458401,None,,,,,,,,,,,,,,,,,,,,,,,,,,,,,,,,,,,,,,,,,,,,,,,,,,,,,17,001,0,22,400,400,2022_Oct_05_1435,Experiment,2021.1.4,359.89606200619687,
images\S2_M_S_01.png,images\S2_M_S_01_scrambled.png,2,sad,-10,male,3,,130,off,1,0.5,0.75,0.5,0.825,3,129,1,1,1,0,0,0,0,3,,,,,,0,137,137,137,,,,,,,,,,,,,,,,,,,,,,,,,,,,,,,,,,,,,,,,,,,,,,,,,,,,,,,,,775.6930297999997,776.1928837000005,776.1928837000005,776.9426586,776.9426586,777.4453266999999,777.4453266999999,778.2756080999998,778.2756080999998,None,num_6,0.23654269999951794,778.2756080999998,None,sad,1,Sad,778.5339192000001,None,None,778.5339192000001,None,,,,,,,,,,,,,,,,,,,,,,,,,,,,,,,,,,,,,,,,,,,,,,,,,,,,,17,001,0,22,400,400,2022_Oct_05_1435,Experiment,2021.1.4,359.89606200619687,
images\S6_M_H_02.png,images\S6_M_H_02_scrambled.png,6,happy,20,male,5,,332,on,2,0.5,0.75,0.5,0.776,3,331,1,1,1,2,2,32,128,165,,,,,,0,138,138,138,,,,,,,,,,,,,,,,,,,,,,,,,,,,,,,,,,,,,,,,,,,,,,,,,,,,,,,,,778.5865893999999,779.0920053999998,779.0920053999998,779.8445437,779.8445437,780.3500183000006,780.3500183000006,781.1302977000005,781.1302977000005,None,num_4,0.3253858999996737,781.1302977000005,None,happy,1,Happy,781.4690901499998,None,None,781.4690901499998,None,,,,,,,,,,,,,,,,,,,,,,,,,,,,,,,,,,,,,,,,,,,,,,,,,,,,,17,001,0,22,400,400,2022_Oct_05_1435,Experiment,2021.1.4,359.89606200619687,
images\S9_F_H_01.png,images\S9_F_H_01_scrambled.png,9,happy,10,female,4,,529,off,1,0.5,0.75,0.5,0.82,3,528,1,1,1,0,0,0,0,4,,,,,,0,139,139,139,,,,,,,,,,,,,,,,,,,,,,,,,,,,,,,,,,,,,,,,,,,,,,,,,,,,,,,,,781.5162497000001,782.0216645,782.0216645,782.7742281000001,782.7742281000001,783.2797325000001,783.2797325000001,784.1015969999999,784.1015969999999,None,num_4,0.29875260000062553,784.1015969999999,None,happy,1,Happy,784.4153657000006,None,None,784.4153657000006,None,,,,,,,,,,,,,,,,,,,,,,,,,,,,,,,,,,,,,,,,,,,,,,,,,,,,,17,001,0,22,400,400,2022_Oct_05_1435,Experiment,2021.1.4,359.89606200619687,
images\S1_F_S_03.png,images\S1_F_S_03_scrambled.png,1,sad,-30,female,1,,6,off,1,0.5,0.75,0.5,0.871,3,5,2,1,1,0,0,0,0,1,,,,,,0,140,140,140,,,,,,,,,,,,,,,,,,,,,,,,,,,,,,,,,,,,,,,,,,,,,,,,,,,,,,,,,784.4625673,784.9651991999999,784.9651991999999,785.7205407000001,785.7205407000001,786.2259591000002,786.2259591000002,787.1006750000006,787.1006750000006,None,num_6,0.28356349999921804,787.1006750000006,None,sad,1,Sad,787.41169945,None,None,787.41169945,None,,,,,,,,,,,,,,,,,,,,,,,,,,,,,,,,,,,,,,,,,,,,,,,,,,,,,17,001,0,22,400,400,2022_Oct_05_1435,Experiment,2021.1.4,359.89606200619687,
