image_face,image_scram,avatar,emo,emotion,sex,trigeeg,dac,trial_no,NMES,stimtime,baseline,iti,face,scr_face,resp_time,index,count_NMES,count_avatar,count_emotion,dac1,dac2,dac1_output,dac2_output,trigs_out,nmes,practice_trials.thisRepN,practice_trials.thisTrialN,practice_trials.thisN,practice_trials.thisIndex,real_trials.thisRepN,real_trials.thisTrialN,real_trials.thisN,real_trials.thisIndex,trials.thisRepN,trials.thisTrialN,trials.thisN,trials.thisIndex,position,Welcome.started,Welcome.stopped,Welcome_resp.keys,Welcome_resp.rt,text_2.started,text_2.stopped,form_2.index,form_2.itemText,form_2.type,form_2.response,form_2.rt,key_resp_4.keys,key_resp_4.rt,key_resp_4.started,key_resp_4.stopped,instructions.started,instructions.stopped,end_instr.keys,end_instr.rt,instructions_2.started,instructions_2.stopped,end_instr_2.keys,end_instr_2.rt,end_instr_2.started,end_instr_2.stopped,instruct_keypress.started,instruct_keypress.stopped,end_instruct_keypress.keys,end_instruct_keypress.rt,start_practice.started,start_practice.stopped,start_practice_resp.keys,start_practice_resp.rt,prac_baseline.started,prac_baseline.stopped,prac_iti.started,prac_iti.stopped,prac_stimulus.started,prac_stimulus.stopped,prac_scram_stim.started,prac_scram_stim.stopped,prac_stimulus_resp.started,prac_stimulus_resp.stopped,prac_resp.keys,prac_resp.rt,prac_resp.started,prac_resp.stopped,transition_to_real.started,transition_to_real.stopped,end_transition_to_real.keys,end_transition_to_real.rt,fixation_cross.started,fixation_cross.stopped,tr_iti.started,tr_iti.stopped,stimulus.started,stimulus.stopped,scram_stim.started,scram_stim.stopped,response_txt.started,response_txt.stopped,response.keys,response.rt,response.started,response.stopped,participant_Resp,grouping,corAnswer,break_msg.started,break_msg.stopped,end_break.keys,end_break.started,end_break.stopped,end_break.rt,text.started,text.stopped,key_resp_3.keys,key_resp_3.rt,key_resp_3.started,key_resp_3.stopped,fix_cross_comf.started,fix_cross_comf.stopped,stimulation_comf.started,stimulation_comf.stopped,rate_instr.started,rate_instr.stopped,comfort_rating.response,comfort_rating.rt,comfort_rating.started,comfort_rating.stopped,resp_form.keys,resp_form.rt,resp_form.started,resp_form.stopped,survey_instructions.started,survey_instructions.stopped,key_resp_2.keys,key_resp_2.rt,key_resp_2.started,key_resp_2.stopped,form.index,form.itemText,form.type,form.response,form.rt,key_resp.keys,key_resp.rt,key_resp.started,key_resp.stopped,text_3.started,text_3.stopped,rate_smile.response,rate_smile.rt,rate_smile.started,rate_smile.stopped,key_resp_5.keys,key_resp_5.rt,key_resp_5.started,key_resp_5.stopped,end_msg.started,end_msg.stopped,end_resp.keys,end_resp.rt,end_resp.started,end_resp.stopped,participant,session,gender,age,LEFT,RIGHT,date,expName,psychopyVersion,frameRate,
,,,,,,,,,,,,,,,,,,,,,,,,,,,,,,,,,,,,,,S-H,42.168246200000794,None,num_add,4.702458900001147,,,,,,,,,,,,,,,,,,,,,,,,,,,,,,,,,,,,,,,,,,,,,,,,,,,,,,,,,,,,,,,,,,,,,,,,,,,,,,,,,,,,,,,,,,,,,,,,,,,,,,,,,,,,,,,,,,,,,,,,,,18,001,1,21,400,550,2022_Oct_10_1312,Experiment,2021.1.4,359.9310372093038,
,,,,,,,,,,,,,,,,,,,,,,,,,,,,,,,,,,,,,,,,,,,46.89712060000056,48.940760900000896,1,"This scale consistes of a number of words that describe different feelings and emotion. Read each item and then list the number from the scale below each word. Indicate (by clicking) to what extend you feel this way RIGHT NOW, that is, AT THE PRESENT MOMENT.",description,,,,,,,,,,,,,,,,,,,,,,,,,,,,,,,,,,,,,,,,,,,,,,,,,,,,,,,,,,,,,,,,,,,,,,,,,,,,,,,,,,,,,,,,,,,,,,,,,,,,,,,,,,,,,,,,,,,,,18,001,1,21,400,550,2022_Oct_10_1312,Experiment,2021.1.4,359.9310372093038,
,,,,,,,,,,,,,,,,,,,,,,,,,,,,,,,,,,,,,,,,,,,,,2,Interested,rating,5.0,15.841015600000901,,,,,,,,,,,,,,,,,,,,,,,,,,,,,,,,,,,,,,,,,,,,,,,,,,,,,,,,,,,,,,,,,,,,,,,,,,,,,,,,,,,,,,,,,,,,,,,,,,,,,,,,,,,,,,,,,,,18,001,1,21,400,550,2022_Oct_10_1312,Experiment,2021.1.4,359.9310372093038,
,,,,,,,,,,,,,,,,,,,,,,,,,,,,,,,,,,,,,,,,,,,,,3,Distressed,rating,1.0,19.042579699998896,,,,,,,,,,,,,,,,,,,,,,,,,,,,,,,,,,,,,,,,,,,,,,,,,,,,,,,,,,,,,,,,,,,,,,,,,,,,,,,,,,,,,,,,,,,,,,,,,,,,,,,,,,,,,,,,,,,18,001,1,21,400,550,2022_Oct_10_1312,Experiment,2021.1.4,359.9310372093038,
,,,,,,,,,,,,,,,,,,,,,,,,,,,,,,,,,,,,,,,,,,,,,4,Excited,rating,5.0,20.50752350000039,,,,,,,,,,,,,,,,,,,,,,,,,,,,,,,,,,,,,,,,,,,,,,,,,,,,,,,,,,,,,,,,,,,,,,,,,,,,,,,,,,,,,,,,,,,,,,,,,,,,,,,,,,,,,,,,,,,18,001,1,21,400,550,2022_Oct_10_1312,Experiment,2021.1.4,359.9310372093038,
,,,,,,,,,,,,,,,,,,,,,,,,,,,,,,,,,,,,,,,,,,,,,5,Upset,rating,1.0,24.767532399999254,,,,,,,,,,,,,,,,,,,,,,,,,,,,,,,,,,,,,,,,,,,,,,,,,,,,,,,,,,,,,,,,,,,,,,,,,,,,,,,,,,,,,,,,,,,,,,,,,,,,,,,,,,,,,,,,,,,18,001,1,21,400,550,2022_Oct_10_1312,Experiment,2021.1.4,359.9310372093038,
,,,,,,,,,,,,,,,,,,,,,,,,,,,,,,,,,,,,,,,,,,,,,6,Strong,rating,5.0,34.24011250000149,,,,,,,,,,,,,,,,,,,,,,,,,,,,,,,,,,,,,,,,,,,,,,,,,,,,,,,,,,,,,,,,,,,,,,,,,,,,,,,,,,,,,,,,,,,,,,,,,,,,,,,,,,,,,,,,,,,18,001,1,21,400,550,2022_Oct_10_1312,Experiment,2021.1.4,359.9310372093038,
,,,,,,,,,,,,,,,,,,,,,,,,,,,,,,,,,,,,,,,,,,,,,7,Guilty,rating,1.0,16.826366999999664,,,,,,,,,,,,,,,,,,,,,,,,,,,,,,,,,,,,,,,,,,,,,,,,,,,,,,,,,,,,,,,,,,,,,,,,,,,,,,,,,,,,,,,,,,,,,,,,,,,,,,,,,,,,,,,,,,,18,001,1,21,400,550,2022_Oct_10_1312,Experiment,2021.1.4,359.9310372093038,
,,,,,,,,,,,,,,,,,,,,,,,,,,,,,,,,,,,,,,,,,,,,,8,Scared,rating,1.0,22.388775100000203,,,,,,,,,,,,,,,,,,,,,,,,,,,,,,,,,,,,,,,,,,,,,,,,,,,,,,,,,,,,,,,,,,,,,,,,,,,,,,,,,,,,,,,,,,,,,,,,,,,,,,,,,,,,,,,,,,,18,001,1,21,400,550,2022_Oct_10_1312,Experiment,2021.1.4,359.9310372093038,
,,,,,,,,,,,,,,,,,,,,,,,,,,,,,,,,,,,,,,,,,,,,,9,Hostile,rating,1.0,18.74506520000068,,,,,,,,,,,,,,,,,,,,,,,,,,,,,,,,,,,,,,,,,,,,,,,,,,,,,,,,,,,,,,,,,,,,,,,,,,,,,,,,,,,,,,,,,,,,,,,,,,,,,,,,,,,,,,,,,,,18,001,1,21,400,550,2022_Oct_10_1312,Experiment,2021.1.4,359.9310372093038,
,,,,,,,,,,,,,,,,,,,,,,,,,,,,,,,,,,,,,,,,,,,,,10,Enthusiastic,rating,5.0,15.47812840000006,,,,,,,,,,,,,,,,,,,,,,,,,,,,,,,,,,,,,,,,,,,,,,,,,,,,,,,,,,,,,,,,,,,,,,,,,,,,,,,,,,,,,,,,,,,,,,,,,,,,,,,,,,,,,,,,,,,18,001,1,21,400,550,2022_Oct_10_1312,Experiment,2021.1.4,359.9310372093038,
,,,,,,,,,,,,,,,,,,,,,,,,,,,,,,,,,,,,,,,,,,,,,11,Proud,rating,2.0,18.49084909999874,,,,,,,,,,,,,,,,,,,,,,,,,,,,,,,,,,,,,,,,,,,,,,,,,,,,,,,,,,,,,,,,,,,,,,,,,,,,,,,,,,,,,,,,,,,,,,,,,,,,,,,,,,,,,,,,,,,18,001,1,21,400,550,2022_Oct_10_1312,Experiment,2021.1.4,359.9310372093038,
,,,,,,,,,,,,,,,,,,,,,,,,,,,,,,,,,,,,,,,,,,,,,12,Irritable,rating,1.0,18.044396099998266,,,,,,,,,,,,,,,,,,,,,,,,,,,,,,,,,,,,,,,,,,,,,,,,,,,,,,,,,,,,,,,,,,,,,,,,,,,,,,,,,,,,,,,,,,,,,,,,,,,,,,,,,,,,,,,,,,,18,001,1,21,400,550,2022_Oct_10_1312,Experiment,2021.1.4,359.9310372093038,
,,,,,,,,,,,,,,,,,,,,,,,,,,,,,,,,,,,,,,,,,,,,,13,Alert,rating,5.0,13.706216600001426,,,,,,,,,,,,,,,,,,,,,,,,,,,,,,,,,,,,,,,,,,,,,,,,,,,,,,,,,,,,,,,,,,,,,,,,,,,,,,,,,,,,,,,,,,,,,,,,,,,,,,,,,,,,,,,,,,,18,001,1,21,400,550,2022_Oct_10_1312,Experiment,2021.1.4,359.9310372093038,
,,,,,,,,,,,,,,,,,,,,,,,,,,,,,,,,,,,,,,,,,,,,,14,Ashamed,rating,1.0,14.942486600000848,,,,,,,,,,,,,,,,,,,,,,,,,,,,,,,,,,,,,,,,,,,,,,,,,,,,,,,,,,,,,,,,,,,,,,,,,,,,,,,,,,,,,,,,,,,,,,,,,,,,,,,,,,,,,,,,,,,18,001,1,21,400,550,2022_Oct_10_1312,Experiment,2021.1.4,359.9310372093038,
,,,,,,,,,,,,,,,,,,,,,,,,,,,,,,,,,,,,,,,,,,,,,15,Inspired,rating,3.0,11.440719299998818,,,,,,,,,,,,,,,,,,,,,,,,,,,,,,,,,,,,,,,,,,,,,,,,,,,,,,,,,,,,,,,,,,,,,,,,,,,,,,,,,,,,,,,,,,,,,,,,,,,,,,,,,,,,,,,,,,,18,001,1,21,400,550,2022_Oct_10_1312,Experiment,2021.1.4,359.9310372093038,
,,,,,,,,,,,,,,,,,,,,,,,,,,,,,,,,,,,,,,,,,,,,,16,Nervous,rating,2.0,10.328234699998575,,,,,,,,,,,,,,,,,,,,,,,,,,,,,,,,,,,,,,,,,,,,,,,,,,,,,,,,,,,,,,,,,,,,,,,,,,,,,,,,,,,,,,,,,,,,,,,,,,,,,,,,,,,,,,,,,,,18,001,1,21,400,550,2022_Oct_10_1312,Experiment,2021.1.4,359.9310372093038,
,,,,,,,,,,,,,,,,,,,,,,,,,,,,,,,,,,,,,,,,,,,,,17,Determined,rating,3.0,18.56359540000085,,,,,,,,,,,,,,,,,,,,,,,,,,,,,,,,,,,,,,,,,,,,,,,,,,,,,,,,,,,,,,,,,,,,,,,,,,,,,,,,,,,,,,,,,,,,,,,,,,,,,,,,,,,,,,,,,,,18,001,1,21,400,550,2022_Oct_10_1312,Experiment,2021.1.4,359.9310372093038,
,,,,,,,,,,,,,,,,,,,,,,,,,,,,,,,,,,,,,,,,,,,,,18,Attentive,rating,3.0,19.2751059000002,,,,,,,,,,,,,,,,,,,,,,,,,,,,,,,,,,,,,,,,,,,,,,,,,,,,,,,,,,,,,,,,,,,,,,,,,,,,,,,,,,,,,,,,,,,,,,,,,,,,,,,,,,,,,,,,,,,18,001,1,21,400,550,2022_Oct_10_1312,Experiment,2021.1.4,359.9310372093038,
,,,,,,,,,,,,,,,,,,,,,,,,,,,,,,,,,,,,,,,,,,,,,19,Jittery,rating,2.0,20.472804399998495,,,,,,,,,,,,,,,,,,,,,,,,,,,,,,,,,,,,,,,,,,,,,,,,,,,,,,,,,,,,,,,,,,,,,,,,,,,,,,,,,,,,,,,,,,,,,,,,,,,,,,,,,,,,,,,,,,,18,001,1,21,400,550,2022_Oct_10_1312,Experiment,2021.1.4,359.9310372093038,
,,,,,,,,,,,,,,,,,,,,,,,,,,,,,,,,,,,,,,,,,,,,,20,Active,rating,1.0,19.291371499999514,,,,,,,,,,,,,,,,,,,,,,,,,,,,,,,,,,,,,,,,,,,,,,,,,,,,,,,,,,,,,,,,,,,,,,,,,,,,,,,,,,,,,,,,,,,,,,,,,,,,,,,,,,,,,,,,,,,18,001,1,21,400,550,2022_Oct_10_1312,Experiment,2021.1.4,359.9310372093038,
,,,,,,,,,,,,,,,,,,,,,,,,,,,,,,,,,,,,,,,,,,,,,21,Afraid,rating,1.0,13.757567799999379,,,,,,,,,,,,,,,,,,,,,,,,,,,,,,,,,,,,,,,,,,,,,,,,,,,,,,,,,,,,,,,,,,,,,,,,,,,,,,,,,,,,,,,,,,,,,,,,,,,,,,,,,,,,,,,,,,,18,001,1,21,400,550,2022_Oct_10_1312,Experiment,2021.1.4,359.9310372093038,
,,,,,,,,,,,,,,,,,,,,,,,,,,,,,,,,,,,,,,,,,,,,,22,Press the + button to submit your answers,description,,,,,,,,,,,,,,,,,,,,,,,,,,,,,,,,,,,,,,,,,,,,,,,,,,,,,,,,,,,,,,,,,,,,,,,,,,,,,,,,,,,,,,,,,,,,,,,,,,,,,,,,,,,,,,,,,,,,,18,001,1,21,400,550,2022_Oct_10_1312,Experiment,2021.1.4,359.9310372093038,
,,,,,,,,,,,,,,,,,,,,,,,,,,,,,,,,,,,,,,,,,,,,,,,,,,num_add,93.42557829999896,56.94107710000026,None,,,,,,,,,,,,,,,,,,,,,,,,,,,,,,,,,,,,,,,,,,,,,,,,,,,,,,,,,,,,,,,,,,,,,,,,,,,,,,,,,,,,,,,,,,,,,,,,,,,,,,,,,,,,,,,18,001,1,21,400,550,2022_Oct_10_1312,Experiment,2021.1.4,359.9310372093038,
,,,,,,,,,,,,,,,,,,,,,,,,,,,,,,,,,,,,,,,,,,,,,,,,,,,,,,150.39854190000005,None,num_add,15.792237300000124,,,,,,,,,,,,,,,,,,,,,,,,,,,,,,,,,,,,,,,,,,,,,,,,,,,,,,,,,,,,,,,,,,,,,,,,,,,,,,,,,,,,,,,,,,,,,,,,,,,,,,,,,,,18,001,1,21,400,550,2022_Oct_10_1312,Experiment,2021.1.4,359.9310372093038,
,,,,,,,,,,,,,,,,,,,,,,,,,,,,,,,,,,,,,,,,,,,,,,,,,,,,,,,,,,166.1991777000003,None,num_add,11.207477100000688,166.1991777000003,None,,,,,,,,,,,,,,,,,,,,,,,,,,,,,,,,,,,,,,,,,,,,,,,,,,,,,,,,,,,,,,,,,,,,,,,,,,,,,,,,,,,,,,,,,,,,,,,,,,,,,18,001,1,21,400,550,2022_Oct_10_1312,Experiment,2021.1.4,359.9310372093038,
,,,,,,,,,,,,,,,,,,,,,,,,,,,,,,,,,,,,,,,,,,,,,,,,,,,,,,,,,,,,,,,,177.42901669999992,None,num_add,15.193605000000389,,,,,,,,,,,,,,,,,,,,,,,,,,,,,,,,,,,,,,,,,,,,,,,,,,,,,,,,,,,,,,,,,,,,,,,,,,,,,,,,,,,,,,,,,,,,,,,,,18,001,1,21,400,550,2022_Oct_10_1312,Experiment,2021.1.4,359.9310372093038,
,,,,,,,,,,,,,,,,,,,,,,,,,,,,,,,,,,,,,,,,,,,,,,,,,,,,,,,,,,,,,,,,,,,,192.62992660000054,None,space,25.328508099999453,,,,,,,,,,,,,,,,,,,,,,,,,,,,,,,,,,,,,,,,,,,,,,,,,,,,,,,,,,,,,,,,,,,,,,,,,,,,,,,,,,,,,,,,,,,,,18,001,1,21,400,550,2022_Oct_10_1312,Experiment,2021.1.4,359.9310372093038,
images\S22_M_H_02.png,images\S22_M_H_02_scrambled.png,22,Happy,-0.2,M,0,0,practice,off,1,0.5,0.75,0.5,0.883,3,,,,,,,,,,,0,0,0,2,,,,,,,,,,,,,,,,,,,,,,,,,,,,,,,,,,,,,,,,,,,218.17204850000053,218.67748140000003,218.67748140000003,219.42999530000088,219.42999530000088,219.9326430000001,219.9326430000001,220.81847580000067,220.81847580000067,None,num_6,2.396605099998851,220.81847580000067,None,,,,,,,,,,,,,,,,,,,,,,,,,,,,,,,,,,,,,,,,,,,,,,,,,,,,,,,,,,,,,,,,,,,,,,,,,,,,,,,18,001,1,21,400,550,2022_Oct_10_1312,Experiment,2021.1.4,359.9310372093038,
images\S22_M_S_03.png,images\S22_M_S_03_scrambled.png,22,Sad,0.3,M,0,0,practice,on,2,0.5,0.75,0.5,0.794,3,,,,,,,,,,,0,1,1,7,,,,,,,,,,,,,,,,,,,,,,,,,,,,,,,,,,,,,,,,,,,223.32878290000008,223.8314377000006,223.8314377000006,224.58118060000015,224.58118060000015,225.08381910000026,225.08381910000026,225.87801260000015,225.87801260000015,None,num_4,0.8251024000001053,225.87801260000015,None,,,,,,,,,,,,,,,,,,,,,,,,,,,,,,,,,,,,,,,,,,,,,,,,,,,,,,,,,,,,,,,,,,,,,,,,,,,,,,,18,001,1,21,400,550,2022_Oct_10_1312,Experiment,2021.1.4,359.9310372093038,
images\S22_M_S_02.png,images\S22_M_S_02_scrambled.png,22,Sad,0.2,M,0,0,practice,off,1,0.5,0.75,0.5,0.751,3,,,,,,,,,,,0,2,2,3,,,,,,,,,,,,,,,,,,,,,,,,,,,,,,,,,,,,,,,,,,,226.8138308000016,227.31924419999996,227.31924419999996,228.0717654,228.0717654,228.57728020000104,228.57728020000104,229.33252530000027,229.33252530000027,None,num_4,0.4827306999995926,229.33252530000027,None,,,,,,,,,,,,,,,,,,,,,,,,,,,,,,,,,,,,,,,,,,,,,,,,,,,,,,,,,,,,,,,,,,,,,,,,,,,,,,,18,001,1,21,400,550,2022_Oct_10_1312,Experiment,2021.1.4,359.9310372093038,
images\S21_F_H_01.png,images\S21_F_H_01_scrambled.png,21,Happy,-0.1,F,0,0,practice,off,1,0.5,0.75,0.5,0.853,3,,,,,,,,,,,0,3,3,0,,,,,,,,,,,,,,,,,,,,,,,,,,,,,,,,,,,,,,,,,,,229.9323054000015,230.43774480000138,230.43774480000138,231.19029780000164,231.19029780000164,231.69011040000078,231.69011040000078,232.5482107000007,232.5482107000007,None,num_6,0.21078560000023572,232.5482107000007,None,,,,,,,,,,,,,,,,,,,,,,,,,,,,,,,,,,,,,,,,,,,,,,,,,,,,,,,,,,,,,,,,,,,,,,,,,,,,,,,18,001,1,21,400,550,2022_Oct_10_1312,Experiment,2021.1.4,359.9310372093038,
images\S22_M_S_02.png,images\S22_M_S_02_scrambled.png,22,Sad,0.2,M,0,0,practice,on,2,0.5,0.75,0.5,0.783,3,,,,,,,,,,,0,4,4,6,,,,,,,,,,,,,,,,,,,,,,,,,,,,,,,,,,,,,,,,,,,232.81197930000053,233.31742510000004,233.31742510000004,234.07274830000097,234.07274830000097,234.57537990000128,234.57537990000128,235.36131209999985,235.36131209999985,None,num_6,0.7496358999997028,235.36131209999985,None,,,,,,,,,,,,,,,,,,,,,,,,,,,,,,,,,,,,,,,,,,,,,,,,,,,,,,,,,,,,,,,,,,,,,,,,,,,,,,,18,001,1,21,400,550,2022_Oct_10_1312,Experiment,2021.1.4,359.9310372093038,
images\S22_M_S_03.png,images\S22_M_S_03_scrambled.png,22,Sad,0.3,M,0,0,practice,on,2,0.5,0.75,0.5,0.87,3,,,,,,,,,,,0,5,5,4,,,,,,,,,,,,,,,,,,,,,,,,,,,,,,,,,,,,,,,,,,,236.16372430000047,236.66355450000083,236.66355450000083,237.41615170000114,237.41615170000114,237.9187376000009,237.9187376000009,238.78792270000122,238.78792270000122,None,num_6,0.30692479999925126,238.78792270000122,None,,,,,,,,,,,,,,,,,,,,,,,,,,,,,,,,,,,,,,,,,,,,,,,,,,,,,,,,,,,,,,,,,,,,,,,,,,,,,,,18,001,1,21,400,550,2022_Oct_10_1312,Experiment,2021.1.4,359.9310372093038,
images\S22_M_S_01.png,images\S22_M_S_01_scrambled.png,22,Sad,0.1,M,0,0,practice,on,2,0.5,0.75,0.5,0.867,3,,,,,,,,,,,0,6,6,5,,,,,,,,,,,,,,,,,,,,,,,,,,,,,,,,,,,,,,,,,,,239.18499300000076,239.6876478000013,239.6876478000013,240.44022960000075,240.44022960000075,240.94009030000052,240.94009030000052,241.80923130000156,241.80923130000156,None,num_4,0.26986140000008163,241.80923130000156,None,,,,,,,,,,,,,,,,,,,,,,,,,,,,,,,,,,,,,,,,,,,,,,,,,,,,,,,,,,,,,,,,,,,,,,,,,,,,,,,18,001,1,21,400,550,2022_Oct_10_1312,Experiment,2021.1.4,359.9310372093038,
images\S21_F_H_02.png,images\S21_F_H_02_scrambled.png,21,Happy,-0.2,F,0,0,practice,off,1,0.5,0.75,0.5,0.91,3,,,,,,,,,,,0,7,7,1,,,,,,,,,,,,,,,,,,,,,,,,,,,,,,,,,,,,,,,,,,,242.1702120000009,242.672863400001,242.672863400001,243.42260960000021,243.42260960000021,243.92527620000146,243.92527620000146,244.8388541000004,244.8388541000004,None,num_4,2.0007509000006394,244.8388541000004,None,,,,,,,,,,,,,,,,,,,,,,,,,,,,,,,,,,,,,,,,,,,,,,,,,,,,,,,,,,,,,,,,,,,,,,,,,,,,,,,18,001,1,21,400,550,2022_Oct_10_1312,Experiment,2021.1.4,359.9310372093038,
,,,,,,,,,,,,,,,,,,,,,,,,,,,,,,,,,,,,,,,,,,,,,,,,,,,,,,,,,,,,,,,,,,,,,,,,,,,,,,,,,,,,,,246.86596559999998,None,space,60.58039629999985,,,,,,,,,,,,,,,,,,,,,,,,,,,,,,,,,,,,,,,,,,,,,,,,,,,,,,,,,,,,,,,,,,,,,,,,,,,18,001,1,21,400,550,2022_Oct_10_1312,Experiment,2021.1.4,359.9310372093038,
images\S9_F_H_01.png,images\S9_F_H_01_scrambled.png,9,happy,10,female,4,,229,on,2,0.5,0.75,0.5,0.914,3,228,1,1,1,2,2,32,128,164,,,,,,0,0,0,0,,,,,,,,,,,,,,,,,,,,,,,,,,,,,,,,,,,,,,,,,,,,,,,,,,,,,,,,,307.94158360000074,308.44429760000094,308.44429760000094,309.19961970000077,309.19961970000077,309.70236770000156,309.70236770000156,310.61585280000145,310.61585280000145,None,num_6,1.295148599998356,310.61585280000145,None,happy,0,Happy,311.92941767000104,None,None,311.92941767000104,None,,,,,,,,,,,,,,,,,,,,,,,,,,,,,,,,,,,,,,,,,,,,,,,,,,,,,18,001,1,21,400,550,2022_Oct_10_1312,Experiment,2021.1.4,359.9310372093038,
images\S4_M_H_03.png,images\S4_M_H_03_scrambled.png,4,happy,30,male,6,,81,on,2,0.5,0.75,0.5,0.813,3,80,2,1,1,2,2,32,128,166,,,,,,0,1,1,1,,,,,,,,,,,,,,,,,,,,,,,,,,,,,,,,,,,,,,,,,,,,,,,,,,,,,,,,,312.03760780000084,312.53748730000007,312.53748730000007,313.28721829999995,313.28721829999995,313.7898433999999,313.7898433999999,314.6090800000002,314.6090800000002,None,num_6,0.4058433000009245,314.6090800000002,None,happy,0,Happy,315.02837714000015,None,None,315.02837714000015,None,,,,,,,,,,,,,,,,,,,,,,,,,,,,,,,,,,,,,,,,,,,,,,,,,,,,,18,001,1,21,400,550,2022_Oct_10_1312,Experiment,2021.1.4,359.9310372093038,
images\S6_M_H_02.png,images\S6_M_H_02_scrambled.png,6,happy,20,male,5,,32,off,1,0.5,0.75,0.5,0.941,3,31,1,1,1,0,0,0,0,5,,,,,,0,2,2,2,,,,,,,,,,,,,,,,,,,,,,,,,,,,,,,,,,,,,,,,,,,,,,,,,,,,,,,,,315.1422063000009,315.64203120000093,315.64203120000093,316.39186280000104,316.39186280000104,316.8917113000007,316.8917113000007,317.838605500001,317.838605500001,None,num_6,0.40879080000013346,317.838605500001,None,happy,0,Happy,318.2607208400015,None,None,318.2607208400015,None,,,,,,,,,,,,,,,,,,,,,,,,,,,,,,,,,,,,,,,,,,,,,,,,,,,,,18,001,1,21,400,550,2022_Oct_10_1312,Experiment,2021.1.4,359.9310372093038,
images\S4_M_H_02.png,images\S4_M_H_02_scrambled.png,4,happy,20,male,5,,200,on,2,0.5,0.75,0.5,0.765,3,199,1,1,2,2,2,32,128,165,,,,,,0,3,3,3,,,,,,,,,,,,,,,,,,,,,,,,,,,,,,,,,,,,,,,,,,,,,,,,,,,,,,,,,318.3718034000012,318.87442160000137,318.87442160000137,319.629737700001,319.629737700001,320.132477000001,320.132477000001,320.9043631000004,320.9043631000004,None,num_4,0.5586156999997911,320.9043631000004,None,sad,0,Happy,321.47084012000016,None,None,321.47084012000016,None,,,,,,,,,,,,,,,,,,,,,,,,,,,,,,,,,,,,,,,,,,,,,,,,,,,,,18,001,1,21,400,550,2022_Oct_10_1312,Experiment,2021.1.4,359.9310372093038,
images\S2_M_S_03.png,images\S2_M_S_03_scrambled.png,2,sad,-30,male,1,,552,on,2,0.5,0.75,0.5,0.782,3,551,2,1,1,2,2,32,128,161,,,,,,0,4,4,4,,,,,,,,,,,,,,,,,,,,,,,,,,,,,,,,,,,,,,,,,,,,,,,,,,,,,,,,,321.57635030000165,322.0790143000013,322.0790143000013,322.8315397000006,322.8315397000006,323.3314117000009,323.3314117000009,324.11725280000064,324.11725280000064,None,num_4,0.24232519999895885,324.11725280000064,None,sad,0,Sad,324.3811865600008,None,None,324.3811865600008,None,,,,,,,,,,,,,,,,,,,,,,,,,,,,,,,,,,,,,,,,,,,,,,,,,,,,,18,001,1,21,400,550,2022_Oct_10_1312,Experiment,2021.1.4,359.9310372093038,
images\S3_F_H_02.png,images\S3_F_H_02_scrambled.png,3,happy,20,female,5,,374,off,1,0.5,0.75,0.5,0.877,3,373,1,1,1,0,0,0,0,5,,,,,,0,5,5,5,,,,,,,,,,,,,,,,,,,,,,,,,,,,,,,,,,,,,,,,,,,,,,,,,,,,,,,,,324.4893365000007,324.9919535000008,324.9919535000008,325.7417645000005,325.7417645000005,326.24161490000006,326.24161490000006,327.12190010000086,327.12190010000086,None,num_6,0.30958860000100685,327.12190010000086,None,happy,0,Happy,327.4524405600012,None,None,327.4524405600012,None,,,,,,,,,,,,,,,,,,,,,,,,,,,,,,,,,,,,,,,,,,,,,,,,,,,,,18,001,1,21,400,550,2022_Oct_10_1312,Experiment,2021.1.4,359.9310372093038,
images\blank.jpg,images\blank.jpg,none,none,none,none,0,,645,on,2,0.5,0.75,0.5,0.861,0,644,1,1,1,3,3,48,192,240,,,,,,0,6,6,6,,,,,,,,,,,,,,,,,,,,,,,,,,,,,,,,,,,,,,,,,,,,,,,,,,,,,,,,,327.599860100001,328.10490780000146,328.10490780000146,328.8574653000014,328.8574653000014,329.35730950000107,329.35730950000107,330.2209464000007,330.2209464000007,330.2209464000007,None,,330.2209464000007,None,miss,0,,333.2227649100003,None,None,333.2227649100003,None,,,,,,,,,,,,,,,,,,,,,,,,,,,,,,,,,,,,,,,,,,,,,,,,,,,,,18,001,1,21,400,550,2022_Oct_10_1312,Experiment,2021.1.4,359.9310372093038,
images\blank.jpg,images\blank.jpg,none,none,none,none,0,,602,on,2,0.5,0.75,0.5,0.843,0,601,2,2,2,3,3,48,192,240,,,,,,0,7,7,7,,,,,,,,,,,,,,,,,,,,,,,,,,,,,,,,,,,,,,,,,,,,,,,,,,,,,,,,,333.2421955000009,333.7420436000011,333.7420436000011,334.4945892000014,334.4945892000014,334.9973621000008,334.9973621000008,335.84143870000116,335.84143870000116,335.84143870000116,None,,335.84143870000116,333.2421955000009,miss,0,,338.8432748100002,None,None,338.8432748100002,None,,,,,,,,,,,,,,,,,,,,,,,,,,,,,,,,,,,,,,,,,,,,,,,,,,,,,18,001,1,21,400,550,2022_Oct_10_1312,Experiment,2021.1.4,359.9310372093038,
images\S8_M_S_01.png,images\S8_M_S_01_scrambled.png,8,sad,-10,male,3,,526,off,1,0.5,0.75,0.5,0.844,3,525,1,1,1,0,0,0,0,3,,,,,,0,8,8,8,,,,,,,,,,,,,,,,,,,,,,,,,,,,,,,,,,,,,,,,,,,,,,,,,,,,,,,,,339.01564430000144,339.5181650000013,339.5181650000013,340.2706041000001,340.2706041000001,340.77330660000007,340.77330660000007,341.6201858000004,341.6201858000004,None,num_4,0.29088899999987916,341.6201858000004,339.01564430000144,sad,0,Sad,341.92563464000085,None,None,341.92563464000085,None,,,,,,,,,,,,,,,,,,,,,,,,,,,,,,,,,,,,,,,,,,,,,,,,,,,,,18,001,1,21,400,550,2022_Oct_10_1312,Experiment,2021.1.4,359.9310372093038,
images\S2_M_H_03.png,images\S2_M_H_03_scrambled.png,2,happy,30,male,6,,9,off,1,0.5,0.75,0.5,0.834,3,8,2,1,1,0,0,0,0,6,,,,,,0,9,9,9,,,,,,,,,,,,,,,,,,,,,,,,,,,,,,,,,,,,,,,,,,,,,,,,,,,,,,,,,342.03393920000053,342.53936180000164,342.53936180000164,343.2919259999999,343.2919259999999,343.7917759000011,343.7917759000011,344.6277176000003,344.6277176000003,None,num_6,0.16394469999977446,344.6277176000003,None,happy,0,Happy,344.8053309400013,None,None,344.8053309400013,None,,,,,,,,,,,,,,,,,,,,,,,,,,,,,,,,,,,,,,,,,,,,,,,,,,,,,18,001,1,21,400,550,2022_Oct_10_1312,Experiment,2021.1.4,359.9310372093038,
images\S2_M_H_01.png,images\S2_M_H_01_scrambled.png,2,happy,10,male,4,,307,on,2,0.5,0.75,0.5,0.856,3,306,1,2,1,2,2,32,128,164,,,,,,0,10,10,10,,,,,,,,,,,,,,,,,,,,,,,,,,,,,,,,,,,,,,,,,,,,,,,,,,,,,,,,,344.9136092000008,345.41624000000047,345.41624000000047,346.16601140000057,346.16601140000057,346.66867340000135,346.66867340000135,347.5267399000004,347.5267399000004,None,num_6,0.2565116999994643,347.5267399000004,None,happy,0,Happy,347.7960581400013,None,None,347.7960581400013,None,,,,,,,,,,,,,,,,,,,,,,,,,,,,,,,,,,,,,,,,,,,,,,,,,,,,,18,001,1,21,400,550,2022_Oct_10_1312,Experiment,2021.1.4,359.9310372093038,
images\S1_F_H_03.png,images\S1_F_H_03_scrambled.png,1,happy,30,female,6,,543,on,2,0.5,0.75,0.5,0.848,3,542,2,1,1,2,2,32,128,166,,,,,,0,11,11,11,,,,,,,,,,,,,,,,,,,,,,,,,,,,,,,,,,,,,,,,,,,,,,,,,,,,,,,,,347.90711940000074,348.4070055000011,348.4070055000011,349.15678540000044,349.15678540000044,349.6566288000013,349.6566288000013,350.5091468999999,350.5091468999999,None,num_6,0.21010179999939282,350.5091468999999,None,happy,0,Happy,350.734037540001,None,None,350.734037540001,None,,,,,,,,,,,,,,,,,,,,,,,,,,,,,,,,,,,,,,,,,,,,,,,,,,,,,18,001,1,21,400,550,2022_Oct_10_1312,Experiment,2021.1.4,359.9310372093038,
images\S3_F_S_02.png,images\S3_F_S_02_scrambled.png,3,sad,-20,female,2,,257,off,1,0.5,0.75,0.5,0.793,3,256,1,1,1,0,0,0,0,2,,,,,,0,12,12,12,,,,,,,,,,,,,,,,,,,,,,,,,,,,,,,,,,,,,,,,,,,,,,,,,,,,,,,,,350.8450991000009,351.3478651000005,351.3478651000005,352.1031656000014,352.1031656000014,352.6084942000016,352.6084942000016,353.4083083000005,353.4083083000005,None,num_4,0.5267846999995527,353.4083083000005,None,sad,0,Sad,353.95536086000067,None,None,353.95536086000067,None,,,,,,,,,,,,,,,,,,,,,,,,,,,,,,,,,,,,,,,,,,,,,,,,,,,,,18,001,1,21,400,550,2022_Oct_10_1312,Experiment,2021.1.4,359.9310372093038,
images\S2_M_H_01.png,images\S2_M_H_01_scrambled.png,2,happy,10,male,4,,547,on,2,0.5,0.75,0.5,0.774,3,546,1,1,1,2,2,32,128,164,,,,,,0,13,13,13,,,,,,,,,,,,,,,,,,,,,,,,,,,,,,,,,,,,,,,,,,,,,,,,,,,,,,,,,354.00247840000156,354.50235560000147,354.50235560000147,355.2548893000003,355.2548893000003,355.7576353000004,355.7576353000004,356.5322491000006,356.5322491000006,None,num_4,1.0586318000005122,356.5322491000006,None,sad,0,Happy,357.59591072000114,None,None,357.59591072000114,None,,,,,,,,,,,,,,,,,,,,,,,,,,,,,,,,,,,,,,,,,,,,,,,,,,,,,18,001,1,21,400,550,2022_Oct_10_1312,Experiment,2021.1.4,359.9310372093038,
images\S4_M_H_03.png,images\S4_M_H_03_scrambled.png,4,happy,30,male,6,,561,on,2,0.5,0.75,0.5,0.82,3,560,2,1,1,2,2,32,128,166,,,,,,0,14,14,14,,,,,,,,,,,,,,,,,,,,,,,,,,,,,,,,,,,,,,,,,,,,,,,,,,,,,,,,,357.64303740000105,358.1484794000007,358.1484794000007,358.9010276000008,358.9010276000008,359.4036321000003,359.4036321000003,360.22839320000094,360.22839320000094,None,num_6,0.24307330000010552,360.22839320000094,None,happy,0,Happy,360.4977354800016,None,None,360.4977354800016,None,,,,,,,,,,,,,,,,,,,,,,,,,,,,,,,,,,,,,,,,,,,,,,,,,,,,,18,001,1,21,400,550,2022_Oct_10_1312,Experiment,2021.1.4,359.9310372093038,
images\S7_F_S_02.png,images\S7_F_S_02_scrambled.png,7,sad,-20,female,2,,401,off,1,0.5,0.75,0.5,0.874,3,400,1,1,1,0,0,0,0,2,,,,,,0,15,15,15,,,,,,,,,,,,,,,,,,,,,,,,,,,,,,,,,,,,,,,,,,,,,,,,,,,,,,,,,360.60600110000087,361.1086642999999,361.1086642999999,361.86121340000136,361.86121340000136,362.36108010000135,362.36108010000135,363.2385849000002,363.2385849000002,None,num_4,0.24054740000065067,363.2385849000002,None,sad,0,Sad,363.4969076600017,None,None,363.4969076600017,None,,,,,,,,,,,,,,,,,,,,,,,,,,,,,,,,,,,,,,,,,,,,,,,,,,,,,18,001,1,21,400,550,2022_Oct_10_1312,Experiment,2021.1.4,359.9310372093038,
images\S8_M_S_02.png,images\S8_M_S_02_scrambled.png,8,sad,-20,male,2,,527,off,1,0.5,0.75,0.5,0.836,3,526,2,1,2,0,0,0,0,2,,,,,,0,16,16,16,,,,,,,,,,,,,,,,,,,,,,,,,,,,,,,,,,,,,,,,,,,,,,,,,,,,,,,,,363.61612980000064,364.1188473000002,364.1188473000002,364.87141730000076,364.87141730000076,365.37125259999993,365.37125259999993,366.2098620000015,366.2098620000015,None,num_4,0.2528734000006807,366.2098620000015,None,sad,0,Sad,366.4764452400006,None,None,366.4764452400006,None,,,,,,,,,,,,,,,,,,,,,,,,,,,,,,,,,,,,,,,,,,,,,,,,,,,,,18,001,1,21,400,550,2022_Oct_10_1312,Experiment,2021.1.4,359.9310372093038,
images\S3_F_H_03.png,images\S3_F_H_03_scrambled.png,3,happy,30,female,6,,315,on,2,0.5,0.75,0.5,0.752,3,314,1,1,1,2,2,32,128,166,,,,,,0,17,17,17,,,,,,,,,,,,,,,,,,,,,,,,,,,,,,,,,,,,,,,,,,,,,,,,,,,,,,,,,366.58473120000053,367.0873354000014,367.0873354000014,367.8371431000014,367.8371431000014,368.3369937000007,368.3369937000007,369.09230800000114,369.09230800000114,None,num_6,0.35522859999946377,369.09230800000114,None,happy,0,Happy,369.4615794400008,None,None,369.4615794400008,None,,,,,,,,,,,,,,,,,,,,,,,,,,,,,,,,,,,,,,,,,,,,,,,,,,,,,18,001,1,21,400,550,2022_Oct_10_1312,Experiment,2021.1.4,359.9310372093038,
images\S2_M_H_02.png,images\S2_M_H_02_scrambled.png,2,happy,20,male,5,,308,on,2,0.5,0.75,0.5,0.847,3,307,2,1,1,2,2,32,128,165,,,,,,0,18,18,18,,,,,,,,,,,,,,,,,,,,,,,,,,,,,,,,,,,,,,,,,,,,,,,,,,,,,,,,,369.56991150000067,370.0725643000005,370.0725643000005,370.82233369999994,370.82233369999994,371.32217760000094,371.32217760000094,372.1719251000013,372.1719251000013,None,num_6,0.24349350000011327,372.1719251000013,None,happy,0,Happy,372.43017594000156,None,None,372.43017594000156,None,,,,,,,,,,,,,,,,,,,,,,,,,,,,,,,,,,,,,,,,,,,,,,,,,,,,,18,001,1,21,400,550,2022_Oct_10_1312,Experiment,2021.1.4,359.9310372093038,
images\S8_M_S_01.png,images\S8_M_S_01_scrambled.png,8,sad,-10,male,3,,166,off,1,0.5,0.75,0.5,0.872,3,165,1,1,1,0,0,0,0,3,,,,,,0,19,19,19,,,,,,,,,,,,,,,,,,,,,,,,,,,,,,,,,,,,,,,,,,,,,,,,,,,,,,,,,372.47457140000006,372.9772460000004,372.9772460000004,373.7269971000005,373.7269971000005,374.2268548000011,374.2268548000011,375.1015885000015,375.1015885000015,None,num_4,0.29788100000041595,375.1015885000015,None,sad,0,Sad,375.4210557600007,None,None,375.4210557600007,None,,,,,,,,,,,,,,,,,,,,,,,,,,,,,,,,,,,,,,,,,,,,,,,,,,,,,18,001,1,21,400,550,2022_Oct_10_1312,Experiment,2021.1.4,359.9310372093038,
images\S5_F_H_02.png,images\S5_F_H_02_scrambled.png,5,happy,20,female,5,,566,on,2,0.5,0.75,0.5,0.769,3,565,1,1,1,2,2,32,128,165,,,,,,0,20,20,20,,,,,,,,,,,,,,,,,,,,,,,,,,,,,,,,,,,,,,,,,,,,,,,,,,,,,,,,,375.52918910000153,376.03461810000044,376.03461810000044,376.78994520000015,376.78994520000015,377.2897890000004,377.2897890000004,378.05896500000017,378.05896500000017,None,num_6,0.26013849999981176,378.05896500000017,None,happy,0,Happy,378.33387664000037,None,None,378.33387664000037,None,,,,,,,,,,,,,,,,,,,,,,,,,,,,,,,,,,,,,,,,,,,,,,,,,,,,,18,001,1,21,400,550,2022_Oct_10_1312,Experiment,2021.1.4,359.9310372093038,
images\S6_M_H_03.png,images\S6_M_H_03_scrambled.png,6,happy,30,male,6,,213,on,2,0.5,0.75,0.5,0.896,3,212,2,1,1,2,2,32,128,166,,,,,,0,21,21,21,,,,,,,,,,,,,,,,,,,,,,,,,,,,,,,,,,,,,,,,,,,,,,,,,,,,,,,,,378.41719530000046,378.91984180000145,378.91984180000145,379.6723896000003,379.6723896000003,380.17223470000135,380.17223470000135,381.0691532000001,381.0691532000001,None,num_6,0.29775899999913236,381.0691532000001,None,happy,0,Happy,381.38017324000174,None,None,381.38017324000174,None,,,,,,,,,,,,,,,,,,,,,,,,,,,,,,,,,,,,,,,,,,,,,,,,,,,,,18,001,1,21,400,550,2022_Oct_10_1312,Experiment,2021.1.4,359.9310372093038,
images\S1_F_S_01.png,images\S1_F_S_01_scrambled.png,1,sad,-10,female,3,,424,on,2,0.5,0.75,0.5,0.829,3,423,3,1,1,2,2,32,128,163,,,,,,0,22,22,22,,,,,,,,,,,,,,,,,,,,,,,,,,,,,,,,,,,,,,,,,,,,,,,,,,,,,,,,,381.48846650000087,381.9939033999999,381.9939033999999,382.74922940000033,382.74922940000033,383.2490787000006,383.2490787000006,384.0821467000005,384.0821467000005,None,num_4,0.33287879999988945,384.0821467000005,None,sad,0,Sad,384.42928245000166,None,None,384.42928245000166,None,,,,,,,,,,,,,,,,,,,,,,,,,,,,,,,,,,,,,,,,,,,,,,,,,,,,,18,001,1,21,400,550,2022_Oct_10_1312,Experiment,2021.1.4,359.9310372093038,
images\S5_F_S_02.png,images\S5_F_S_02_scrambled.png,5,sad,-20,female,2,,269,off,1,0.5,0.75,0.5,0.768,3,268,1,1,1,0,0,0,0,2,,,,,,0,23,23,23,,,,,,,,,,,,,,,,,,,,,,,,,,,,,,,,,,,,,,,,,,,,,,,,,,,,,,,,,384.5403068000014,385.04307640000115,385.04307640000115,385.79549470000165,385.79549470000165,386.2982010000014,386.2982010000014,387.0701033000005,387.0701033000005,None,num_4,0.30483019999883254,387.0701033000005,None,sad,0,Sad,387.3866903400005,None,None,387.3866903400005,None,,,,,,,,,,,,,,,,,,,,,,,,,,,,,,,,,,,,,,,,,,,,,,,,,,,,,18,001,1,21,400,550,2022_Oct_10_1312,Experiment,2021.1.4,359.9310372093038,
images\S1_F_S_03.png,images\S1_F_S_03_scrambled.png,1,sad,-30,female,1,,486,off,1,0.5,0.75,0.5,0.875,3,485,2,1,1,0,0,0,0,1,,,,,,0,24,24,24,,,,,,,,,,,,,,,,,,,,,,,,,,,,,,,,,,,,,,,,,,,,,,,,,,,,,,,,,387.4949540000016,387.9977295000008,387.9977295000008,388.7473479,388.7473479,389.25290980000136,389.25290980000136,390.12747950000085,390.12747950000085,None,num_4,0.37561839999943913,390.12747950000085,None,sad,0,Sad,390.5162524400013,None,None,390.5162524400013,None,,,,,,,,,,,,,,,,,,,,,,,,,,,,,,,,,,,,,,,,,,,,,,,,,,,,,18,001,1,21,400,550,2022_Oct_10_1312,Experiment,2021.1.4,359.9310372093038,
images\S2_M_H_02.png,images\S2_M_H_02_scrambled.png,2,happy,20,male,5,,68,on,2,0.5,0.75,0.5,0.816,3,67,1,1,1,2,2,32,128,165,,,,,,0,25,25,25,,,,,,,,,,,,,,,,,,,,,,,,,,,,,,,,,,,,,,,,,,,,,,,,,,,,,,,,,390.5607484000011,391.0633581000002,391.0633581000002,391.8158904000011,391.8158904000011,392.31852620000063,392.31852620000063,393.1377972999999,393.1377972999999,None,num_6,0.29315390000010666,393.1377972999999,None,happy,0,Happy,393.4458709400016,None,None,393.4458709400016,None,,,,,,,,,,,,,,,,,,,,,,,,,,,,,,,,,,,,,,,,,,,,,,,,,,,,,18,001,1,21,400,550,2022_Oct_10_1312,Experiment,2021.1.4,359.9310372093038,
images\S8_M_S_01.png,images\S8_M_S_01_scrambled.png,8,sad,-10,male,3,,466,on,2,0.5,0.75,0.5,0.758,3,465,2,1,1,2,2,32,128,163,,,,,,0,26,26,26,,,,,,,,,,,,,,,,,,,,,,,,,,,,,,,,,,,,,,,,,,,,,,,,,,,,,,,,,393.4931016999999,393.99855130000105,393.99855130000105,394.7511123000004,394.7511123000004,395.25371410000116,395.25371410000116,396.0145848000011,396.0145848000011,None,num_4,0.3203632999993715,396.0145848000011,None,sad,0,Sad,396.3505639400002,None,None,396.3505639400002,None,,,,,,,,,,,,,,,,,,,,,,,,,,,,,,,,,,,,,,,,,,,,,,,,,,,,,18,001,1,21,400,550,2022_Oct_10_1312,Experiment,2021.1.4,359.9310372093038,
images\S5_F_H_03.png,images\S5_F_H_03_scrambled.png,5,happy,30,female,6,,267,off,1,0.5,0.75,0.5,0.908,3,266,1,1,1,0,0,0,0,6,,,,,,0,27,27,27,,,,,,,,,,,,,,,,,,,,,,,,,,,,,,,,,,,,,,,,,,,,,,,,,,,,,,,,,396.43387560000156,396.9337247000003,396.9337247000003,397.686302600001,397.686302600001,398.18613220000043,398.18613220000043,399.09697790000064,399.09697790000064,None,num_6,0.22214440000061586,399.09697790000064,None,happy,0,Happy,399.33576014000136,None,None,399.33576014000136,None,,,,,,,,,,,,,,,,,,,,,,,,,,,,,,,,,,,,,,,,,,,,,,,,,,,,,18,001,1,21,400,550,2022_Oct_10_1312,Experiment,2021.1.4,359.9310372093038,
images\S10_M_S_02.png,images\S10_M_S_02_scrambled.png,10,sad,-20,male,2,,119,on,2,0.5,0.75,0.5,0.901,3,118,1,1,1,2,2,32,128,162,,,,,,0,28,28,28,,,,,,,,,,,,,,,,,,,,,,,,,,,,,,,,,,,,,,,,,,,,,,,,,,,,,,,,,399.4440560000003,399.94948380000096,399.94948380000096,400.7020276000003,400.7020276000003,401.2018957,401.2018957,402.1071643000014,402.1071643000014,None,num_4,0.4198353000010684,402.1071643000014,None,sad,0,Sad,402.5403336400006,None,None,402.5403336400006,None,,,,,,,,,,,,,,,,,,,,,,,,,,,,,,,,,,,,,,,,,,,,,,,,,,,,,18,001,1,21,400,550,2022_Oct_10_1312,Experiment,2021.1.4,359.9310372093038,
images\S10_M_S_03.png,images\S10_M_S_03_scrambled.png,10,sad,-30,male,1,,600,on,2,0.5,0.75,0.5,0.911,3,599,2,2,1,2,2,32,128,161,,,,,,0,29,29,29,,,,,,,,,,,,,,,,,,,,,,,,,,,,,,,,,,,,,,,,,,,,,,,,,,,,,,,,,402.6486267,403.154062900001,403.154062900001,403.90661570000157,403.90661570000157,404.40645900000163,404.40645900000163,405.3172527000006,405.3172527000006,None,num_4,0.19378490000053716,405.3172527000006,None,sad,0,Sad,405.5255452400008,None,None,405.5255452400008,None,,,,,,,,,,,,,,,,,,,,,,,,,,,,,,,,,,,,,,,,,,,,,,,,,,,,,18,001,1,21,400,550,2022_Oct_10_1312,Experiment,2021.1.4,359.9310372093038,
images\S1_F_S_02.png,images\S1_F_S_02_scrambled.png,1,sad,-20,female,2,,305,on,2,0.5,0.75,0.5,0.855,3,304,3,1,1,2,2,32,128,162,,,,,,0,30,30,30,,,,,,,,,,,,,,,,,,,,,,,,,,,,,,,,,,,,,,,,,,,,,,,,,,,,,,,,,405.6338187000001,406.1392584000005,406.1392584000005,406.894573900001,406.894573900001,407.3971923000008,407.3971923000008,408.2552480000013,408.2552480000013,None,num_6,0.527771600000051,408.2552480000013,None,happy,0,Sad,408.7939498300015,None,None,408.7939498300015,None,,,,,,,,,,,,,,,,,,,,,,,,,,,,,,,,,,,,,,,,,,,,,,,,,,,,,18,001,1,21,400,550,2022_Oct_10_1312,Experiment,2021.1.4,359.9310372093038,
images\S5_F_S_03.png,images\S5_F_S_03_scrambled.png,5,sad,-30,female,1,,390,off,1,0.5,0.75,0.5,0.927,3,389,1,1,1,0,0,0,0,1,,,,,,0,31,31,31,,,,,,,,,,,,,,,,,,,,,,,,,,,,,,,,,,,,,,,,,,,,,,,,,,,,,,,,,408.9050334000003,409.40768670000034,409.40768670000034,410.1574552000002,410.1574552000002,410.6573070000013,410.6573070000013,411.5876806000015,411.5876806000015,None,num_4,0.2831506000002264,411.5876806000015,None,sad,0,Sad,411.8930974800009,None,None,411.8930974800009,None,,,,,,,,,,,,,,,,,,,,,,,,,,,,,,,,,,,,,,,,,,,,,,,,,,,,,18,001,1,21,400,550,2022_Oct_10_1312,Experiment,2021.1.4,359.9310372093038,
images\S5_F_S_02.png,images\S5_F_S_02_scrambled.png,5,sad,-20,female,2,,509,off,1,0.5,0.75,0.5,0.841,3,508,2,2,1,0,0,0,0,2,,,,,,0,32,32,32,,,,,,,,,,,,,,,,,,,,,,,,,,,,,,,,,,,,,,,,,,,,,,,,,,,,,,,,,411.9429889000003,412.44843460000084,412.44843460000084,413.203766300001,413.203766300001,413.7091526000004,413.7091526000004,414.5533572000004,414.5533572000004,None,num_4,0.7100726999997278,414.5533572000004,None,sad,0,Sad,415.28373055000066,None,None,415.28373055000066,None,,,,,,,,,,,,,,,,,,,,,,,,,,,,,,,,,,,,,,,,,,,,,,,,,,,,,18,001,1,21,400,550,2022_Oct_10_1312,Experiment,2021.1.4,359.9310372093038,
images\S3_F_H_01.png,images\S3_F_H_01_scrambled.png,3,happy,10,female,4,,193,on,2,0.5,0.75,0.5,0.766,3,192,1,1,1,2,2,32,128,164,,,,,,0,33,33,33,,,,,,,,,,,,,,,,,,,,,,,,,,,,,,,,,,,,,,,,,,,,,,,,,,,,,,,,,415.39469629999985,415.8973237000009,415.8973237000009,416.64710080000077,416.64710080000077,417.14696750000076,417.14696750000076,417.91896690000067,417.91896690000067,None,num_6,0.24783469999965746,417.91896690000067,None,happy,0,Happy,418.18003155000133,None,None,418.18003155000133,None,,,,,,,,,,,,,,,,,,,,,,,,,,,,,,,,,,,,,,,,,,,,,,,,,,,,,18,001,1,21,400,550,2022_Oct_10_1312,Experiment,2021.1.4,359.9310372093038,
images\S9_F_H_01.png,images\S9_F_H_01_scrambled.png,9,happy,10,female,4,,109,on,2,0.5,0.75,0.5,0.916,3,108,2,1,2,2,2,32,128,164,,,,,,0,34,34,34,,,,,,,,,,,,,,,,,,,,,,,,,,,,,,,,,,,,,,,,,,,,,,,,,,,,,,,,,418.24382610000066,418.7492710000006,418.7492710000006,419.5017990000015,419.5017990000015,420.0016618000009,420.0016618000009,420.92359880000004,420.92359880000004,None,num_6,0.2513472999999067,420.92359880000004,None,happy,0,Happy,421.19576327000016,None,None,421.19576327000016,None,,,,,,,,,,,,,,,,,,,,,,,,,,,,,,,,,,,,,,,,,,,,,,,,,,,,,18,001,1,21,400,550,2022_Oct_10_1312,Experiment,2021.1.4,359.9310372093038,
images\S8_M_S_02.png,images\S8_M_S_02_scrambled.png,8,sad,-20,male,2,,167,off,1,0.5,0.75,0.5,0.855,3,166,1,1,1,0,0,0,0,2,,,,,,0,35,35,35,,,,,,,,,,,,,,,,,,,,,,,,,,,,,,,,,,,,,,,,,,,,,,,,,,,,,,,,,421.2485007000014,421.7538936000001,421.7538936000001,422.5064448000012,422.5064448000012,423.00630869999986,423.00630869999986,423.8643451000007,423.8643451000007,None,num_4,0.2712004999993951,423.8643451000007,None,sad,0,Sad,424.15034183999995,None,None,424.15034183999995,None,,,,,,,,,,,,,,,,,,,,,,,,,,,,,,,,,,,,,,,,,,,,,,,,,,,,,18,001,1,21,400,550,2022_Oct_10_1312,Experiment,2021.1.4,359.9310372093038,
images\blank.jpg,images\blank.jpg,none,none,none,none,0,,640,on,2,0.5,0.75,0.5,0.841,0,639,1,1,1,3,3,48,192,240,,,,,,0,36,36,36,,,,,,,,,,,,,,,,,,,,,,,,,,,,,,,,,,,,,,,,,,,,,,,,,,,,,,,,,424.2477604000014,424.75018160000036,424.75018160000036,425.5027273000014,425.5027273000014,426.00820550000026,426.00820550000026,426.85242480000124,426.85242480000124,426.85242480000124,None,,426.85242480000124,None,miss,0,,429.8541600100014,None,None,429.8541600100014,None,,,,,,,,,,,,,,,,,,,,,,,,,,,,,,,,,,,,,,,,,,,,,,,,,,,,,18,001,1,21,400,550,2022_Oct_10_1312,Experiment,2021.1.4,359.9310372093038,
images\S1_F_H_03.png,images\S1_F_H_03_scrambled.png,1,happy,30,female,6,,243,off,1,0.5,0.75,0.5,0.758,3,242,1,1,1,0,0,0,0,6,,,,,,0,37,37,37,,,,,,,,,,,,,,,,,,,,,,,,,,,,,,,,,,,,,,,,,,,,,,,,,,,,,,,,,429.96818710000116,430.4734693999999,430.4734693999999,431.22878740000124,431.22878740000124,431.7314056000014,431.7314056000014,432.49234350000006,432.49234350000006,None,num_6,0.08254790000137291,432.49234350000006,429.96818710000116,happy,0,Happy,432.5895001500003,None,None,432.5895001500003,None,,,,,,,,,,,,,,,,,,,,,,,,,,,,,,,,,,,,,,,,,,,,,,,,,,,,,18,001,1,21,400,550,2022_Oct_10_1312,Experiment,2021.1.4,359.9310372093038,
images\S6_M_S_03.png,images\S6_M_S_03_scrambled.png,6,sad,-30,male,1,,156,off,1,0.5,0.75,0.5,0.924,3,155,2,1,1,0,0,0,0,1,,,,,,0,38,38,38,,,,,,,,,,,,,,,,,,,,,,,,,,,,,,,,,,,,,,,,,,,,,,,,,,,,,,,,,432.7004944,433.2031979000003,433.2031979000003,433.9584840000007,433.9584840000007,434.4611109000016,434.4611109000016,435.3886086000002,435.3886086000002,None,num_4,0.21047050000015588,435.3886086000002,None,sad,0,Sad,435.61638166000085,None,None,435.61638166000085,None,,,,,,,,,,,,,,,,,,,,,,,,,,,,,,,,,,,,,,,,,,,,,,,,,,,,,18,001,1,21,400,550,2022_Oct_10_1312,Experiment,2021.1.4,359.9310372093038,
images\S5_F_S_01.png,images\S5_F_S_01_scrambled.png,5,sad,-10,female,3,,88,on,2,0.5,0.75,0.5,0.859,3,87,1,1,1,2,2,32,128,163,,,,,,0,39,39,39,,,,,,,,,,,,,,,,,,,,,,,,,,,,,,,,,,,,,,,,,,,,,,,,,,,,,,,,,435.72456500000044,436.2272197000002,436.2272197000002,436.97698820000005,436.97698820000005,437.4768414000009,437.4768414000009,438.33780110000043,438.33780110000043,None,num_6,0.44532670000080543,438.33780110000043,None,happy,0,Sad,438.7876156200015,None,None,438.7876156200015,None,,,,,,,,,,,,,,,,,,,,,,,,,,,,,,,,,,,,,,,,,,,,,,,,,,,,,18,001,1,21,400,550,2022_Oct_10_1312,Experiment,2021.1.4,359.9310372093038,
images\S3_F_S_01.png,images\S3_F_S_01_scrambled.png,3,sad,-10,female,3,,76,on,2,0.5,0.75,0.5,0.912,3,75,2,1,2,2,2,32,128,163,,,,,,0,40,40,40,,,,,,,,,,,,,,,,,,,,,,,,,,,,,,,,,,,,,,,,,,,,,,,,,,,,,,,,,438.87359730000026,439.37903000000006,439.37903000000006,440.12877070000104,440.12877070000104,440.62864850000005,440.62864850000005,441.54501620000156,441.54501620000156,None,num_4,0.2463069000004907,441.54501620000156,None,sad,0,Sad,441.80604884000167,None,None,441.80604884000167,None,,,,,,,,,,,,,,,,,,,,,,,,,,,,,,,,,,,,,,,,,,,,,,,,,,,,,18,001,1,21,400,550,2022_Oct_10_1312,Experiment,2021.1.4,359.9310372093038,
images\S7_F_S_01.png,images\S7_F_S_01_scrambled.png,7,sad,-10,female,3,,280,off,1,0.5,0.75,0.5,0.918,3,279,1,1,3,0,0,0,0,3,,,,,,0,41,41,41,,,,,,,,,,,,,,,,,,,,,,,,,,,,,,,,,,,,,,,,,,,,,,,,,,,,,,,,,441.91432780000105,442.41416840000056,442.41416840000056,443.16675300000134,443.16675300000134,443.66660390000106,443.66660390000106,444.58856190000006,444.58856190000006,None,num_4,0.2504195000001346,444.58856190000006,None,sad,0,Sad,444.8606947700015,None,None,444.8606947700015,None,,,,,,,,,,,,,,,,,,,,,,,,,,,,,,,,,,,,,,,,,,,,,,,,,,,,,18,001,1,21,400,550,2022_Oct_10_1312,Experiment,2021.1.4,359.9310372093038,
images\S9_F_S_03.png,images\S9_F_S_03_scrambled.png,9,sad,-30,female,1,,474,on,2,0.5,0.75,0.5,0.809,3,473,1,1,1,2,2,32,128,161,,,,,,0,42,42,42,,,,,,,,,,,,,,,,,,,,,,,,,,,,,,,,,,,,,,,,,,,,,,,,,,,,,,,,,444.9744883000003,445.4743382000015,445.4743382000015,446.2241098000013,446.2241098000013,446.7239918000014,446.7239918000014,447.53483810000034,447.53483810000034,None,num_4,0.22413099999903352,447.53483810000034,None,sad,0,Sad,447.77090854000124,None,None,447.77090854000124,None,,,,,,,,,,,,,,,,,,,,,,,,,,,,,,,,,,,,,,,,,,,,,,,,,,,,,18,001,1,21,400,550,2022_Oct_10_1312,Experiment,2021.1.4,359.9310372093038,
images\blank.jpg,images\blank.jpg,none,none,none,none,0,,630,on,2,0.5,0.75,0.5,0.891,0,629,2,1,1,3,3,48,192,240,,,,,,0,43,43,43,,,,,,,,,,,,,,,,,,,,,,,,,,,,,,,,,,,,,,,,,,,,,,,,,,,,,,,,,447.85160520000136,448.35405020000144,448.35405020000144,449.1066006000001,449.1066006000001,449.6064417000016,449.6064417000016,450.50066620000143,450.50066620000143,450.50066620000143,None,,450.50066620000143,None,miss,0,,453.5025934199999,None,None,453.5025934199999,None,,,,,,,,,,,,,,,,,,,,,,,,,,,,,,,,,,,,,,,,,,,,,,,,,,,,,18,001,1,21,400,550,2022_Oct_10_1312,Experiment,2021.1.4,359.9310372093038,
images\S4_M_H_02.png,images\S4_M_H_02_scrambled.png,4,happy,20,male,5,,560,on,2,0.5,0.75,0.5,0.787,3,559,3,1,1,2,2,32,128,165,,,,,,0,44,44,44,,,,,,,,,,,,,,,,,,,,,,,,,,,,,,,,,,,,,,,,,,,,,,,,,,,,,,,,,453.62746400000105,454.1272632,454.1272632,454.8769992000016,454.8769992000016,455.37689070000124,455.37689070000124,456.16833600000064,456.16833600000064,None,num_4,0.25459460000092804,456.16833600000064,453.62746400000105,sad,0,Happy,456.432084220001,None,None,456.432084220001,None,,,,,,,,,,,,,,,,,,,,,,,,,,,,,,,,,,,,,,,,,,,,,,,,,,,,,18,001,1,21,400,550,2022_Oct_10_1312,Experiment,2021.1.4,359.9310372093038,
images\S4_M_H_03.png,images\S4_M_H_03_scrambled.png,4,happy,30,male,6,,201,on,2,0.5,0.75,0.5,0.903,3,200,4,2,1,2,2,32,128,166,,,,,,0,45,45,45,,,,,,,,,,,,,,,,,,,,,,,,,,,,,,,,,,,,,,,,,,,,,,,,,,,,,,,,,456.47929850000037,456.9847212000004,456.9847212000004,457.73726890000034,457.73726890000034,458.237126,458.237126,459.142504200001,459.142504200001,None,num_6,0.20083840000006603,459.142504200001,None,happy,0,Happy,459.36189386000007,None,None,459.36189386000007,None,,,,,,,,,,,,,,,,,,,,,,,,,,,,,,,,,,,,,,,,,,,,,,,,,,,,,18,001,1,21,400,550,2022_Oct_10_1312,Experiment,2021.1.4,359.9310372093038,
images\S5_F_S_03.png,images\S5_F_S_03_scrambled.png,5,sad,-30,female,1,,210,on,2,0.5,0.75,0.5,0.784,3,209,5,1,1,2,2,32,128,161,,,,,,0,46,46,46,,,,,,,,,,,,,,,,,,,,,,,,,,,,,,,,,,,,,,,,,,,,,,,,,,,,,,,,,459.4117229000003,459.91438350000135,459.91438350000135,460.6669331000012,460.6669331000012,461.1667766999999,461.1667766999999,461.95274490000156,461.95274490000156,None,num_4,0.48619659999894793,461.95274490000156,None,sad,0,Sad,462.4496929400004,None,None,462.4496929400004,None,,,,,,,,,,,,,,,,,,,,,,,,,,,,,,,,,,,,,,,,,,,,,,,,,,,,,18,001,1,21,400,550,2022_Oct_10_1312,Experiment,2021.1.4,359.9310372093038,
images\S1_F_S_03.png,images\S1_F_S_03_scrambled.png,1,sad,-30,female,1,,6,off,1,0.5,0.75,0.5,0.871,3,5,1,1,2,0,0,0,0,1,,,,,,0,47,47,47,,,,,,,,,,,,,,,,,,,,,,,,,,,,,,,,,,,,,,,,,,,,,,,,,,,,,,,,,462.5135430999999,463.01898299999993,463.01898299999993,463.7743100000007,463.7743100000007,464.27414670000144,464.27414670000144,465.1488833000003,465.1488833000003,None,num_4,0.29020440000022063,465.1488833000003,None,sad,0,Sad,465.4572203600008,None,None,465.4572203600008,None,,,,,,,,,,,,,,,,,,,,,,,,,,,,,,,,,,,,,,,,,,,,,,,,,,,,,18,001,1,21,400,550,2022_Oct_10_1312,Experiment,2021.1.4,359.9310372093038,
images\S3_F_S_03.png,images\S3_F_S_03_scrambled.png,3,sad,-30,female,1,,198,on,2,0.5,0.75,0.5,0.932,3,197,1,1,3,2,2,32,128,161,,,,,,0,48,48,48,,,,,,,,,,,,,,,,,,,,,,,,,,,,,,,,,,,,,,,,,,,,,,,,,,,,,,,,,465.56538210000144,466.0681123000013,466.0681123000013,466.8178048000009,466.8178048000009,467.3232650000009,467.3232650000009,468.2590385000003,468.2590385000003,None,num_4,0.22795439999936207,468.2590385000003,None,sad,0,Sad,468.51180677000104,None,None,468.51180677000104,None,,,,,,,,,,,,,,,,,,,,,,,,,,,,,,,,,,,,,,,,,,,,,,,,,,,,,18,001,1,21,400,550,2022_Oct_10_1312,Experiment,2021.1.4,359.9310372093038,
images\S4_M_S_02.png,images\S4_M_S_02_scrambled.png,4,sad,-20,male,2,,323,on,2,0.5,0.75,0.5,0.911,3,322,2,1,1,2,2,32,128,162,,,,,,0,49,49,49,,,,,,,,,,,,,,,,,,,,,,,,,,,,,,,,,,,,,,,,,,,,,,,,,,,,,,,,,468.62278310000147,469.1282461999999,469.1282461999999,469.87792160000026,469.87792160000026,470.38338600000134,470.38338600000134,471.29698270000154,471.29698270000154,None,num_4,0.2540761999989627,471.29698270000154,None,sad,0,Sad,471.5691931500014,None,None,471.5691931500014,None,,,,,,,,,,,,,,,,,,,,,,,,,,,,,,,,,,,,,,,,,,,,,,,,,,,,,18,001,1,21,400,550,2022_Oct_10_1312,Experiment,2021.1.4,359.9310372093038,
images\S6_M_S_02.png,images\S6_M_S_02_scrambled.png,6,sad,-20,male,2,,455,on,2,0.5,0.75,0.5,0.751,3,454,3,1,2,2,2,32,128,162,,,,,,0,50,50,50,,,,,,,,,,,,,,,,,,,,,,,,,,,,,,,,,,,,,,,,,,,,,,,,,,,,,,,,,471.6801694000005,472.18292610000026,472.18292610000026,472.93535350000093,472.93535350000093,473.43809839999994,473.43809839999994,474.1905153000007,474.1905153000007,None,num_4,0.22433359999922686,474.1905153000007,None,sad,0,Sad,474.42660924000046,None,None,474.42660924000046,None,,,,,,,,,,,,,,,,,,,,,,,,,,,,,,,,,,,,,,,,,,,,,,,,,,,,,18,001,1,21,400,550,2022_Oct_10_1312,Experiment,2021.1.4,359.9310372093038,
images\S2_M_H_01.png,images\S2_M_H_01_scrambled.png,2,happy,10,male,4,,67,on,2,0.5,0.75,0.5,0.762,3,66,4,1,1,2,2,32,128,164,,,,,,0,51,51,51,,,,,,,,,,,,,,,,,,,,,,,,,,,,,,,,,,,,,,,,,,,,,,,,,,,,,,,,,474.4765337000008,474.9791847000015,474.9791847000015,475.7289352000007,475.7289352000007,476.2287559000015,476.2287559000015,476.99808010000015,476.99808010000015,None,num_4,0.257215499999802,476.99808010000015,None,sad,0,Happy,477.2646800200015,None,None,477.2646800200015,None,,,,,,,,,,,,,,,,,,,,,,,,,,,,,,,,,,,,,,,,,,,,,,,,,,,,,18,001,1,21,400,550,2022_Oct_10_1312,Experiment,2021.1.4,359.9310372093038,
images\S7_F_S_01.png,images\S7_F_S_01_scrambled.png,7,sad,-10,female,3,,400,off,1,0.5,0.75,0.5,0.92,3,399,1,1,1,0,0,0,0,3,,,,,,0,52,52,52,,,,,,,,,,,,,,,,,,,,,,,,,,,,,,,,,,,,,,,,,,,,,,,,,,,,,,,,,477.3201052000004,477.82287350000115,477.82287350000115,478.5725204999999,478.5725204999999,479.0751138000014,479.0751138000014,479.9942972000008,479.9942972000008,None,num_6,0.46861899999930756,479.9942972000008,None,happy,0,Sad,480.4719445200004,None,None,480.4719445200004,None,,,,,,,,,,,,,,,,,,,,,,,,,,,,,,,,,,,,,,,,,,,,,,,,,,,,,18,001,1,21,400,550,2022_Oct_10_1312,Experiment,2021.1.4,359.9310372093038,
images\S8_M_H_02.png,images\S8_M_H_02_scrambled.png,8,happy,20,male,5,,464,on,2,0.5,0.75,0.5,0.805,3,463,1,1,1,2,2,32,128,165,,,,,,0,53,53,53,,,,,,,,,,,,,,,,,,,,,,,,,,,,,,,,,,,,,,,,,,,,,,,,,,,,,,,,,480.58020340000076,481.0829644000005,481.0829644000005,481.8382500000007,481.8382500000007,482.3436163000006,482.3436163000006,483.1516784000014,483.1516784000014,None,num_6,0.2552513999999064,483.1516784000014,None,happy,0,Happy,483.42386585000077,None,None,483.42386585000077,None,,,,,,,,,,,,,,,,,,,,,,,,,,,,,,,,,,,,,,,,,,,,,,,,,,,,,18,001,1,21,400,550,2022_Oct_10_1312,Experiment,2021.1.4,359.9310372093038,
images\S3_F_H_02.png,images\S3_F_H_02_scrambled.png,3,happy,20,female,5,,314,on,2,0.5,0.75,0.5,0.864,3,313,2,1,2,2,2,32,128,165,,,,,,0,54,54,54,,,,,,,,,,,,,,,,,,,,,,,,,,,,,,,,,,,,,,,,,,,,,,,,,,,,,,,,,483.48765750000166,483.99315190000016,483.99315190000016,484.7484239000005,484.7484239000005,485.2538112000002,485.2538112000002,486.12019320000036,486.12019320000036,None,num_6,0.2309119000001374,486.12019320000036,None,happy,0,Happy,486.36179334000116,None,None,486.36179334000116,None,,,,,,,,,,,,,,,,,,,,,,,,,,,,,,,,,,,,,,,,,,,,,,,,,,,,,18,001,1,21,400,550,2022_Oct_10_1312,Experiment,2021.1.4,359.9310372093038,
images\S3_F_H_03.png,images\S3_F_H_03_scrambled.png,3,happy,30,female,6,,495,off,1,0.5,0.75,0.5,0.792,3,494,1,2,1,0,0,0,0,6,,,,,,0,55,55,55,,,,,,,,,,,,,,,,,,,,,,,,,,,,,,,,,,,,,,,,,,,,,,,,,,,,,,,,,486.4089754000015,486.9088188000005,486.9088188000005,487.65859570000066,487.65859570000066,488.1612496000016,488.1612496000016,488.95827310000095,488.95827310000095,None,num_6,0.40055609999944863,488.95827310000095,None,happy,0,Happy,489.3719220400009,None,None,489.3719220400009,None,,,,,,,,,,,,,,,,,,,,,,,,,,,,,,,,,,,,,,,,,,,,,,,,,,,,,18,001,1,21,400,550,2022_Oct_10_1312,Experiment,2021.1.4,359.9310372093038,
images\S6_M_S_02.png,images\S6_M_S_02_scrambled.png,6,sad,-20,male,2,,395,off,1,0.5,0.75,0.5,0.874,3,394,2,1,1,0,0,0,0,2,,,,,,0,56,56,56,,,,,,,,,,,,,,,,,,,,,,,,,,,,,,,,,,,,,,,,,,,,,,,,,,,,,,,,,489.41915960000006,489.9189927000007,489.9189927000007,490.67159690000153,490.67159690000153,491.1714370000009,491.1714370000009,492.0489412000006,492.0489412000006,None,num_4,0.2544541000006575,492.0489412000006,None,sad,0,Sad,492.3156199400011,None,None,492.3156199400011,None,,,,,,,,,,,,,,,,,,,,,,,,,,,,,,,,,,,,,,,,,,,,,,,,,,,,,18,001,1,21,400,550,2022_Oct_10_1312,Experiment,2021.1.4,359.9310372093038,
images\S8_M_H_01.png,images\S8_M_H_01_scrambled.png,8,happy,10,male,4,,223,on,2,0.5,0.75,0.5,0.864,3,222,1,1,1,2,2,32,128,164,,,,,,0,57,57,57,,,,,,,,,,,,,,,,,,,,,,,,,,,,,,,,,,,,,,,,,,,,,,,,,,,,,,,,,492.40156770000067,492.90422780000154,492.90422780000154,493.6567817000014,493.6567817000014,494.16218500000105,494.16218500000105,495.0285980000008,495.0285980000008,None,num_4,0.2829948999988119,495.0285980000008,None,sad,0,Happy,495.32013102000167,None,None,495.32013102000167,None,,,,,,,,,,,,,,,,,,,,,,,,,,,,,,,,,,,,,,,,,,,,,,,,,,,,,18,001,1,21,400,550,2022_Oct_10_1312,Experiment,2021.1.4,359.9310372093038,
images\S3_F_S_01.png,images\S3_F_S_01_scrambled.png,3,sad,-10,female,3,,16,off,1,0.5,0.75,0.5,0.812,3,15,1,1,1,0,0,0,0,3,,,,,,0,58,58,58,,,,,,,,,,,,,,,,,,,,,,,,,,,,,,,,,,,,,,,,,,,,,,,,,,,,,,,,,495.3839897000016,495.88383280000016,495.88383280000016,496.6364229999999,496.6364229999999,497.1362828000001,497.1362828000001,497.95266210000045,497.95266210000045,None,num_4,0.21413310000025376,497.95266210000045,None,sad,0,Sad,498.18037874000146,None,None,498.18037874000146,None,,,,,,,,,,,,,,,,,,,,,,,,,,,,,,,,,,,,,,,,,,,,,,,,,,,,,18,001,1,21,400,550,2022_Oct_10_1312,Experiment,2021.1.4,359.9310372093038,
images\blank.jpg,images\blank.jpg,none,none,none,none,0,,632,on,2,0.5,0.75,0.5,0.781,0,631,1,1,1,3,3,48,192,240,,,,,,0,59,59,59,,,,,,,,,,,,,,,,,,,,,,,,,,,,,,,,,,,,,,,,,,,,,,,,,,,,,,,,,498.2610832999999,498.76354790000005,498.76354790000005,499.51328470000044,499.51328470000044,500.0187126000001,500.0187126000001,500.80191490000107,500.80191490000107,500.80191490000107,None,,500.80191490000107,None,miss,0,,503.8036332100017,None,None,503.8036332100017,None,,,,,,,,,,,,,,,,,,,,,,,,,,,,,,,,,,,,,,,,,,,,,,,,,,,,,18,001,1,21,400,550,2022_Oct_10_1312,Experiment,2021.1.4,359.9310372093038,
images\S8_M_H_02.png,images\S8_M_H_02_scrambled.png,8,happy,20,male,5,,344,on,2,0.5,0.75,0.5,0.793,3,343,2,1,1,2,2,32,128,165,,,,,,0,60,60,60,,,,,,,,,,,,,,,,,,,,,,,,,,,,,,,,,,,,,,,,,,,,,,,,,,,,,,,,,503.91756030000033,504.41734970000107,504.41734970000107,505.16712180000104,505.16712180000104,505.6669656000013,505.6669656000013,506.4639564000008,506.4639564000008,None,num_6,0.24701660000027914,506.4639564000008,503.91756030000033,happy,0,Happy,506.72223073999993,None,None,506.72223073999993,None,,,,,,,,,,,,,,,,,,,,,,,,,,,,,,,,,,,,,,,,,,,,,,,,,,,,,18,001,1,21,400,550,2022_Oct_10_1312,Experiment,2021.1.4,359.9310372093038,
images\S9_F_S_02.png,images\S9_F_S_02_scrambled.png,9,sad,-20,female,2,,293,off,1,0.5,0.75,0.5,0.855,3,292,1,1,1,0,0,0,0,2,,,,,,0,61,61,61,,,,,,,,,,,,,,,,,,,,,,,,,,,,,,,,,,,,,,,,,,,,,,,,,,,,,,,,,506.83047700000134,507.33317700000043,507.33317700000043,508.08846430000085,508.08846430000085,508.58827230000134,508.58827230000134,509.4491476000003,509.4491476000003,None,num_6,0.28581449999910546,509.4491476000003,None,happy,0,Sad,509.7407309200004,None,None,509.7407309200004,None,,,,,,,,,,,,,,,,,,,,,,,,,,,,,,,,,,,,,,,,,,,,,,,,,,,,,18,001,1,21,400,550,2022_Oct_10_1312,Experiment,2021.1.4,359.9310372093038,
images\S8_M_H_02.png,images\S8_M_H_02_scrambled.png,8,happy,20,male,5,,584,on,2,0.5,0.75,0.5,0.803,3,583,1,1,1,2,2,32,128,165,,,,,,0,62,62,62,,,,,,,,,,,,,,,,,,,,,,,,,,,,,,,,,,,,,,,,,,,,,,,,,,,,,,,,,509.7879002000009,510.29334110000127,510.29334110000127,511.0486746000006,511.0486746000006,511.55130100000133,511.55130100000133,512.3565839000003,512.3565839000003,None,num_6,0.28252229999998235,512.3565839000003,None,happy,0,Happy,512.6510167400003,None,None,512.6510167400003,None,,,,,,,,,,,,,,,,,,,,,,,,,,,,,,,,,,,,,,,,,,,,,,,,,,,,,18,001,1,21,400,550,2022_Oct_10_1312,Experiment,2021.1.4,359.9310372093038,
images\S1_F_H_02.png,images\S1_F_H_02_scrambled.png,1,happy,20,female,5,,2,off,1,0.5,0.75,0.5,0.805,3,1,1,1,2,0,0,0,0,5,,,,,,0,63,63,63,,,,,,,,,,,,,,,,,,,,,,,,,,,,,,,,,,,,,,,,,,,,,,,,,,,,,,,,,512.7619766000007,513.2646259000012,513.2646259000012,514.0171797000003,514.0171797000003,514.5197982000009,514.5197982000009,515.3280032000002,515.3280032000002,None,num_6,0.25481629999922006,515.3280032000002,None,happy,0,Happy,515.5972149400014,None,None,515.5972149400014,None,,,,,,,,,,,,,,,,,,,,,,,,,,,,,,,,,,,,,,,,,,,,,,,,,,,,,18,001,1,21,400,550,2022_Oct_10_1312,Experiment,2021.1.4,359.9310372093038,
images\S4_M_S_02.png,images\S4_M_S_02_scrambled.png,4,sad,-20,male,2,,143,off,1,0.5,0.75,0.5,0.898,3,142,2,1,1,0,0,0,0,2,,,,,,0,64,64,64,,,,,,,,,,,,,,,,,,,,,,,,,,,,,,,,,,,,,,,,,,,,,,,,,,,,,,,,,515.6444417000002,516.1498464000015,516.1498464000015,516.9023946000016,516.9023946000016,517.4022495000008,517.4022495000008,518.3047329000001,518.3047329000001,None,num_4,0.2622270000010758,518.3047329000001,None,sad,0,Sad,518.5769904400014,None,None,518.5769904400014,None,,,,,,,,,,,,,,,,,,,,,,,,,,,,,,,,,,,,,,,,,,,,,,,,,,,,,18,001,1,21,400,550,2022_Oct_10_1312,Experiment,2021.1.4,359.9310372093038,
images\S2_M_H_02.png,images\S2_M_H_02_scrambled.png,2,happy,20,male,5,,488,off,1,0.5,0.75,0.5,0.94,3,487,3,1,1,0,0,0,0,5,,,,,,0,65,65,65,,,,,,,,,,,,,,,,,,,,,,,,,,,,,,,,,,,,,,,,,,,,,,,,,,,,,,,,,518.6240621000015,519.1294906000003,519.1294906000003,519.8820448000006,519.8820448000006,520.3875027000013,520.3875027000013,521.3316062000013,521.3316062000013,None,num_6,0.23531440000078874,521.3316062000013,None,happy,0,Happy,521.5814829400016,None,None,521.5814829400016,None,,,,,,,,,,,,,,,,,,,,,,,,,,,,,,,,,,,,,,,,,,,,,,,,,,,,,18,001,1,21,400,550,2022_Oct_10_1312,Experiment,2021.1.4,359.9310372093038,
images\S4_M_S_02.png,images\S4_M_S_02_scrambled.png,4,sad,-20,male,2,,203,on,2,0.5,0.75,0.5,0.935,3,202,1,1,1,2,2,32,128,162,,,,,,0,66,66,66,,,,,,,,,,,,,,,,,,,,,,,,,,,,,,,,,,,,,,,,,,,,,,,,,,,,,,,,,521.6286949000005,522.134132000001,522.134132000001,522.8866876000011,522.8866876000011,523.3893075000015,523.3893075000015,524.3279523000001,524.3279523000001,None,num_4,0.27123179999944114,524.3279523000001,None,sad,0,Sad,524.6139102400003,None,None,524.6139102400003,None,,,,,,,,,,,,,,,,,,,,,,,,,,,,,,,,,,,,,,,,,,,,,,,,,,,,,18,001,1,21,400,550,2022_Oct_10_1312,Experiment,2021.1.4,359.9310372093038,
images\blank.jpg,images\blank.jpg,none,none,none,none,0,,608,on,2,0.5,0.75,0.5,0.944,0,607,2,1,1,3,3,48,192,240,,,,,,0,67,67,67,,,,,,,,,,,,,,,,,,,,,,,,,,,,,,,,,,,,,,,,,,,,,,,,,,,,,,,,,524.6946195,525.1970365000016,525.1970365000016,525.9468520999999,525.9468520999999,526.4467010000008,526.4467010000008,527.3908568000006,527.3908568000006,527.3908568000006,None,,527.3908568000006,None,miss,0,,530.3926703100003,None,None,530.3926703100003,None,,,,,,,,,,,,,,,,,,,,,,,,,,,,,,,,,,,,,,,,,,,,,,,,,,,,,18,001,1,21,400,550,2022_Oct_10_1312,Experiment,2021.1.4,359.9310372093038,
images\blank.jpg,images\blank.jpg,none,none,none,none,0,,609,on,2,0.5,0.75,0.5,0.786,0,608,3,2,2,3,3,48,192,240,,,,,,0,68,68,68,,,,,,,,,,,,,,,,,,,,,,,,,,,,,,,,,,,,,,,,,,,,,,,,,,,,,,,,,530.4148812000003,530.9176398,530.9176398,531.6673031999999,531.6673031999999,532.1728229,532.1728229,532.9585545000009,532.9585545000009,532.9585545000009,None,,532.9585545000009,530.4148812000003,miss,0,,535.963304620001,None,None,535.963304620001,None,,,,,,,,,,,,,,,,,,,,,,,,,,,,,,,,,,,,,,,,,,,,,,,,,,,,,18,001,1,21,400,550,2022_Oct_10_1312,Experiment,2021.1.4,359.9310372093038,
images\S6_M_S_02.png,images\S6_M_S_02_scrambled.png,6,sad,-20,male,2,,275,off,1,0.5,0.75,0.5,0.814,3,274,1,1,1,0,0,0,0,2,,,,,,0,69,69,69,,,,,,,,,,,,,,,,,,,,,,,,,,,,,,,,,,,,,,,,,,,,,,,,,,,,,,,,,536.0854397000003,536.5880003000002,536.5880003000002,537.3433511000003,537.3433511000003,537.8487473000005,537.8487473000005,538.6623724000001,538.6623724000001,None,num_4,0.3364958000001934,538.6623724000001,536.0854397000003,sad,0,Sad,539.0206624700008,None,None,539.0206624700008,None,,,,,,,,,,,,,,,,,,,,,,,,,,,,,,,,,,,,,,,,,,,,,,,,,,,,,18,001,1,21,400,550,2022_Oct_10_1312,Experiment,2021.1.4,359.9310372093038,
images\S3_F_H_01.png,images\S3_F_H_01_scrambled.png,3,happy,10,female,4,,13,off,1,0.5,0.75,0.5,0.759,3,12,2,1,1,0,0,0,0,4,,,,,,0,70,70,70,,,,,,,,,,,,,,,,,,,,,,,,,,,,,,,,,,,,,,,,,,,,,,,,,,,,,,,,,539.0733414000006,539.5759647000014,539.5759647000014,540.3285377000011,540.3285377000011,540.8311717000015,540.8311717000015,541.5920361000008,541.5920361000008,None,num_4,0.3268001999986154,541.5920361000008,None,sad,0,Happy,541.9252946200008,None,None,541.9252946200008,None,,,,,,,,,,,,,,,,,,,,,,,,,,,,,,,,,,,,,,,,,,,,,,,,,,,,,18,001,1,21,400,550,2022_Oct_10_1312,Experiment,2021.1.4,359.9310372093038,
images\S8_M_H_01.png,images\S8_M_H_01_scrambled.png,8,happy,10,male,4,,583,on,2,0.5,0.75,0.5,0.857,3,582,1,1,2,2,2,32,128,164,,,,,,0,71,71,71,,,,,,,,,,,,,,,,,,,,,,,,,,,,,,,,,,,,,,,,,,,,,,,,,,,,,,,,,541.9779906000003,542.4834480000009,542.4834480000009,543.2387718999998,543.2387718999998,543.7385987000016,543.7385987000016,544.5994336000003,544.5994336000003,None,num_6,0.11985240000103659,544.5994336000003,None,happy,0,Happy,544.7411692600006,None,None,544.7411692600006,None,,,,,,,,,,,,,,,,,,,,,,,,,,,,,,,,,,,,,,,,,,,,,,,,,,,,,18,001,1,21,400,550,2022_Oct_10_1312,Experiment,2021.1.4,359.9310372093038,
images\S10_M_H_02.png,images\S10_M_H_02_scrambled.png,10,happy,20,male,5,,236,on,2,0.5,0.75,0.5,0.858,3,235,2,1,1,2,2,32,128,165,,,,,,0,72,72,72,,,,,,,,,,,,,,,,,,,,,,,,,,,,,,,,,,,,,,,,,,,,,,,,,,,,,,,,,544.8271174000001,545.3297648000007,545.3297648000007,546.0823164000012,546.0823164000012,546.5821281000008,546.5821281000008,547.4430706000003,547.4430706000003,None,num_6,0.24385780000011437,547.4430706000003,None,happy,0,Happy,547.701238140001,None,None,547.701238140001,None,,,,,,,,,,,,,,,,,,,,,,,,,,,,,,,,,,,,,,,,,,,,,,,,,,,,,18,001,1,21,400,550,2022_Oct_10_1312,Experiment,2021.1.4,359.9310372093038,
images\S2_M_S_02.png,images\S2_M_S_02_scrambled.png,2,sad,-20,male,2,,311,on,2,0.5,0.75,0.5,0.863,3,310,3,1,1,2,2,32,128,162,,,,,,0,73,73,73,,,,,,,,,,,,,,,,,,,,,,,,,,,,,,,,,,,,,,,,,,,,,,,,,,,,,,,,,547.809534,548.3121496000003,548.3121496000003,549.0619697000002,549.0619697000002,549.5618118000002,549.5618118000002,550.4282393000012,550.4282393000012,None,num_4,0.25929940000060014,550.4282393000012,None,sad,0,Sad,550.7003444400008,None,None,550.7003444400008,None,,,,,,,,,,,,,,,,,,,,,,,,,,,,,,,,,,,,,,,,,,,,,,,,,,,,,18,001,1,21,400,550,2022_Oct_10_1312,Experiment,2021.1.4,359.9310372093038,
images\S2_M_H_02.png,images\S2_M_H_02_scrambled.png,2,happy,20,male,5,,368,off,1,0.5,0.75,0.5,0.775,3,367,1,2,1,0,0,0,0,5,,,,,,0,74,74,74,,,,,,,,,,,,,,,,,,,,,,,,,,,,,,,,,,,,,,,,,,,,,,,,,,,,,,,,,550.7475146000015,551.2473610000015,551.2473610000015,551.9971278000012,551.9971278000012,552.4997800000001,552.4997800000001,553.2773211000003,553.2773211000003,None,num_6,0.2573783999996522,553.2773211000003,None,happy,0,Happy,553.5494503400015,None,None,553.5494503400015,None,,,,,,,,,,,,,,,,,,,,,,,,,,,,,,,,,,,,,,,,,,,,,,,,,,,,,18,001,1,21,400,550,2022_Oct_10_1312,Experiment,2021.1.4,359.9310372093038,
images\blank.jpg,images\blank.jpg,none,none,none,none,0,,633,on,2,0.5,0.75,0.5,0.918,0,632,1,1,1,3,3,48,192,240,,,,,,0,75,75,75,,,,,,,,,,,,,,,,,,,,,,,,,,,,,,,,,,,,,,,,,,,,,,,,,,,,,,,,,553.6467829000012,554.1492750000016,554.1492750000016,554.9018336000008,554.9018336000008,555.4044423000014,555.4044423000014,556.3263898000005,556.3263898000005,556.3263898000005,None,,556.3263898000005,None,miss,0,,559.32824461,None,None,559.32824461,None,,,,,,,,,,,,,,,,,,,,,,,,,,,,,,,,,,,,,,,,,,,,,,,,,,,,,18,001,1,21,400,550,2022_Oct_10_1312,Experiment,2021.1.4,359.9310372093038,
images\S1_F_S_03.png,images\S1_F_S_03_scrambled.png,1,sad,-30,female,1,,186,on,2,0.5,0.75,0.5,0.882,3,185,2,1,1,2,2,32,128,161,,,,,,0,76,76,76,,,,,,,,,,,,,,,,,,,,,,,,,,,,,,,,,,,,,,,,,,,,,,,,,,,,,,,,,559.4590486000016,559.9613559000009,559.9613559000009,560.7111265000003,560.7111265000003,561.2137759000016,561.2137759000016,562.0995747000015,562.0995747000015,None,num_4,0.3392810000004829,562.0995747000015,559.4590486000016,sad,0,Sad,562.4606490700012,None,None,562.4606490700012,None,,,,,,,,,,,,,,,,,,,,,,,,,,,,,,,,,,,,,,,,,,,,,,,,,,,,,18,001,1,21,400,550,2022_Oct_10_1312,Experiment,2021.1.4,359.9310372093038,
images\S9_F_H_03.png,images\S9_F_H_03_scrambled.png,9,happy,30,female,6,,531,off,1,0.5,0.75,0.5,0.868,3,530,1,1,1,0,0,0,0,6,,,,,,0,77,77,77,,,,,,,,,,,,,,,,,,,,,,,,,,,,,,,,,,,,,,,,,,,,,,,,,,,,,,,,,562.5688835000001,563.0743195000014,563.0743195000014,563.8296374000001,563.8296374000001,564.3294444000003,564.3294444000003,565.2014442,565.2014442,None,num_6,0.24555160000090837,565.2014442,None,happy,0,Happy,565.4680915800003,None,None,565.4680915800003,None,,,,,,,,,,,,,,,,,,,,,,,,,,,,,,,,,,,,,,,,,,,,,,,,,,,,,18,001,1,21,400,550,2022_Oct_10_1312,Experiment,2021.1.4,359.9310372093038,
images\S4_M_H_01.png,images\S4_M_H_01_scrambled.png,4,happy,10,male,4,,19,off,1,0.5,0.75,0.5,0.934,3,18,2,1,1,0,0,0,0,4,,,,,,0,78,78,78,,,,,,,,,,,,,,,,,,,,,,,,,,,,,,,,,,,,,,,,,,,,,,,,,,,,,,,,,565.5735135000014,566.0733687000011,566.0733687000011,566.8287188000013,566.8287188000013,567.3313590000016,567.3313590000016,568.2671537000006,568.2671537000006,None,num_4,0.25974139999925683,568.2671537000006,None,sad,0,Happy,568.5365050200012,None,None,568.5365050200012,None,,,,,,,,,,,,,,,,,,,,,,,,,,,,,,,,,,,,,,,,,,,,,,,,,,,,,18,001,1,21,400,550,2022_Oct_10_1312,Experiment,2021.1.4,359.9310372093038,
images\S5_F_S_03.png,images\S5_F_S_03_scrambled.png,5,sad,-30,female,1,,450,on,2,0.5,0.75,0.5,0.779,3,449,1,1,1,2,2,32,128,161,,,,,,0,79,79,79,,,,,,,,,,,,,,,,,,,,,,,,,,,,,,,,,,,,,,,,,,,,,,,,,,,,,,,,,568.5975785999999,569.0974313000006,569.0974313000006,569.8472169000015,569.8472169000015,570.3470674,570.3470674,571.1301541000012,571.1301541000012,None,num_4,0.32504659999904106,571.1301541000012,None,sad,0,Sad,571.4662442400014,None,None,571.4662442400014,None,,,,,,,,,,,,,,,,,,,,,,,,,,,,,,,,,,,,,,,,,,,,,,,,,,,,,18,001,1,21,400,550,2022_Oct_10_1312,Experiment,2021.1.4,359.9310372093038,
images\S4_M_H_02.png,images\S4_M_H_02_scrambled.png,4,happy,20,male,5,,320,on,2,0.5,0.75,0.5,0.811,3,319,2,1,1,2,2,32,128,165,,,,,,0,80,80,80,,,,,,,,,,,,,,,,,,,,,,,,,,,,,,,,,,,,,,,,,,,,,,,,,,,,,,,,,571.5105726000002,572.0132567,572.0132567,572.7629990000005,572.7629990000005,573.2684049,573.2684049,574.0820311000007,574.0820311000007,None,num_4,0.6049767000004067,574.0820311000007,None,sad,0,Happy,574.6957639200004,None,None,574.6957639200004,None,,,,,,,,,,,,,,,,,,,,,,,,,,,,,,,,,,,,,,,,,,,,,,,,,,,,,18,001,1,21,400,550,2022_Oct_10_1312,Experiment,2021.1.4,359.9310372093038,
images\S3_F_H_01.png,images\S3_F_H_01_scrambled.png,3,happy,10,female,4,,73,on,2,0.5,0.75,0.5,0.768,3,72,3,1,1,2,2,32,128,164,,,,,,0,81,81,81,,,,,,,,,,,,,,,,,,,,,,,,,,,,,,,,,,,,,,,,,,,,,,,,,,,,,,,,,574.7484645000004,575.2539052000011,575.2539052000011,576.0064591999999,576.0064591999999,576.5063246000009,576.5063246000009,577.2782521000008,577.2782521000008,None,num_4,0.28890060000048834,577.2782521000008,None,sad,0,Happy,577.5726599200002,None,None,577.5726599200002,None,,,,,,,,,,,,,,,,,,,,,,,,,,,,,,,,,,,,,,,,,,,,,,,,,,,,,18,001,1,21,400,550,2022_Oct_10_1312,Experiment,2021.1.4,359.9310372093038,
images\S4_M_S_03.png,images\S4_M_S_03_scrambled.png,4,sad,-30,male,1,,264,off,1,0.5,0.75,0.5,0.844,3,263,1,1,1,0,0,0,0,1,,,,,,0,82,82,82,,,,,,,,,,,,,,,,,,,,,,,,,,,,,,,,,,,,,,,,,,,,,,,,,,,,,,,,,577.6559026000014,578.1585778000008,578.1585778000008,578.9111276000003,578.9111276000003,579.4137338,579.4137338,580.2634994,580.2634994,None,num_4,0.28769869999996445,580.2634994,None,sad,0,Sad,580.5661224400002,None,None,580.5661224400002,None,,,,,,,,,,,,,,,,,,,,,,,,,,,,,,,,,,,,,,,,,,,,,,,,,,,,,18,001,1,21,400,550,2022_Oct_10_1312,Experiment,2021.1.4,359.9310372093038,
images\S10_M_H_01.png,images\S10_M_H_01_scrambled.png,10,happy,10,male,4,,475,on,2,0.5,0.75,0.5,0.796,3,474,1,1,1,2,2,32,128,164,,,,,,0,83,83,83,,,,,,,,,,,,,,,,,,,,,,,,,,,,,,,,,,,,,,,,,,,,,,,,,,,,,,,,,580.6744162000014,581.1798466,581.1798466,581.9323677000011,581.9323677000011,582.4322448000003,582.4322448000003,583.2319954000013,583.2319954000013,None,num_6,0.4070780999991257,583.2319954000013,None,happy,0,Happy,583.6541498500001,None,None,583.6541498500001,None,,,,,,,,,,,,,,,,,,,,,,,,,,,,,,,,,,,,,,,,,,,,,,,,,,,,,18,001,1,21,400,550,2022_Oct_10_1312,Experiment,2021.1.4,359.9310372093038,
images\S4_M_H_02.png,images\S4_M_H_02_scrambled.png,4,happy,20,male,5,,440,on,2,0.5,0.75,0.5,0.851,3,439,2,1,1,2,2,32,128,165,,,,,,0,84,84,84,,,,,,,,,,,,,,,,,,,,,,,,,,,,,,,,,,,,,,,,,,,,,,,,,,,,,,,,,583.7179688000015,584.2233905000012,584.2233905000012,584.9786991000001,584.9786991000001,585.4840941000002,585.4840941000002,586.3393723000008,586.3393723000008,None,num_6,0.25962780000008934,586.3393723000008,None,happy,0,Happy,586.6171844600001,None,None,586.6171844600001,None,,,,,,,,,,,,,,,,,,,,,,,,,,,,,,,,,,,,,,,,,,,,,,,,,,,,,18,001,1,21,400,550,2022_Oct_10_1312,Experiment,2021.1.4,359.9310372093038,
images\S5_F_S_02.png,images\S5_F_S_02_scrambled.png,5,sad,-20,female,2,,569,on,2,0.5,0.75,0.5,0.903,3,568,3,1,1,2,2,32,128,162,,,,,,0,85,85,85,,,,,,,,,,,,,,,,,,,,,,,,,,,,,,,,,,,,,,,,,,,,,,,,,,,,,,,,,586.6670220000015,587.169671900001,587.169671900001,587.9222303000006,587.9222303000006,588.4277465000014,588.4277465000014,589.3330037000014,589.3330037000014,None,num_4,1.1699468000006163,589.3330037000014,None,sad,0,Sad,590.5158451400013,None,None,590.5158451400013,None,,,,,,,,,,,,,,,,,,,,,,,,,,,,,,,,,,,,,,,,,,,,,,,,,,,,,18,001,1,21,400,550,2022_Oct_10_1312,Experiment,2021.1.4,359.9310372093038,
images\S1_F_S_01.png,images\S1_F_S_01_scrambled.png,1,sad,-10,female,3,,364,off,1,0.5,0.75,0.5,0.854,3,363,1,1,1,0,0,0,0,3,,,,,,0,86,86,86,,,,,,,,,,,,,,,,,,,,,,,,,,,,,,,,,,,,,,,,,,,,,,,,,,,,,,,,,590.5602837000006,591.0630129000001,591.0630129000001,591.8126819000008,591.8126819000008,592.3125287000003,592.3125287000003,593.1678343000003,593.1678343000003,None,num_6,0.42362670000147773,593.1678343000003,None,happy,0,Sad,593.601078520001,None,None,593.601078520001,None,,,,,,,,,,,,,,,,,,,,,,,,,,,,,,,,,,,,,,,,,,,,,,,,,,,,,18,001,1,21,400,550,2022_Oct_10_1312,Experiment,2021.1.4,359.9310372093038,
images\S3_F_H_03.png,images\S3_F_H_03_scrambled.png,3,happy,30,female,6,,255,off,1,0.5,0.75,0.5,0.846,3,254,2,1,1,0,0,0,0,6,,,,,,0,87,87,87,,,,,,,,,,,,,,,,,,,,,,,,,,,,,,,,,,,,,,,,,,,,,,,,,,,,,,,,,593.6565424,594.1563712000006,594.1563712000006,594.9062126000008,594.9062126000008,595.4060570000001,595.4060570000001,596.2585852000011,596.2585852000011,None,num_6,0.30071850000058475,596.2585852000011,None,happy,0,Happy,596.572295340001,None,None,596.572295340001,None,,,,,,,,,,,,,,,,,,,,,,,,,,,,,,,,,,,,,,,,,,,,,,,,,,,,,18,001,1,21,400,550,2022_Oct_10_1312,Experiment,2021.1.4,359.9310372093038,
images\S4_M_H_02.png,images\S4_M_H_02_scrambled.png,4,happy,20,male,5,,380,off,1,0.5,0.75,0.5,0.862,3,379,3,1,1,0,0,0,0,5,,,,,,0,88,88,88,,,,,,,,,,,,,,,,,,,,,,,,,,,,,,,,,,,,,,,,,,,,,,,,,,,,,,,,,596.619520100001,597.1221673,597.1221673,597.8719445000006,597.8719445000006,598.3717937000001,598.3717937000001,599.2382420000013,599.2382420000013,None,num_4,0.24056490000111808,599.2382420000013,None,sad,0,Happy,599.4852814199999,None,None,599.4852814199999,None,,,,,,,,,,,,,,,,,,,,,,,,,,,,,,,,,,,,,,,,,,,,,,,,,,,,,18,001,1,21,400,550,2022_Oct_10_1312,Experiment,2021.1.4,359.9310372093038,
images\blank.jpg,images\blank.jpg,none,none,none,none,0,,615,on,2,0.5,0.75,0.5,0.9,0,614,1,1,1,3,3,48,192,240,,,,,,0,89,89,89,,,,,,,,,,,,,,,,,,,,,,,,,,,,,,,,,,,,,,,,,,,,,,,,,,,,,,,,,599.5660998000003,600.0685018000004,600.0685018000004,600.8210644999999,600.8210644999999,601.3236675000007,601.3236675000007,602.226182800001,602.226182800001,602.226182800001,None,,602.226182800001,None,miss,0,,605.2280119100012,None,None,605.2280119100012,None,,,,,,,,,,,,,,,,,,,,,,,,,,,,,,,,,,,,,,,,,,,,,,,,,,,,,18,001,1,21,400,550,2022_Oct_10_1312,Experiment,2021.1.4,359.9310372093038,
images\S9_F_H_02.png,images\S9_F_H_02_scrambled.png,9,happy,20,female,5,,530,off,1,0.5,0.75,0.5,0.776,3,529,1,1,1,0,0,0,0,5,,,,,,0,90,90,90,,,,,,,,,,,,,,,,,,,,,,,,,,,,,,,,,,,,,,,,,,,,,,,,,,,,,,,,,605.4030050000001,605.9083824000008,605.9083824000008,606.6636976000009,606.6636976000009,607.1663289000007,607.1663289000007,607.9438209,607.9438209,None,num_6,0.27925950000098965,607.9438209,605.4030050000001,happy,0,Happy,608.2354146400004,None,None,608.2354146400004,None,,,,,,,,,,,,,,,,,,,,,,,,,,,,,,,,,,,,,,,,,,,,,,,,,,,,,18,001,1,21,400,550,2022_Oct_10_1312,Experiment,2021.1.4,359.9310372093038,
images\S6_M_S_02.png,images\S6_M_S_02_scrambled.png,6,sad,-20,male,2,,215,on,2,0.5,0.75,0.5,0.844,3,214,1,1,1,2,2,32,128,162,,,,,,0,91,91,91,,,,,,,,,,,,,,,,,,,,,,,,,,,,,,,,,,,,,,,,,,,,,,,,,,,,,,,,,608.2798407999999,608.782567100001,608.782567100001,609.5322364000003,609.5322364000003,610.0320892,610.0320892,610.8790593000012,610.8790593000012,None,num_4,0.24760210000022198,610.8790593000012,None,sad,0,Sad,611.1373300400002,None,None,611.1373300400002,None,,,,,,,,,,,,,,,,,,,,,,,,,,,,,,,,,,,,,,,,,,,,,,,,,,,,,18,001,1,21,400,550,2022_Oct_10_1312,Experiment,2021.1.4,359.9310372093038,
images\blank.jpg,images\blank.jpg,none,none,none,none,0,,648,on,2,0.5,0.75,0.5,0.773,0,647,2,1,1,3,3,48,192,240,,,,,,0,92,92,92,,,,,,,,,,,,,,,,,,,,,,,,,,,,,,,,,,,,,,,,,,,,,,,,,,,,,,,,,611.2180280000011,611.7232521000005,611.7232521000005,612.4729940000016,612.4729940000016,612.9784290000007,612.9784290000007,613.7504669000009,613.7504669000009,613.7504669000009,None,,613.7504669000009,None,miss,0,,616.75224951,None,None,616.75224951,None,,,,,,,,,,,,,,,,,,,,,,,,,,,,,,,,,,,,,,,,,,,,,,,,,,,,,18,001,1,21,400,550,2022_Oct_10_1312,Experiment,2021.1.4,359.9310372093038,
images\blank.jpg,images\blank.jpg,none,none,none,none,0,,603,on,2,0.5,0.75,0.5,0.94,0,602,3,2,2,3,3,48,192,240,,,,,,0,93,93,93,,,,,,,,,,,,,,,,,,,,,,,,,,,,,,,,,,,,,,,,,,,,,,,,,,,,,,,,,616.7772379000016,617.2770887000006,617.2770887000006,618.0268656000007,618.0268656000007,618.5294742000005,618.5294742000005,619.4708801000015,619.4708801000015,619.4708801000015,None,,619.4708801000015,616.7772379000016,miss,0,,622.472713410001,None,None,622.472713410001,None,,,,,,,,,,,,,,,,,,,,,,,,,,,,,,,,,,,,,,,,,,,,,,,,,,,,,18,001,1,21,400,550,2022_Oct_10_1312,Experiment,2021.1.4,359.9310372093038,
images\S5_F_H_01.png,images\S5_F_H_01_scrambled.png,5,happy,10,female,4,,265,off,1,0.5,0.75,0.5,0.803,3,264,1,1,1,0,0,0,0,4,,,,,,0,94,94,94,,,,,,,,,,,,,,,,,,,,,,,,,,,,,,,,,,,,,,,,,,,,,,,,,,,,,,,,,622.6477092000005,623.1531137000002,623.1531137000002,623.9084043000003,623.9084043000003,624.4081706000015,624.4081706000015,625.2107393000006,625.2107393000006,None,num_6,0.3401107999998203,625.2107393000006,622.6477092000005,happy,0,Happy,625.5718029700006,None,None,625.5718029700006,None,,,,,,,,,,,,,,,,,,,,,,,,,,,,,,,,,,,,,,,,,,,,,,,,,,,,,18,001,1,21,400,550,2022_Oct_10_1312,Experiment,2021.1.4,359.9310372093038,
images\S6_M_S_03.png,images\S6_M_S_03_scrambled.png,6,sad,-30,male,1,,36,off,1,0.5,0.75,0.5,0.775,3,35,2,1,1,0,0,0,0,1,,,,,,0,95,95,95,,,,,,,,,,,,,,,,,,,,,,,,,,,,,,,,,,,,,,,,,,,,,,,,,,,,,,,,,625.6244849000013,626.1271367000008,626.1271367000008,626.8768747000013,626.8768747000013,627.3767650000009,627.3767650000009,628.1542825000015,628.1542825000015,None,num_4,0.27676699999938137,628.1542825000015,None,sad,0,Sad,628.44870885,None,None,628.44870885,None,,,,,,,,,,,,,,,,,,,,,,,,,,,,,,,,,,,,,,,,,,,,,,,,,,,,,18,001,1,21,400,550,2022_Oct_10_1312,Experiment,2021.1.4,359.9310372093038,
images\S2_M_H_02.png,images\S2_M_H_02_scrambled.png,2,happy,20,male,5,,188,on,2,0.5,0.75,0.5,0.925,3,187,1,1,1,2,2,32,128,165,,,,,,0,96,96,96,,,,,,,,,,,,,,,,,,,,,,,,,,,,,,,,,,,,,,,,,,,,,,,,,,,,,,,,,628.4986016000003,629.0040402000013,629.0040402000013,629.7538073000014,629.7538073000014,630.2564519000007,630.2564519000007,631.1839229000016,631.1839229000016,None,num_6,0.295073000001139,631.1839229000016,None,happy,0,Happy,631.4894466400011,None,None,631.4894466400011,None,,,,,,,,,,,,,,,,,,,,,,,,,,,,,,,,,,,,,,,,,,,,,,,,,,,,,18,001,1,21,400,550,2022_Oct_10_1312,Experiment,2021.1.4,359.9310372093038,
images\S4_M_S_01.png,images\S4_M_S_01_scrambled.png,4,sad,-10,male,3,,502,off,1,0.5,0.75,0.5,0.854,3,501,1,1,1,0,0,0,0,3,,,,,,0,97,97,97,,,,,,,,,,,,,,,,,,,,,,,,,,,,,,,,,,,,,,,,,,,,,,,,,,,,,,,,,631.5948718,632.0976244000012,632.0976244000012,632.8472398000013,632.8472398000013,633.3471348000003,633.3471348000003,634.2080946000005,634.2080946000005,None,num_4,0.2389328999997815,634.2080946000005,None,sad,0,Sad,634.4606625400003,None,None,634.4606625400003,None,,,,,,,,,,,,,,,,,,,,,,,,,,,,,,,,,,,,,,,,,,,,,,,,,,,,,18,001,1,21,400,550,2022_Oct_10_1312,Experiment,2021.1.4,359.9310372093038,
images\S9_F_S_01.png,images\S9_F_S_01_scrambled.png,9,sad,-10,female,3,,592,on,2,0.5,0.75,0.5,0.804,3,591,1,1,2,2,2,32,128,163,,,,,,0,98,98,98,,,,,,,,,,,,,,,,,,,,,,,,,,,,,,,,,,,,,,,,,,,,,,,,,,,,,,,,,634.5439676000005,635.0493919,635.0493919,635.8047045000003,635.8047045000003,636.3045280000006,636.3045280000006,637.1127393000006,637.1127393000006,None,num_4,0.31815479999931995,637.1127393000006,None,sad,0,Sad,637.4486936500007,None,None,637.4486936500007,None,,,,,,,,,,,,,,,,,,,,,,,,,,,,,,,,,,,,,,,,,,,,,,,,,,,,,18,001,1,21,400,550,2022_Oct_10_1312,Experiment,2021.1.4,359.9310372093038,
images\S10_M_H_03.png,images\S10_M_H_03_scrambled.png,10,happy,30,male,6,,297,off,1,0.5,0.75,0.5,0.753,3,296,1,1,1,0,0,0,0,6,,,,,,0,99,99,99,,,,,,,,,,,,,,,,,,,,,,,,,,,,,,,,,,,,,,,,,,,,,,,,,,,,,,,,,637.5596978000012,638.0595422000006,638.0595422000006,638.8092914000008,638.8092914000008,639.3119698999999,639.3119698999999,640.0672911000001,640.0672911000001,None,num_6,0.28367830000024696,640.0672911000001,None,happy,0,Happy,640.3867531100002,None,None,640.3867531100002,None,,,,,,,,,,,,,,,,,,,,,,,,,,,,,,,,,,,,,,,,,,,,,,,,,,,,,18,001,1,21,400,550,2022_Oct_10_1312,Experiment,2021.1.4,359.9310372093038,
images\S1_F_S_02.png,images\S1_F_S_02_scrambled.png,1,sad,-20,female,2,,545,on,2,0.5,0.75,0.5,0.863,3,544,1,1,1,2,2,32,128,162,,,,,,0,100,100,100,,,,,,,,,,,,,,,,,,,,,,,,,,,,,,,,,,,,,,,,,,,,,,,,,,,,,,,,,640.4449595000006,640.9476653000002,640.9476653000002,641.6973484999999,641.6973484999999,642.1999623000011,642.1999623000011,643.0663846000007,643.0663846000007,None,num_4,0.5165569999990112,643.0663846000007,None,sad,0,Sad,643.6050965700001,None,None,643.6050965700001,None,,,,,,,,,,,,,,,,,,,,,,,,,,,,,,,,,,,,,,,,,,,,,,,,,,,,,18,001,1,21,400,550,2022_Oct_10_1312,Experiment,2021.1.4,359.9310372093038,
images\S7_F_H_03.png,images\S7_F_H_03_scrambled.png,7,happy,30,female,6,,519,off,1,0.5,0.75,0.5,0.856,3,518,1,1,1,0,0,0,0,6,,,,,,0,101,101,101,,,,,,,,,,,,,,,,,,,,,,,,,,,,,,,,,,,,,,,,,,,,,,,,,,,,,,,,,643.7161425000013,644.2188070000011,644.2188070000011,644.9713568000006,644.9713568000006,645.4712035000011,645.4712035000011,646.3292593000006,646.3292593000006,None,num_6,0.2778565999997227,646.3292593000006,None,happy,0,Happy,646.6264869700012,None,None,646.6264869700012,None,,,,,,,,,,,,,,,,,,,,,,,,,,,,,,,,,,,,,,,,,,,,,,,,,,,,,18,001,1,21,400,550,2022_Oct_10_1312,Experiment,2021.1.4,359.9310372093038,
images\S9_F_S_01.png,images\S9_F_S_01_scrambled.png,9,sad,-10,female,3,,112,on,2,0.5,0.75,0.5,0.906,3,111,1,1,1,2,2,32,128,163,,,,,,0,102,102,102,,,,,,,,,,,,,,,,,,,,,,,,,,,,,,,,,,,,,,,,,,,,,,,,,,,,,,,,,646.6791171000004,647.1845430000012,647.1845430000012,647.9370978000006,647.9370978000006,648.4369376000013,648.4369376000013,649.3449864000013,649.3449864000013,None,num_4,0.31020100000023376,649.3449864000013,None,sad,0,Sad,649.6727429600003,None,None,649.6727429600003,None,,,,,,,,,,,,,,,,,,,,,,,,,,,,,,,,,,,,,,,,,,,,,,,,,,,,,18,001,1,21,400,550,2022_Oct_10_1312,Experiment,2021.1.4,359.9310372093038,
images\S1_F_S_03.png,images\S1_F_S_03_scrambled.png,1,sad,-30,female,1,,426,on,2,0.5,0.75,0.5,0.797,3,425,2,1,1,2,2,32,128,161,,,,,,0,103,103,103,,,,,,,,,,,,,,,,,,,,,,,,,,,,,,,,,,,,,,,,,,,,,,,,,,,,,,,,,649.7226281000003,650.2225011999999,650.2225011999999,650.9722765000006,650.9722765000006,651.4721210000007,651.4721210000007,652.2718724000006,652.2718724000006,None,num_4,0.2788072999992437,652.2718724000006,None,sad,0,Sad,652.5634570400008,None,None,652.5634570400008,None,,,,,,,,,,,,,,,,,,,,,,,,,,,,,,,,,,,,,,,,,,,,,,,,,,,,,18,001,1,21,400,550,2022_Oct_10_1312,Experiment,2021.1.4,359.9310372093038,
images\S7_F_H_02.png,images\S7_F_H_02_scrambled.png,7,happy,20,female,5,,518,off,1,0.5,0.75,0.5,0.906,3,517,1,1,1,0,0,0,0,5,,,,,,0,104,104,104,,,,,,,,,,,,,,,,,,,,,,,,,,,,,,,,,,,,,,,,,,,,,,,,,,,,,,,,,652.6689758000011,653.1743700000006,653.1743700000006,653.9269259000012,653.9269259000012,654.4324386000008,654.4324386000008,655.3432074000011,655.3432074000011,None,num_6,0.25611210000170104,655.3432074000011,None,happy,0,Happy,655.620937460001,None,None,655.620937460001,None,,,,,,,,,,,,,,,,,,,,,,,,,,,,,,,,,,,,,,,,,,,,,,,,,,,,,18,001,1,21,400,550,2022_Oct_10_1312,Experiment,2021.1.4,359.9310372093038,
images\S8_M_S_03.png,images\S8_M_S_03_scrambled.png,8,sad,-30,male,1,,348,on,2,0.5,0.75,0.5,0.79,3,347,1,1,1,2,2,32,128,161,,,,,,0,105,105,105,,,,,,,,,,,,,,,,,,,,,,,,,,,,,,,,,,,,,,,,,,,,,,,,,,,,,,,,,655.734679000001,656.2400943000011,656.2400943000011,656.9927501000002,656.9927501000002,657.4980860000014,657.4980860000014,658.2894319000006,658.2894319000006,None,num_4,0.2934869000000617,658.2894319000006,None,sad,0,Sad,658.5977063400015,None,None,658.5977063400015,None,,,,,,,,,,,,,,,,,,,,,,,,,,,,,,,,,,,,,,,,,,,,,,,,,,,,,18,001,1,21,400,550,2022_Oct_10_1312,Experiment,2021.1.4,359.9310372093038,
images\S3_F_S_03.png,images\S3_F_S_03_scrambled.png,3,sad,-30,female,1,,258,off,1,0.5,0.75,0.5,0.793,3,257,1,1,2,0,0,0,0,1,,,,,,0,106,106,106,,,,,,,,,,,,,,,,,,,,,,,,,,,,,,,,,,,,,,,,,,,,,,,,,,,,,,,,,658.6448788000016,659.150302,659.150302,659.902983,659.902983,660.4082973000004,660.4082973000004,661.208077700001,661.208077700001,None,num_4,0.4231641000005766,661.208077700001,None,sad,0,Sad,661.6580227800008,None,None,661.6580227800008,None,,,,,,,,,,,,,,,,,,,,,,,,,,,,,,,,,,,,,,,,,,,,,,,,,,,,,18,001,1,21,400,550,2022_Oct_10_1312,Experiment,2021.1.4,359.9310372093038,
images\S2_M_S_01.png,images\S2_M_S_01_scrambled.png,2,sad,-10,male,3,,10,off,1,0.5,0.75,0.5,0.947,3,9,2,1,1,0,0,0,0,3,,,,,,0,107,107,107,,,,,,,,,,,,,,,,,,,,,,,,,,,,,,,,,,,,,,,,,,,,,,,,,,,,,,,,,661.763370300001,662.2688074000016,662.2688074000016,663.0213764,663.0213764,663.5212257000003,663.5212257000003,664.4736877000014,664.4736877000014,None,num_4,0.24511460000030638,664.4736877000014,None,sad,0,Sad,664.73191014,None,None,664.73191014,None,,,,,,,,,,,,,,,,,,,,,,,,,,,,,,,,,,,,,,,,,,,,,,,,,,,,,18,001,1,21,400,550,2022_Oct_10_1312,Experiment,2021.1.4,359.9310372093038,
images\S8_M_S_03.png,images\S8_M_S_03_scrambled.png,8,sad,-30,male,1,,588,on,2,0.5,0.75,0.5,0.851,3,587,1,1,1,2,2,32,128,161,,,,,,0,108,108,108,,,,,,,,,,,,,,,,,,,,,,,,,,,,,,,,,,,,,,,,,,,,,,,,,,,,,,,,,664.7763342000017,665.2789920000014,665.2789920000014,666.0315464000014,666.0315464000014,666.5313908000007,666.5313908000007,667.3866782000005,667.3866782000005,None,num_4,0.2920319999993808,667.3866782000005,None,sad,0,Sad,667.7004742700015,None,None,667.7004742700015,None,,,,,,,,,,,,,,,,,,,,,,,,,,,,,,,,,,,,,,,,,,,,,,,,,,,,,18,001,1,21,400,550,2022_Oct_10_1312,Experiment,2021.1.4,359.9310372093038,
images\S3_F_H_03.png,images\S3_F_H_03_scrambled.png,3,happy,30,female,6,,375,off,1,0.5,0.75,0.5,0.805,3,374,1,1,1,0,0,0,0,6,,,,,,0,109,109,109,,,,,,,,,,,,,,,,,,,,,,,,,,,,,,,,,,,,,,,,,,,,,,,,,,,,,,,,,667.7531929000015,668.2586365000006,668.2586365000006,669.0139558999999,669.0139558999999,669.5165848000015,669.5165848000015,670.3246499000015,670.3246499000015,None,num_6,0.34632349999992584,670.3246499000015,None,happy,0,Happy,670.6856294400014,None,None,670.6856294400014,None,,,,,,,,,,,,,,,,,,,,,,,,,,,,,,,,,,,,,,,,,,,,,,,,,,,,,18,001,1,21,400,550,2022_Oct_10_1312,Experiment,2021.1.4,359.9310372093038,
images\S7_F_H_02.png,images\S7_F_H_02_scrambled.png,7,happy,20,female,5,,38,off,1,0.5,0.75,0.5,0.861,3,37,2,1,1,0,0,0,0,5,,,,,,0,110,110,110,,,,,,,,,,,,,,,,,,,,,,,,,,,,,,,,,,,,,,,,,,,,,,,,,,,,,,,,,670.7328307000007,671.2326991000009,671.2326991000009,671.9881048000007,671.9881048000007,672.4934631000015,672.4934631000015,673.3570530000015,673.3570530000015,None,num_6,0.3937939000006736,673.3570530000015,None,happy,0,Happy,673.7680824500012,None,None,673.7680824500012,None,,,,,,,,,,,,,,,,,,,,,,,,,,,,,,,,,,,,,,,,,,,,,,,,,,,,,18,001,1,21,400,550,2022_Oct_10_1312,Experiment,2021.1.4,359.9310372093038,
images\S4_M_S_01.png,images\S4_M_S_01_scrambled.png,4,sad,-10,male,3,,202,on,2,0.5,0.75,0.5,0.907,3,201,1,1,1,2,2,32,128,163,,,,,,0,111,111,111,,,,,,,,,,,,,,,,,,,,,,,,,,,,,,,,,,,,,,,,,,,,,,,,,,,,,,,,,673.8152186000007,674.3179553000009,674.3179553000009,675.0732459999999,675.0732459999999,675.5758468000004,675.5758468000004,676.4894209000013,676.4894209000013,None,num_4,0.3095484999994369,676.4894209000013,None,sad,0,Sad,676.8172274600008,None,None,676.8172274600008,None,,,,,,,,,,,,,,,,,,,,,,,,,,,,,,,,,,,,,,,,,,,,,,,,,,,,,18,001,1,21,400,550,2022_Oct_10_1312,Experiment,2021.1.4,359.9310372093038,
images\S2_M_H_02.png,images\S2_M_H_02_scrambled.png,2,happy,20,male,5,,248,off,1,0.5,0.75,0.5,0.779,3,247,1,1,1,0,0,0,0,5,,,,,,0,112,112,112,,,,,,,,,,,,,,,,,,,,,,,,,,,,,,,,,,,,,,,,,,,,,,,,,,,,,,,,,676.8698322,677.372479900001,677.372479900001,678.1222367999999,678.1222367999999,678.6221067000006,678.6221067000006,679.4080297,679.4080297,None,num_4,0.7427726999994775,679.4080297,None,sad,0,Happy,680.1605254199999,None,None,680.1605254199999,None,,,,,,,,,,,,,,,,,,,,,,,,,,,,,,,,,,,,,,,,,,,,,,,,,,,,,18,001,1,21,400,550,2022_Oct_10_1312,Experiment,2021.1.4,359.9310372093038,
images\blank.jpg,images\blank.jpg,none,none,none,none,0,,646,on,2,0.5,0.75,0.5,0.802,0,645,1,1,1,3,3,48,192,240,,,,,,0,113,113,113,,,,,,,,,,,,,,,,,,,,,,,,,,,,,,,,,,,,,,,,,,,,,,,,,,,,,,,,,680.2440225000009,680.7492281000013,680.7492281000013,681.5017802000002,681.5017802000002,682.0016286999999,682.0016286999999,682.8041466000013,682.8041466000013,682.8041466000013,None,,682.8041466000013,None,miss,0,,685.8088152200012,None,None,685.8088152200012,None,,,,,,,,,,,,,,,,,,,,,,,,,,,,,,,,,,,,,,,,,,,,,,,,,,,,,18,001,1,21,400,550,2022_Oct_10_1312,Experiment,2021.1.4,359.9310372093038,
images\S6_M_S_02.png,images\S6_M_S_02_scrambled.png,6,sad,-20,male,2,,335,on,2,0.5,0.75,0.5,0.918,3,334,2,1,1,2,2,32,128,162,,,,,,0,114,114,114,,,,,,,,,,,,,,,,,,,,,,,,,,,,,,,,,,,,,,,,,,,,,,,,,,,,,,,,,685.9254658000009,686.4280016000012,686.4280016000012,687.1833879000005,687.1833879000005,687.6860094000003,687.6860094000003,688.6079828000002,688.6079828000002,None,num_4,0.3272517000004882,688.6079828000002,685.9254658000009,sad,0,Sad,688.9551516700017,None,None,688.9551516700017,None,,,,,,,,,,,,,,,,,,,,,,,,,,,,,,,,,,,,,,,,,,,,,,,,,,,,,18,001,1,21,400,550,2022_Oct_10_1312,Experiment,2021.1.4,359.9310372093038,
images\S9_F_H_02.png,images\S9_F_H_02_scrambled.png,9,happy,20,female,5,,230,on,2,0.5,0.75,0.5,0.828,3,229,3,1,1,2,2,32,128,165,,,,,,0,115,115,115,,,,,,,,,,,,,,,,,,,,,,,,,,,,,,,,,,,,,,,,,,,,,,,,,,,,,,,,,689.0077665000008,689.5132114000007,689.5132114000007,690.2657690000015,690.2657690000015,690.7655797000007,690.7655797000007,691.5986741000015,691.5986741000015,None,num_6,0.2642169000009744,691.5986741000015,None,happy,0,Happy,691.876351940001,None,None,691.876351940001,None,,,,,,,,,,,,,,,,,,,,,,,,,,,,,,,,,,,,,,,,,,,,,,,,,,,,,18,001,1,21,400,550,2022_Oct_10_1312,Experiment,2021.1.4,359.9310372093038,
images\S6_M_H_02.png,images\S6_M_H_02_scrambled.png,6,happy,20,male,5,,152,off,1,0.5,0.75,0.5,0.832,3,151,1,1,2,0,0,0,0,5,,,,,,0,116,116,116,,,,,,,,,,,,,,,,,,,,,,,,,,,,,,,,,,,,,,,,,,,,,,,,,,,,,,,,,691.9235405,692.4289982999999,692.4289982999999,693.1815029000009,693.1815029000009,693.6813667000006,693.6813667000006,694.5173062000013,694.5173062000013,None,num_6,0.36998399999902176,694.5173062000013,None,happy,0,Happy,694.90615037,None,None,694.90615037,None,,,,,,,,,,,,,,,,,,,,,,,,,,,,,,,,,,,,,,,,,,,,,,,,,,,,,18,001,1,21,400,550,2022_Oct_10_1312,Experiment,2021.1.4,359.9310372093038,
images\blank.jpg,images\blank.jpg,none,none,none,none,0,,650,on,2,0.5,0.75,0.5,0.941,0,649,1,1,1,3,3,48,192,240,,,,,,0,117,117,117,,,,,,,,,,,,,,,,,,,,,,,,,,,,,,,,,,,,,,,,,,,,,,,,,,,,,,,,,694.9922322000002,695.4946929000016,695.4946929000016,696.2472416,696.2472416,696.7470847000004,696.7470847000004,697.6912670000002,697.6912670000002,697.6912670000002,None,,697.6912670000002,None,miss,0,,700.6930709100013,None,None,700.6930709100013,None,,,,,,,,,,,,,,,,,,,,,,,,,,,,,,,,,,,,,,,,,,,,,,,,,,,,,18,001,1,21,400,550,2022_Oct_10_1312,Experiment,2021.1.4,359.9310372093038,
images\S5_F_S_02.png,images\S5_F_S_02_scrambled.png,5,sad,-20,female,2,,389,off,1,0.5,0.75,0.5,0.843,3,388,1,1,1,0,0,0,0,2,,,,,,0,118,118,118,,,,,,,,,,,,,,,,,,,,,,,,,,,,,,,,,,,,,,,,,,,,,,,,,,,,,,,,,700.8238256000004,701.3290192000004,701.3290192000004,702.0815616,702.0815616,702.5814266000016,702.5814266000016,703.4283747000009,703.4283747000009,None,num_4,0.28241780000098515,703.4283747000009,700.8238256000004,sad,0,Sad,703.7283120500006,None,None,703.7283120500006,None,,,,,,,,,,,,,,,,,,,,,,,,,,,,,,,,,,,,,,,,,,,,,,,,,,,,,18,001,1,21,400,550,2022_Oct_10_1312,Experiment,2021.1.4,359.9310372093038,
images\S9_F_S_03.png,images\S9_F_S_03_scrambled.png,9,sad,-30,female,1,,354,on,2,0.5,0.75,0.5,0.853,3,353,1,1,1,2,2,32,128,161,,,,,,0,119,119,119,,,,,,,,,,,,,,,,,,,,,,,,,,,,,,,,,,,,,,,,,,,,,,,,,,,,,,,,,703.7754467000013,704.2781372000009,704.2781372000009,705.0306337000002,705.0306337000002,705.5332878000008,705.5332878000008,706.3885914000002,706.3885914000002,None,num_4,0.2423307000008208,706.3885914000002,None,sad,0,Sad,706.6413713400008,None,None,706.6413713400008,None,,,,,,,,,,,,,,,,,,,,,,,,,,,,,,,,,,,,,,,,,,,,,,,,,,,,,18,001,1,21,400,550,2022_Oct_10_1312,Experiment,2021.1.4,359.9310372093038,
images\S5_F_S_01.png,images\S5_F_S_01_scrambled.png,5,sad,-10,female,3,,328,on,2,0.5,0.75,0.5,0.774,3,327,2,1,1,2,2,32,128,163,,,,,,0,120,120,120,,,,,,,,,,,,,,,,,,,,,,,,,,,,,,,,,,,,,,,,,,,,,,,,,,,,,,,,,706.6884379000003,707.1910587000002,707.1910587000002,707.9436483000009,707.9436483000009,708.4462922000002,708.4462922000002,709.2238131000013,709.2238131000013,None,num_4,0.5349592999991728,709.2238131000013,None,sad,0,Sad,709.7708812400007,None,None,709.7708812400007,None,,,,,,,,,,,,,,,,,,,,,,,,,,,,,,,,,,,,,,,,,,,,,,,,,,,,,18,001,1,21,400,550,2022_Oct_10_1312,Experiment,2021.1.4,359.9310372093038,
images\S2_M_S_01.png,images\S2_M_S_01_scrambled.png,2,sad,-10,male,3,,430,on,2,0.5,0.75,0.5,0.928,3,429,3,1,2,2,2,32,128,163,,,,,,0,121,121,121,,,,,,,,,,,,,,,,,,,,,,,,,,,,,,,,,,,,,,,,,,,,,,,,,,,,,,,,,709.8180336000005,710.3178985000013,710.3178985000013,711.0732575000002,711.0732575000002,711.5758828000016,711.5758828000016,712.5089111000016,712.5089111000016,None,num_4,0.2737465999998676,712.5089111000016,None,sad,0,Sad,712.797673440001,None,None,712.797673440001,None,,,,,,,,,,,,,,,,,,,,,,,,,,,,,,,,,,,,,,,,,,,,,,,,,,,,,18,001,1,21,400,550,2022_Oct_10_1312,Experiment,2021.1.4,359.9310372093038,
images\S3_F_H_01.png,images\S3_F_H_01_scrambled.png,3,happy,10,female,4,,253,off,1,0.5,0.75,0.5,0.776,3,252,1,1,1,0,0,0,0,4,,,,,,0,122,122,122,,,,,,,,,,,,,,,,,,,,,,,,,,,,,,,,,,,,,,,,,,,,,,,,,,,,,,,,,712.8421026000015,713.3419486000003,713.3419486000003,714.0917579000015,714.0917579000015,714.5916043000016,714.5916043000016,715.3746803000013,715.3746803000013,None,num_4,0.23215259999960836,715.3746803000013,None,sad,0,Happy,715.61626312,None,None,715.61626312,None,,,,,,,,,,,,,,,,,,,,,,,,,,,,,,,,,,,,,,,,,,,,,,,,,,,,,18,001,1,21,400,550,2022_Oct_10_1312,Experiment,2021.1.4,359.9310372093038,
images\S2_M_H_03.png,images\S2_M_H_03_scrambled.png,2,happy,30,male,6,,69,on,2,0.5,0.75,0.5,0.846,3,68,1,1,1,2,2,32,128,166,,,,,,0,123,123,123,,,,,,,,,,,,,,,,,,,,,,,,,,,,,,,,,,,,,,,,,,,,,,,,,,,,,,,,,715.6606784000014,716.1633763000009,716.1633763000009,716.9159066000011,716.9159066000011,717.4157093000013,717.4157093000013,718.268258600001,718.268258600001,None,num_6,0.2185338999988744,718.268258600001,None,happy,0,Happy,718.5098339700003,None,None,718.5098339700003,None,,,,,,,,,,,,,,,,,,,,,,,,,,,,,,,,,,,,,,,,,,,,,,,,,,,,,18,001,1,21,400,550,2022_Oct_10_1312,Experiment,2021.1.4,359.9310372093038,
images\blank.jpg,images\blank.jpg,none,none,none,none,0,,617,on,2,0.5,0.75,0.5,0.822,0,616,2,1,1,3,3,48,192,240,,,,,,0,124,124,124,,,,,,,,,,,,,,,,,,,,,,,,,,,,,,,,,,,,,,,,,,,,,,,,,,,,,,,,,718.5988813000004,719.0985185000009,719.0985185000009,719.8511034000003,719.8511034000003,720.3509494000009,720.3509494000009,721.1757567000004,721.1757567000004,721.1757567000004,None,,721.1757567000004,None,miss,0,,724.177521110001,None,None,724.177521110001,None,,,,,,,,,,,,,,,,,,,,,,,,,,,,,,,,,,,,,,,,,,,,,,,,,,,,,18,001,1,21,400,550,2022_Oct_10_1312,Experiment,2021.1.4,359.9310372093038,
images\S5_F_H_02.png,images\S5_F_H_02_scrambled.png,5,happy,20,female,5,,386,off,1,0.5,0.75,0.5,0.895,3,385,1,1,1,0,0,0,0,5,,,,,,0,125,125,125,,,,,,,,,,,,,,,,,,,,,,,,,,,,,,,,,,,,,,,,,,,,,,,,,,,,,,,,,724.2887780000001,724.7940221000008,724.7940221000008,725.5465692000016,725.5465692000016,726.0491597,726.0491597,726.9489122000014,726.9489122000014,None,num_6,0.2660006999994948,726.9489122000014,724.2887780000001,happy,0,Happy,727.22936244,None,None,727.22936244,None,,,,,,,,,,,,,,,,,,,,,,,,,,,,,,,,,,,,,,,,,,,,,,,,,,,,,18,001,1,21,400,550,2022_Oct_10_1312,Experiment,2021.1.4,359.9310372093038,
images\S3_F_H_01.png,images\S3_F_H_01_scrambled.png,3,happy,10,female,4,,553,on,2,0.5,0.75,0.5,0.78,3,552,1,1,1,2,2,32,128,164,,,,,,0,126,126,126,,,,,,,,,,,,,,,,,,,,,,,,,,,,,,,,,,,,,,,,,,,,,,,,,,,,,,,,,727.276577300001,727.7792024000009,727.7792024000009,728.5317613000007,728.5317613000007,729.0316147000012,729.0316147000012,729.8146780000006,729.8146780000006,None,num_4,0.8327410000001692,729.8146780000006,None,sad,0,Happy,730.6560555200008,None,None,730.6560555200008,None,,,,,,,,,,,,,,,,,,,,,,,,,,,,,,,,,,,,,,,,,,,,,,,,,,,,,18,001,1,21,400,550,2022_Oct_10_1312,Experiment,2021.1.4,359.9310372093038,
images\S1_F_S_01.png,images\S1_F_S_01_scrambled.png,1,sad,-10,female,3,,184,on,2,0.5,0.75,0.5,0.826,3,183,2,1,1,2,2,32,128,163,,,,,,0,127,127,127,,,,,,,,,,,,,,,,,,,,,,,,,,,,,,,,,,,,,,,,,,,,,,,,,,,,,,,,,730.7032792999998,731.2087062999999,731.2087062999999,731.9612395000004,731.9612395000004,732.4611246000004,732.4611246000004,733.2941838000006,733.2941838000006,None,num_6,0.2732887000001938,733.2941838000006,None,happy,0,Sad,733.5719820200006,None,None,733.5719820200006,None,,,,,,,,,,,,,,,,,,,,,,,,,,,,,,,,,,,,,,,,,,,,,,,,,,,,,18,001,1,21,400,550,2022_Oct_10_1312,Experiment,2021.1.4,359.9310372093038,
images\S8_M_S_01.png,images\S8_M_S_01_scrambled.png,8,sad,-10,male,3,,406,off,1,0.5,0.75,0.5,0.848,3,405,1,1,2,0,0,0,0,3,,,,,,0,128,128,128,,,,,,,,,,,,,,,,,,,,,,,,,,,,,,,,,,,,,,,,,,,,,,,,,,,,,,,,,733.6190489,734.124469800001,734.124469800001,734.8770216000012,734.8770216000012,735.3768627000009,735.3768627000009,736.2293879000008,736.2293879000008,None,num_4,0.2654170999994676,736.2293879000008,None,sad,0,Sad,736.5098990400012,None,None,736.5098990400012,None,,,,,,,,,,,,,,,,,,,,,,,,,,,,,,,,,,,,,,,,,,,,,,,,,,,,,18,001,1,21,400,550,2022_Oct_10_1312,Experiment,2021.1.4,359.9310372093038,
images\S5_F_S_02.png,images\S5_F_S_02_scrambled.png,5,sad,-20,female,2,,449,on,2,0.5,0.75,0.5,0.785,3,448,1,1,1,2,2,32,128,162,,,,,,0,129,129,129,,,,,,,,,,,,,,,,,,,,,,,,,,,,,,,,,,,,,,,,,,,,,,,,,,,,,,,,,736.5709521000008,737.07359,737.07359,737.8261407999998,737.8261407999998,738.3259413000014,738.3259413000014,739.1146001000016,739.1146001000016,None,num_4,0.652160499999809,739.1146001000016,None,sad,0,Sad,739.7810962400009,None,None,739.7810962400009,None,,,,,,,,,,,,,,,,,,,,,,,,,,,,,,,,,,,,,,,,,,,,,,,,,,,,,18,001,1,21,400,550,2022_Oct_10_1312,Experiment,2021.1.4,359.9310372093038,
images\S2_M_S_01.png,images\S2_M_S_01_scrambled.png,2,sad,-10,male,3,,250,off,1,0.5,0.75,0.5,0.778,3,249,1,1,1,0,0,0,0,3,,,,,,0,130,130,130,,,,,,,,,,,,,,,,,,,,,,,,,,,,,,,,,,,,,,,,,,,,,,,,,,,,,,,,,739.8282482000013,740.3308964000007,740.3308964000007,741.0834616000011,741.0834616000011,741.5888539000007,741.5888539000007,742.3691647000014,742.3691647000014,None,num_4,0.29345809999904304,742.3691647000014,None,sad,0,Sad,742.6912724000013,None,space,742.6912724000013,None,119.79485249999925,,,,,,,,,,,,,,,,,,,,,,,,,,,,,,,,,,,,,,,,,,,,,,,,,,,,18,001,1,21,400,550,2022_Oct_10_1312,Experiment,2021.1.4,359.9310372093038,
images\S8_M_S_01.png,images\S8_M_S_01_scrambled.png,8,sad,-10,male,3,,46,off,1,0.5,0.75,0.5,0.798,3,45,2,1,2,0,0,0,0,3,,,,,,0,131,131,131,,,,,,,,,,,,,,,,,,,,,,,,,,,,,,,,,,,,,,,,,,,,,,,,,,,,,,,,,862.5432197999999,863.0487221000003,863.0487221000003,863.8040318000003,863.8040318000003,864.3038879000014,864.3038879000014,865.1036412000012,865.1036412000012,None,num_4,0.21523829999932786,865.1036412000012,None,sad,0,Sad,865.334109640001,None,None,865.334109640001,None,,,,,,,,,,,,,,,,,,,,,,,,,,,,,,,,,,,,,,,,,,,,,,,,,,,,,18,001,1,21,400,550,2022_Oct_10_1312,Experiment,2021.1.4,359.9310372093038,
images\S9_F_H_03.png,images\S9_F_H_03_scrambled.png,9,happy,30,female,6,,591,on,2,0.5,0.75,0.5,0.814,3,590,1,1,1,2,2,32,128,166,,,,,,0,132,132,132,,,,,,,,,,,,,,,,,,,,,,,,,,,,,,,,,,,,,,,,,,,,,,,,,,,,,,,,,865.3979572000007,865.9034131000008,865.9034131000008,866.6559589000008,866.6559589000008,867.1585843000012,867.1585843000012,867.9749662000013,867.9749662000013,None,num_6,0.16817420000006678,867.9749662000013,None,happy,0,Happy,868.1611548600001,None,None,868.1611548600001,None,,,,,,,,,,,,,,,,,,,,,,,,,,,,,,,,,,,,,,,,,,,,,,,,,,,,,18,001,1,21,400,550,2022_Oct_10_1312,Experiment,2021.1.4,359.9310372093038,
images\S8_M_H_03.png,images\S8_M_H_03_scrambled.png,8,happy,30,male,6,,165,off,1,0.5,0.75,0.5,0.838,3,164,1,1,2,0,0,0,0,6,,,,,,0,133,133,133,,,,,,,,,,,,,,,,,,,,,,,,,,,,,,,,,,,,,,,,,,,,,,,,,,,,,,,,,868.2637429000006,868.7691701000003,868.7691701000003,869.5217348000006,869.5217348000006,870.0215848000007,870.0215848000007,870.8630421000016,870.8630421000016,None,num_6,0.2082009999994625,870.8630421000016,None,happy,0,Happy,871.0908016600013,None,None,871.0908016600013,None,,,,,,,,,,,,,,,,,,,,,,,,,,,,,,,,,,,,,,,,,,,,,,,,,,,,,18,001,1,21,400,550,2022_Oct_10_1312,Experiment,2021.1.4,359.9310372093038,
images\S5_F_S_03.png,images\S5_F_S_03_scrambled.png,5,sad,-30,female,1,,510,off,1,0.5,0.75,0.5,0.766,3,509,2,1,1,0,0,0,0,1,,,,,,0,134,134,134,,,,,,,,,,,,,,,,,,,,,,,,,,,,,,,,,,,,,,,,,,,,,,,,,,,,,,,,,871.1434132000013,871.6488492000008,871.6488492000008,872.4013986000009,872.4013986000009,872.9040136000003,872.9040136000003,873.6732483000014,873.6732483000014,None,num_4,0.21356199999900127,873.6732483000014,None,sad,0,Sad,873.8981995400001,None,None,873.8981995400001,None,,,,,,,,,,,,,,,,,,,,,,,,,,,,,,,,,,,,,,,,,,,,,,,,,,,,,18,001,1,21,400,550,2022_Oct_10_1312,Experiment,2021.1.4,359.9310372093038,
images\S7_F_H_01.png,images\S7_F_H_01_scrambled.png,7,happy,10,female,4,,97,on,2,0.5,0.75,0.5,0.786,3,96,1,1,1,2,2,32,128,164,,,,,,0,135,135,135,,,,,,,,,,,,,,,,,,,,,,,,,,,,,,,,,,,,,,,,,,,,,,,,,,,,,,,,,874.0036425000017,874.5090822000002,874.5090822000002,875.2616321000005,875.2616321000005,875.7642405000006,875.7642405000006,876.5529652000005,876.5529652000005,None,num_4,0.48643709999851126,876.5529652000005,None,sad,0,Happy,877.0500219199998,None,None,877.0500219199998,None,,,,,,,,,,,,,,,,,,,,,,,,,,,,,,,,,,,,,,,,,,,,,,,,,,,,,18,001,1,21,400,550,2022_Oct_10_1312,Experiment,2021.1.4,359.9310372093038,
images\S10_M_S_01.png,images\S10_M_S_01_scrambled.png,10,sad,-10,male,3,,118,on,2,0.5,0.75,0.5,0.832,3,117,2,1,1,2,2,32,128,163,,,,,,0,136,136,136,,,,,,,,,,,,,,,,,,,,,,,,,,,,,,,,,,,,,,,,,,,,,,,,,,,,,,,,,877.1582303000014,877.6636744000007,877.6636744000007,878.4134069000011,878.4134069000011,878.9160800000009,878.9160800000009,879.7519055000012,879.7519055000012,None,num_6,0.27086270000108925,879.7519055000012,None,happy,0,Sad,880.03238242,None,None,880.03238242,None,,,,,,,,,,,,,,,,,,,,,,,,,,,,,,,,,,,,,,,,,,,,,,,,,,,,,18,001,1,21,400,550,2022_Oct_10_1312,Experiment,2021.1.4,359.9310372093038,
images\S5_F_S_01.png,images\S5_F_S_01_scrambled.png,5,sad,-10,female,3,,28,off,1,0.5,0.75,0.5,0.861,3,27,1,1,2,0,0,0,0,3,,,,,,0,137,137,137,,,,,,,,,,,,,,,,,,,,,,,,,,,,,,,,,,,,,,,,,,,,,,,,,,,,,,,,,880.0962187000005,880.5988761000008,880.5988761000008,881.351432200001,881.351432200001,881.8512715000015,881.8512715000015,882.7177325000011,882.7177325000011,None,num_4,0.24900119999983872,882.7177325000011,None,sad,0,Sad,882.9842842500011,None,None,882.9842842500011,None,,,,,,,,,,,,,,,,,,,,,,,,,,,,,,,,,,,,,,,,,,,,,,,,,,,,,18,001,1,21,400,550,2022_Oct_10_1312,Experiment,2021.1.4,359.9310372093038,
images\S3_F_H_01.png,images\S3_F_H_01_scrambled.png,3,happy,10,female,4,,313,on,2,0.5,0.75,0.5,0.757,3,312,1,1,1,2,2,32,128,164,,,,,,0,138,138,138,,,,,,,,,,,,,,,,,,,,,,,,,,,,,,,,,,,,,,,,,,,,,,,,,,,,,,,,,883.0314331000009,883.5340802999999,883.5340802999999,884.2866351000011,884.2866351000011,884.7864826000005,884.7864826000005,885.5501066000015,885.5501066000015,None,num_4,0.24100589999943622,885.5501066000015,None,sad,0,Happy,885.8000566200003,None,None,885.8000566200003,None,,,,,,,,,,,,,,,,,,,,,,,,,,,,,,,,,,,,,,,,,,,,,,,,,,,,,18,001,1,21,400,550,2022_Oct_10_1312,Experiment,2021.1.4,359.9310372093038,
images\S3_F_S_01.png,images\S3_F_S_01_scrambled.png,3,sad,-10,female,3,,436,on,2,0.5,0.75,0.5,0.845,3,435,2,2,1,2,2,32,128,163,,,,,,0,139,139,139,,,,,,,,,,,,,,,,,,,,,,,,,,,,,,,,,,,,,,,,,,,,,,,,,,,,,,,,,885.8444489000012,886.3498692000012,886.3498692000012,887.1025279000005,887.1025279000005,887.6022699000005,887.6022699000005,888.4492307,888.4492307,None,num_4,0.245504799999253,888.4492307,None,sad,0,Sad,888.7102350400011,None,None,888.7102350400011,None,,,,,,,,,,,,,,,,,,,,,,,,,,,,,,,,,,,,,,,,,,,,,,,,,,,,,18,001,1,21,400,550,2022_Oct_10_1312,Experiment,2021.1.4,359.9310372093038,
