image_face,image_scram,avatar,emo,emotion,sex,trigeeg,dac,trial_no,NMES,stimtime,baseline,iti,face,scr_face,resp_time,index,count_NMES,count_avatar,count_emotion,dac1,dac2,dac1_output,dac2_output,trigs_out,nmes,practice_trials.thisRepN,practice_trials.thisTrialN,practice_trials.thisN,practice_trials.thisIndex,real_trials.thisRepN,real_trials.thisTrialN,real_trials.thisN,real_trials.thisIndex,trials.thisRepN,trials.thisTrialN,trials.thisN,trials.thisIndex,position,Welcome.started,Welcome.stopped,Welcome_resp.keys,Welcome_resp.rt,text_2.started,text_2.stopped,form_2.index,form_2.itemText,form_2.type,form_2.response,form_2.rt,key_resp_4.keys,key_resp_4.rt,key_resp_4.started,key_resp_4.stopped,instructions.started,instructions.stopped,end_instr.keys,end_instr.rt,instructions_2.started,instructions_2.stopped,end_instr_2.keys,end_instr_2.rt,end_instr_2.started,end_instr_2.stopped,instruct_keypress.started,instruct_keypress.stopped,end_instruct_keypress.keys,end_instruct_keypress.rt,start_practice.started,start_practice.stopped,start_practice_resp.keys,start_practice_resp.rt,prac_baseline.started,prac_baseline.stopped,prac_iti.started,prac_iti.stopped,prac_stimulus.started,prac_stimulus.stopped,prac_scram_stim.started,prac_scram_stim.stopped,prac_stimulus_resp.started,prac_stimulus_resp.stopped,prac_resp.keys,prac_resp.rt,prac_resp.started,prac_resp.stopped,transition_to_real.started,transition_to_real.stopped,end_transition_to_real.keys,end_transition_to_real.rt,fixation_cross.started,fixation_cross.stopped,tr_iti.started,tr_iti.stopped,stimulus.started,stimulus.stopped,scram_stim.started,scram_stim.stopped,response_txt.started,response_txt.stopped,response.keys,response.rt,response.started,response.stopped,participant_Resp,grouping,corAnswer,break_msg.started,break_msg.stopped,end_break.keys,end_break.started,end_break.stopped,end_break.rt,text.started,text.stopped,key_resp_3.keys,key_resp_3.rt,key_resp_3.started,key_resp_3.stopped,fix_cross_comf.started,fix_cross_comf.stopped,stimulation_comf.started,stimulation_comf.stopped,rate_instr.started,rate_instr.stopped,comfort_rating.response,comfort_rating.rt,comfort_rating.started,comfort_rating.stopped,resp_form.keys,resp_form.rt,resp_form.started,resp_form.stopped,survey_instructions.started,survey_instructions.stopped,key_resp_2.keys,key_resp_2.rt,key_resp_2.started,key_resp_2.stopped,form.index,form.itemText,form.type,form.response,form.rt,key_resp.keys,key_resp.rt,key_resp.started,key_resp.stopped,text_3.started,text_3.stopped,rate_smile.response,rate_smile.rt,rate_smile.started,rate_smile.stopped,key_resp_5.keys,key_resp_5.rt,key_resp_5.started,key_resp_5.stopped,end_msg.started,end_msg.stopped,end_resp.keys,end_resp.rt,end_resp.started,end_resp.stopped,participant,session,gender,age,LEFT,RIGHT,date,expName,psychopyVersion,frameRate,
,,,,,,,,,,,,,,,,,,,,,,,,,,,,,,,,,,,,,,H-S,35.6364623999998,None,num_add,5.18106059999991,,,,,,,,,,,,,,,,,,,,,,,,,,,,,,,,,,,,,,,,,,,,,,,,,,,,,,,,,,,,,,,,,,,,,,,,,,,,,,,,,,,,,,,,,,,,,,,,,,,,,,,,,,,,,,,,,,,,,,,,,,19,001,0,19,525,500,2022_Oct_11_1055,Experiment,2021.1.4,359.9556534584333,
,,,,,,,,,,,,,,,,,,,,,,,,,,,,,,,,,,,,,,,,,,,40.82640110000011,42.86743790000037,1,"This scale consistes of a number of words that describe different feelings and emotion. Read each item and then list the number from the scale below each word. Indicate (by clicking) to what extend you feel this way RIGHT NOW, that is, AT THE PRESENT MOMENT.",description,,,,,,,,,,,,,,,,,,,,,,,,,,,,,,,,,,,,,,,,,,,,,,,,,,,,,,,,,,,,,,,,,,,,,,,,,,,,,,,,,,,,,,,,,,,,,,,,,,,,,,,,,,,,,,,,,,,,,19,001,0,19,525,500,2022_Oct_11_1055,Experiment,2021.1.4,359.9556534584333,
,,,,,,,,,,,,,,,,,,,,,,,,,,,,,,,,,,,,,,,,,,,,,2,Interested,rating,4.0,32.53696130000026,,,,,,,,,,,,,,,,,,,,,,,,,,,,,,,,,,,,,,,,,,,,,,,,,,,,,,,,,,,,,,,,,,,,,,,,,,,,,,,,,,,,,,,,,,,,,,,,,,,,,,,,,,,,,,,,,,,19,001,0,19,525,500,2022_Oct_11_1055,Experiment,2021.1.4,359.9556534584333,
,,,,,,,,,,,,,,,,,,,,,,,,,,,,,,,,,,,,,,,,,,,,,3,Distressed,rating,1.0,28.591577000000143,,,,,,,,,,,,,,,,,,,,,,,,,,,,,,,,,,,,,,,,,,,,,,,,,,,,,,,,,,,,,,,,,,,,,,,,,,,,,,,,,,,,,,,,,,,,,,,,,,,,,,,,,,,,,,,,,,,19,001,0,19,525,500,2022_Oct_11_1055,Experiment,2021.1.4,359.9556534584333,
,,,,,,,,,,,,,,,,,,,,,,,,,,,,,,,,,,,,,,,,,,,,,4,Excited,rating,3.0,35.312906800000746,,,,,,,,,,,,,,,,,,,,,,,,,,,,,,,,,,,,,,,,,,,,,,,,,,,,,,,,,,,,,,,,,,,,,,,,,,,,,,,,,,,,,,,,,,,,,,,,,,,,,,,,,,,,,,,,,,,19,001,0,19,525,500,2022_Oct_11_1055,Experiment,2021.1.4,359.9556534584333,
,,,,,,,,,,,,,,,,,,,,,,,,,,,,,,,,,,,,,,,,,,,,,5,Upset,rating,1.0,41.477379399999336,,,,,,,,,,,,,,,,,,,,,,,,,,,,,,,,,,,,,,,,,,,,,,,,,,,,,,,,,,,,,,,,,,,,,,,,,,,,,,,,,,,,,,,,,,,,,,,,,,,,,,,,,,,,,,,,,,,19,001,0,19,525,500,2022_Oct_11_1055,Experiment,2021.1.4,359.9556534584333,
,,,,,,,,,,,,,,,,,,,,,,,,,,,,,,,,,,,,,,,,,,,,,6,Strong,rating,3.0,44.68253400000049,,,,,,,,,,,,,,,,,,,,,,,,,,,,,,,,,,,,,,,,,,,,,,,,,,,,,,,,,,,,,,,,,,,,,,,,,,,,,,,,,,,,,,,,,,,,,,,,,,,,,,,,,,,,,,,,,,,19,001,0,19,525,500,2022_Oct_11_1055,Experiment,2021.1.4,359.9556534584333,
,,,,,,,,,,,,,,,,,,,,,,,,,,,,,,,,,,,,,,,,,,,,,7,Guilty,rating,1.0,11.993559800000185,,,,,,,,,,,,,,,,,,,,,,,,,,,,,,,,,,,,,,,,,,,,,,,,,,,,,,,,,,,,,,,,,,,,,,,,,,,,,,,,,,,,,,,,,,,,,,,,,,,,,,,,,,,,,,,,,,,19,001,0,19,525,500,2022_Oct_11_1055,Experiment,2021.1.4,359.9556534584333,
,,,,,,,,,,,,,,,,,,,,,,,,,,,,,,,,,,,,,,,,,,,,,8,Scared,rating,2.0,14.795788399999765,,,,,,,,,,,,,,,,,,,,,,,,,,,,,,,,,,,,,,,,,,,,,,,,,,,,,,,,,,,,,,,,,,,,,,,,,,,,,,,,,,,,,,,,,,,,,,,,,,,,,,,,,,,,,,,,,,,19,001,0,19,525,500,2022_Oct_11_1055,Experiment,2021.1.4,359.9556534584333,
,,,,,,,,,,,,,,,,,,,,,,,,,,,,,,,,,,,,,,,,,,,,,9,Hostile,rating,1.0,10.84795159999976,,,,,,,,,,,,,,,,,,,,,,,,,,,,,,,,,,,,,,,,,,,,,,,,,,,,,,,,,,,,,,,,,,,,,,,,,,,,,,,,,,,,,,,,,,,,,,,,,,,,,,,,,,,,,,,,,,,19,001,0,19,525,500,2022_Oct_11_1055,Experiment,2021.1.4,359.9556534584333,
,,,,,,,,,,,,,,,,,,,,,,,,,,,,,,,,,,,,,,,,,,,,,10,Enthusiastic,rating,4.0,11.735784100000274,,,,,,,,,,,,,,,,,,,,,,,,,,,,,,,,,,,,,,,,,,,,,,,,,,,,,,,,,,,,,,,,,,,,,,,,,,,,,,,,,,,,,,,,,,,,,,,,,,,,,,,,,,,,,,,,,,,19,001,0,19,525,500,2022_Oct_11_1055,Experiment,2021.1.4,359.9556534584333,
,,,,,,,,,,,,,,,,,,,,,,,,,,,,,,,,,,,,,,,,,,,,,11,Proud,rating,3.0,11.811922500000037,,,,,,,,,,,,,,,,,,,,,,,,,,,,,,,,,,,,,,,,,,,,,,,,,,,,,,,,,,,,,,,,,,,,,,,,,,,,,,,,,,,,,,,,,,,,,,,,,,,,,,,,,,,,,,,,,,,19,001,0,19,525,500,2022_Oct_11_1055,Experiment,2021.1.4,359.9556534584333,
,,,,,,,,,,,,,,,,,,,,,,,,,,,,,,,,,,,,,,,,,,,,,12,Irritable,rating,1.0,10.447593999999299,,,,,,,,,,,,,,,,,,,,,,,,,,,,,,,,,,,,,,,,,,,,,,,,,,,,,,,,,,,,,,,,,,,,,,,,,,,,,,,,,,,,,,,,,,,,,,,,,,,,,,,,,,,,,,,,,,,19,001,0,19,525,500,2022_Oct_11_1055,Experiment,2021.1.4,359.9556534584333,
,,,,,,,,,,,,,,,,,,,,,,,,,,,,,,,,,,,,,,,,,,,,,13,Alert,rating,3.0,11.138140000000021,,,,,,,,,,,,,,,,,,,,,,,,,,,,,,,,,,,,,,,,,,,,,,,,,,,,,,,,,,,,,,,,,,,,,,,,,,,,,,,,,,,,,,,,,,,,,,,,,,,,,,,,,,,,,,,,,,,19,001,0,19,525,500,2022_Oct_11_1055,Experiment,2021.1.4,359.9556534584333,
,,,,,,,,,,,,,,,,,,,,,,,,,,,,,,,,,,,,,,,,,,,,,14,Ashamed,rating,1.0,10.807672099999763,,,,,,,,,,,,,,,,,,,,,,,,,,,,,,,,,,,,,,,,,,,,,,,,,,,,,,,,,,,,,,,,,,,,,,,,,,,,,,,,,,,,,,,,,,,,,,,,,,,,,,,,,,,,,,,,,,,19,001,0,19,525,500,2022_Oct_11_1055,Experiment,2021.1.4,359.9556534584333,
,,,,,,,,,,,,,,,,,,,,,,,,,,,,,,,,,,,,,,,,,,,,,15,Inspired,rating,4.0,9.689449800000148,,,,,,,,,,,,,,,,,,,,,,,,,,,,,,,,,,,,,,,,,,,,,,,,,,,,,,,,,,,,,,,,,,,,,,,,,,,,,,,,,,,,,,,,,,,,,,,,,,,,,,,,,,,,,,,,,,,19,001,0,19,525,500,2022_Oct_11_1055,Experiment,2021.1.4,359.9556534584333,
,,,,,,,,,,,,,,,,,,,,,,,,,,,,,,,,,,,,,,,,,,,,,16,Nervous,rating,4.0,8.238022700000329,,,,,,,,,,,,,,,,,,,,,,,,,,,,,,,,,,,,,,,,,,,,,,,,,,,,,,,,,,,,,,,,,,,,,,,,,,,,,,,,,,,,,,,,,,,,,,,,,,,,,,,,,,,,,,,,,,,19,001,0,19,525,500,2022_Oct_11_1055,Experiment,2021.1.4,359.9556534584333,
,,,,,,,,,,,,,,,,,,,,,,,,,,,,,,,,,,,,,,,,,,,,,17,Determined,rating,3.0,9.759280399999625,,,,,,,,,,,,,,,,,,,,,,,,,,,,,,,,,,,,,,,,,,,,,,,,,,,,,,,,,,,,,,,,,,,,,,,,,,,,,,,,,,,,,,,,,,,,,,,,,,,,,,,,,,,,,,,,,,,19,001,0,19,525,500,2022_Oct_11_1055,Experiment,2021.1.4,359.9556534584333,
,,,,,,,,,,,,,,,,,,,,,,,,,,,,,,,,,,,,,,,,,,,,,18,Attentive,rating,3.0,12.765985799999726,,,,,,,,,,,,,,,,,,,,,,,,,,,,,,,,,,,,,,,,,,,,,,,,,,,,,,,,,,,,,,,,,,,,,,,,,,,,,,,,,,,,,,,,,,,,,,,,,,,,,,,,,,,,,,,,,,,19,001,0,19,525,500,2022_Oct_11_1055,Experiment,2021.1.4,359.9556534584333,
,,,,,,,,,,,,,,,,,,,,,,,,,,,,,,,,,,,,,,,,,,,,,19,Jittery,rating,2.0,16.1131177999996,,,,,,,,,,,,,,,,,,,,,,,,,,,,,,,,,,,,,,,,,,,,,,,,,,,,,,,,,,,,,,,,,,,,,,,,,,,,,,,,,,,,,,,,,,,,,,,,,,,,,,,,,,,,,,,,,,,19,001,0,19,525,500,2022_Oct_11_1055,Experiment,2021.1.4,359.9556534584333,
,,,,,,,,,,,,,,,,,,,,,,,,,,,,,,,,,,,,,,,,,,,,,20,Active,rating,2.0,19.08571000000029,,,,,,,,,,,,,,,,,,,,,,,,,,,,,,,,,,,,,,,,,,,,,,,,,,,,,,,,,,,,,,,,,,,,,,,,,,,,,,,,,,,,,,,,,,,,,,,,,,,,,,,,,,,,,,,,,,,19,001,0,19,525,500,2022_Oct_11_1055,Experiment,2021.1.4,359.9556534584333,
,,,,,,,,,,,,,,,,,,,,,,,,,,,,,,,,,,,,,,,,,,,,,21,Afraid,rating,3.0,20.24879300000066,,,,,,,,,,,,,,,,,,,,,,,,,,,,,,,,,,,,,,,,,,,,,,,,,,,,,,,,,,,,,,,,,,,,,,,,,,,,,,,,,,,,,,,,,,,,,,,,,,,,,,,,,,,,,,,,,,,19,001,0,19,525,500,2022_Oct_11_1055,Experiment,2021.1.4,359.9556534584333,
,,,,,,,,,,,,,,,,,,,,,,,,,,,,,,,,,,,,,,,,,,,,,22,Press the + button to submit your answers,description,,,,,,,,,,,,,,,,,,,,,,,,,,,,,,,,,,,,,,,,,,,,,,,,,,,,,,,,,,,,,,,,,,,,,,,,,,,,,,,,,,,,,,,,,,,,,,,,,,,,,,,,,,,,,,,,,,,,,19,001,0,19,525,500,2022_Oct_11_1055,Experiment,2021.1.4,359.9556534584333,
,,,,,,,,,,,,,,,,,,,,,,,,,,,,,,,,,,,,,,,,,,,,,,,,,,num_add,93.01703030000044,50.84829189999982,None,,,,,,,,,,,,,,,,,,,,,,,,,,,,,,,,,,,,,,,,,,,,,,,,,,,,,,,,,,,,,,,,,,,,,,,,,,,,,,,,,,,,,,,,,,,,,,,,,,,,,,,,,,,,,,,19,001,0,19,525,500,2022_Oct_11_1055,Experiment,2021.1.4,359.9556534584333,
,,,,,,,,,,,,,,,,,,,,,,,,,,,,,,,,,,,,,,,,,,,,,,,,,,,,,,143.8807601999997,None,num_add,16.120754399999896,,,,,,,,,,,,,,,,,,,,,,,,,,,,,,,,,,,,,,,,,,,,,,,,,,,,,,,,,,,,,,,,,,,,,,,,,,,,,,,,,,,,,,,,,,,,,,,,,,,,,,,,,,,19,001,0,19,525,500,2022_Oct_11_1055,Experiment,2021.1.4,359.9556534584333,
,,,,,,,,,,,,,,,,,,,,,,,,,,,,,,,,,,,,,,,,,,,,,,,,,,,,,,,,,,160.0090295,None,num_add,15.080569400000059,160.0090295,None,,,,,,,,,,,,,,,,,,,,,,,,,,,,,,,,,,,,,,,,,,,,,,,,,,,,,,,,,,,,,,,,,,,,,,,,,,,,,,,,,,,,,,,,,,,,,,,,,,,,,19,001,0,19,525,500,2022_Oct_11_1055,Experiment,2021.1.4,359.9556534584333,
,,,,,,,,,,,,,,,,,,,,,,,,,,,,,,,,,,,,,,,,,,,,,,,,,,,,,,,,,,,,,,,,175.11268800000016,None,num_add,11.288739099999475,,,,,,,,,,,,,,,,,,,,,,,,,,,,,,,,,,,,,,,,,,,,,,,,,,,,,,,,,,,,,,,,,,,,,,,,,,,,,,,,,,,,,,,,,,,,,,,,,19,001,0,19,525,500,2022_Oct_11_1055,Experiment,2021.1.4,359.9556534584333,
,,,,,,,,,,,,,,,,,,,,,,,,,,,,,,,,,,,,,,,,,,,,,,,,,,,,,,,,,,,,,,,,,,,,186.41198059999988,None,space,20.909096899999895,,,,,,,,,,,,,,,,,,,,,,,,,,,,,,,,,,,,,,,,,,,,,,,,,,,,,,,,,,,,,,,,,,,,,,,,,,,,,,,,,,,,,,,,,,,,,19,001,0,19,525,500,2022_Oct_11_1055,Experiment,2021.1.4,359.9556534584333,
images\S22_M_S_02.png,images\S22_M_S_02_scrambled.png,22,Sad,0.2,M,0,0,practice,off,1,0.5,0.75,0.5,0.751,3,,,,,,,,,,,0,0,0,3,,,,,,,,,,,,,,,,,,,,,,,,,,,,,,,,,,,,,,,,,,,207.50545359999978,208.01087970000026,208.01087970000026,208.76617280000028,208.76617280000028,209.26882300000034,209.26882300000034,210.02692219999972,210.02692219999972,None,num_4,0.3108129000002009,210.02692219999972,None,,,,,,,,,,,,,,,,,,,,,,,,,,,,,,,,,,,,,,,,,,,,,,,,,,,,,,,,,,,,,,,,,,,,,,,,,,,,,,,19,001,0,19,525,500,2022_Oct_11_1055,Experiment,2021.1.4,359.9556534584333,
images\S22_M_S_03.png,images\S22_M_S_03_scrambled.png,22,Sad,0.3,M,0,0,practice,on,2,0.5,0.75,0.5,0.794,3,,,,,,,,,,,0,1,1,7,,,,,,,,,,,,,,,,,,,,,,,,,,,,,,,,,,,,,,,,,,,210.43510760000026,210.9377629999999,210.9377629999999,211.68750420000015,211.68750420000015,212.1901743999997,212.1901743999997,212.98994459999994,212.98994459999994,None,num_6,0.09169549999933224,212.98994459999994,None,,,,,,,,,,,,,,,,,,,,,,,,,,,,,,,,,,,,,,,,,,,,,,,,,,,,,,,,,,,,,,,,,,,,,,,,,,,,,,,19,001,0,19,525,500,2022_Oct_11_1055,Experiment,2021.1.4,359.9556534584333,
images\S22_M_S_02.png,images\S22_M_S_02_scrambled.png,22,Sad,0.2,M,0,0,practice,on,2,0.5,0.75,0.5,0.783,3,,,,,,,,,,,0,2,2,6,,,,,,,,,,,,,,,,,,,,,,,,,,,,,,,,,,,,,,,,,,,213.15370970000004,213.65635780000048,213.65635780000048,214.4090169000001,214.4090169000001,214.9115136999999,214.9115136999999,215.69737760000044,215.69737760000044,None,num_6,1.4965036999992662,215.69737760000044,None,,,,,,,,,,,,,,,,,,,,,,,,,,,,,,,,,,,,,,,,,,,,,,,,,,,,,,,,,,,,,,,,,,,,,,,,,,,,,,,19,001,0,19,525,500,2022_Oct_11_1055,Experiment,2021.1.4,359.9556534584333,
images\S22_M_S_03.png,images\S22_M_S_03_scrambled.png,22,Sad,0.3,M,0,0,practice,on,2,0.5,0.75,0.5,0.87,3,,,,,,,,,,,0,3,3,4,,,,,,,,,,,,,,,,,,,,,,,,,,,,,,,,,,,,,,,,,,,217.2496673000005,217.75511890000053,217.75511890000053,218.5104510000001,218.5104510000001,219.0158123000001,219.0158123000001,219.89053310000054,219.89053310000054,None,num_6,0.967214199999944,219.89053310000054,None,,,,,,,,,,,,,,,,,,,,,,,,,,,,,,,,,,,,,,,,,,,,,,,,,,,,,,,,,,,,,,,,,,,,,,,,,,,,,,,19,001,0,19,525,500,2022_Oct_11_1055,Experiment,2021.1.4,359.9556534584333,
images\S21_F_H_02.png,images\S21_F_H_02_scrambled.png,21,Happy,-0.2,F,0,0,practice,off,1,0.5,0.75,0.5,0.91,3,,,,,,,,,,,0,4,4,1,,,,,,,,,,,,,,,,,,,,,,,,,,,,,,,,,,,,,,,,,,,220.9485235000002,221.45116959999996,221.45116959999996,222.20648470000015,222.20648470000015,222.70911609999985,222.70911609999985,223.6199171999997,223.6199171999997,None,num_4,0.3097889999999097,223.6199171999997,None,,,,,,,,,,,,,,,,,,,,,,,,,,,,,,,,,,,,,,,,,,,,,,,,,,,,,,,,,,,,,,,,,,,,,,,,,,,,,,,19,001,0,19,525,500,2022_Oct_11_1055,Experiment,2021.1.4,359.9556534584333,
images\S22_M_S_01.png,images\S22_M_S_01_scrambled.png,22,Sad,0.1,M,0,0,practice,on,2,0.5,0.75,0.5,0.867,3,,,,,,,,,,,0,5,5,5,,,,,,,,,,,,,,,,,,,,,,,,,,,,,,,,,,,,,,,,,,,224.0225750999998,224.5279688999999,224.5279688999999,225.2777403,225.2777403,225.77759229999992,225.77759229999992,226.64961909999965,226.64961909999965,None,num_6,1.4562148000004527,226.64961909999965,None,,,,,,,,,,,,,,,,,,,,,,,,,,,,,,,,,,,,,,,,,,,,,,,,,,,,,,,,,,,,,,,,,,,,,,,,,,,,,,,19,001,0,19,525,500,2022_Oct_11_1055,Experiment,2021.1.4,359.9556534584333,
images\S22_M_H_02.png,images\S22_M_H_02_scrambled.png,22,Happy,-0.2,M,0,0,practice,off,1,0.5,0.75,0.5,0.883,3,,,,,,,,,,,0,6,6,2,,,,,,,,,,,,,,,,,,,,,,,,,,,,,,,,,,,,,,,,,,,228.19906900000024,228.70457570000053,228.70457570000053,229.4542462999998,229.4542462999998,229.95409879999988,229.95409879999988,230.83990489999996,230.83990489999996,None,num_6,0.26644299999952636,230.83990489999996,None,,,,,,,,,,,,,,,,,,,,,,,,,,,,,,,,,,,,,,,,,,,,,,,,,,,,,,,,,,,,,,,,,,,,,,,,,,,,,,,19,001,0,19,525,500,2022_Oct_11_1055,Experiment,2021.1.4,359.9556534584333,
images\S21_F_H_01.png,images\S21_F_H_01_scrambled.png,21,Happy,-0.1,F,0,0,practice,off,1,0.5,0.75,0.5,0.853,3,,,,,,,,,,,0,7,7,0,,,,,,,,,,,,,,,,,,,,,,,,,,,,,,,,,,,,,,,,,,,231.22866609999983,231.73131190000004,231.73131190000004,232.48665729999993,232.48665729999993,232.9893608000002,232.9893608000002,233.84463049999977,233.84463049999977,None,num_6,0.5333629000006113,233.84463049999977,None,,,,,,,,,,,,,,,,,,,,,,,,,,,,,,,,,,,,,,,,,,,,,,,,,,,,,,,,,,,,,,,,,,,,,,,,,,,,,,,19,001,0,19,525,500,2022_Oct_11_1055,Experiment,2021.1.4,359.9556534584333,
,,,,,,,,,,,,,,,,,,,,,,,,,,,,,,,,,,,,,,,,,,,,,,,,,,,,,,,,,,,,,,,,,,,,,,,,,,,,,,,,,,,,,,234.4054683000004,None,space,52.30750280000029,,,,,,,,,,,,,,,,,,,,,,,,,,,,,,,,,,,,,,,,,,,,,,,,,,,,,,,,,,,,,,,,,,,,,,,,,,,19,001,0,19,525,500,2022_Oct_11_1055,Experiment,2021.1.4,359.9556534584333,
images\S1_F_H_02.png,images\S1_F_H_02_scrambled.png,1,happy,20,female,5,,122,off,1,0.5,0.75,0.5,0.751,3,121,1,1,1,0,0,0,0,5,,,,,,0,0,0,0,,,,,,,,,,,,,,,,,,,,,,,,,,,,,,,,,,,,,,,,,,,,,,,,,,,,,,,,,287.2279808000003,287.7306911000005,287.7306911000005,288.48600309999983,288.48600309999983,288.9886373999998,288.9886373999998,289.7439303000001,289.7439303000001,None,num_4,0.4337582000007387,289.7439303000001,None,happy,1,Happy,290.19659299999967,None,None,290.19659299999967,None,,,,,,,,,,,,,,,,,,,,,,,,,,,,,,,,,,,,,,,,,,,,,,,,,,,,,19,001,0,19,525,500,2022_Oct_11_1055,Experiment,2021.1.4,359.9556534584333,
images\S8_M_H_01.png,images\S8_M_H_01_scrambled.png,8,happy,10,male,4,,223,on,2,0.5,0.75,0.5,0.864,3,222,1,1,1,2,2,32,128,164,,,,,,0,1,1,1,,,,,,,,,,,,,,,,,,,,,,,,,,,,,,,,,,,,,,,,,,,,,,,,,,,,,,,,,290.2826610000002,290.7853156000001,290.7853156000001,291.54063640000004,291.54063640000004,292.04336220000005,292.04336220000005,292.90965210000013,292.90965210000013,None,num_6,0.435855900000206,292.90965210000013,None,sad,1,Happy,293.3511381799997,None,None,293.3511381799997,None,,,,,,,,,,,,,,,,,,,,,,,,,,,,,,,,,,,,,,,,,,,,,,,,,,,,,19,001,0,19,525,500,2022_Oct_11_1055,Experiment,2021.1.4,359.9556534584333,
images\S3_F_H_01.png,images\S3_F_H_01_scrambled.png,3,happy,10,female,4,,253,off,1,0.5,0.75,0.5,0.776,3,252,1,1,2,0,0,0,0,4,,,,,,0,2,2,2,,,,,,,,,,,,,,,,,,,,,,,,,,,,,,,,,,,,,,,,,,,,,,,,,,,,,,,,,293.4372358999999,293.9398554999998,293.9398554999998,294.69521650000024,294.69521650000024,295.1978657999998,295.1978657999998,295.97811210000054,295.97811210000054,None,num_6,0.7034120999996958,295.97811210000054,None,sad,1,Happy,296.68623767999975,None,None,296.68623767999975,None,,,,,,,,,,,,,,,,,,,,,,,,,,,,,,,,,,,,,,,,,,,,,,,,,,,,,19,001,0,19,525,500,2022_Oct_11_1055,Experiment,2021.1.4,359.9556534584333,
images\S7_F_H_01.png,images\S7_F_H_01_scrambled.png,7,happy,10,female,4,,97,on,2,0.5,0.75,0.5,0.786,3,96,1,1,3,2,2,32,128,164,,,,,,0,3,3,3,,,,,,,,,,,,,,,,,,,,,,,,,,,,,,,,,,,,,,,,,,,,,,,,,,,,,,,,,296.79453209999974,297.2971576,297.2971576,298.04977039999994,298.04977039999994,298.5551410999997,298.5551410999997,299.34388820000004,299.34388820000004,None,num_6,0.32140139999955863,299.34388820000004,None,sad,1,Happy,299.6742056800001,None,None,299.6742056800001,None,,,,,,,,,,,,,,,,,,,,,,,,,,,,,,,,,,,,,,,,,,,,,,,,,,,,,19,001,0,19,525,500,2022_Oct_11_1055,Experiment,2021.1.4,359.9556534584333,
images\S9_F_S_01.png,images\S9_F_S_01_scrambled.png,9,sad,-10,female,3,,472,on,2,0.5,0.75,0.5,0.949,3,471,2,1,1,2,2,32,128,163,,,,,,0,4,4,4,,,,,,,,,,,,,,,,,,,,,,,,,,,,,,,,,,,,,,,,,,,,,,,,,,,,,,,,,299.7602861000005,300.2657205000005,300.2657205000005,301.0209835000005,301.0209835000005,301.5264189999998,301.5264189999998,302.47888729999977,302.47888729999977,None,num_4,0.3389236000002711,302.47888729999977,None,happy,1,Sad,302.8259958799997,None,None,302.8259958799997,None,,,,,,,,,,,,,,,,,,,,,,,,,,,,,,,,,,,,,,,,,,,,,,,,,,,,,19,001,0,19,525,500,2022_Oct_11_1055,Experiment,2021.1.4,359.9556534584333,
images\S6_M_H_02.png,images\S6_M_H_02_scrambled.png,6,happy,20,male,5,,152,off,1,0.5,0.75,0.5,0.832,3,151,1,1,1,0,0,0,0,5,,,,,,0,5,5,5,,,,,,,,,,,,,,,,,,,,,,,,,,,,,,,,,,,,,,,,,,,,,,,,,,,,,,,,,302.9148661999998,303.42029960000036,303.42029960000036,304.17281550000007,304.17281550000007,304.67546539999967,304.67546539999967,305.51419989999977,305.51419989999977,None,num_4,0.7915027999997619,305.51419989999977,None,happy,1,Happy,306.31935646000017,None,None,306.31935646000017,None,,,,,,,,,,,,,,,,,,,,,,,,,,,,,,,,,,,,,,,,,,,,,,,,,,,,,19,001,0,19,525,500,2022_Oct_11_1055,Experiment,2021.1.4,359.9556534584333,
images\S1_F_S_03.png,images\S1_F_S_03_scrambled.png,1,sad,-30,female,1,,186,on,2,0.5,0.75,0.5,0.882,3,185,1,1,1,2,2,32,128,161,,,,,,0,6,6,6,,,,,,,,,,,,,,,,,,,,,,,,,,,,,,,,,,,,,,,,,,,,,,,,,,,,,,,,,306.3999021999998,306.89973980000013,306.89973980000013,307.6551147,307.6551147,308.1576806000003,308.1576806000003,309.0407412000004,309.0407412000004,None,num_6,0.600903699999435,309.0407412000004,None,sad,1,Sad,309.6517009599998,None,None,309.6517009599998,None,,,,,,,,,,,,,,,,,,,,,,,,,,,,,,,,,,,,,,,,,,,,,,,,,,,,,19,001,0,19,525,500,2022_Oct_11_1055,Experiment,2021.1.4,359.9556534584333,
images\S4_M_H_01.png,images\S4_M_H_01_scrambled.png,4,happy,10,male,4,,319,on,2,0.5,0.75,0.5,0.788,3,318,2,1,1,2,2,32,128,164,,,,,,0,7,7,7,,,,,,,,,,,,,,,,,,,,,,,,,,,,,,,,,,,,,,,,,,,,,,,,,,,,,,,,,309.73496989999967,310.2403798000005,310.2403798000005,310.99015020000024,310.99015020000024,311.49279209999986,311.49279209999986,312.2843167000001,312.2843167000001,None,num_6,0.5013492999996743,312.2843167000001,None,sad,1,Happy,312.79515238,None,None,312.79515238,None,,,,,,,,,,,,,,,,,,,,,,,,,,,,,,,,,,,,,,,,,,,,,,,,,,,,,19,001,0,19,525,500,2022_Oct_11_1055,Experiment,2021.1.4,359.9556534584333,
images\S3_F_S_01.png,images\S3_F_S_01_scrambled.png,3,sad,-10,female,3,,376,off,1,0.5,0.75,0.5,0.793,3,375,1,1,1,0,0,0,0,3,,,,,,0,8,8,8,,,,,,,,,,,,,,,,,,,,,,,,,,,,,,,,,,,,,,,,,,,,,,,,,,,,,,,,,312.8812324999999,313.38397760000043,313.38397760000043,314.13641389999975,314.13641389999975,314.63913279999997,314.63913279999997,315.436017,315.436017,None,num_6,0.6455873000004431,315.436017,None,sad,1,Sad,316.0969484599996,None,None,316.0969484599996,None,,,,,,,,,,,,,,,,,,,,,,,,,,,,,,,,,,,,,,,,,,,,,,,,,,,,,19,001,0,19,525,500,2022_Oct_11_1055,Experiment,2021.1.4,359.9556534584333,
images\S9_F_S_01.png,images\S9_F_S_01_scrambled.png,9,sad,-10,female,3,,352,on,2,0.5,0.75,0.5,0.83,3,351,1,1,2,2,2,32,128,163,,,,,,0,9,9,9,,,,,,,,,,,,,,,,,,,,,,,,,,,,,,,,,,,,,,,,,,,,,,,,,,,,,,,,,316.14690659999997,316.64956489999986,316.64956489999986,317.39929290000055,317.39929290000055,317.9047375,317.9047375,318.74056569999993,318.74056569999993,None,num_4,0.30124999999952706,318.74056569999993,None,happy,1,Sad,319.0515527799996,None,None,319.0515527799996,None,,,,,,,,,,,,,,,,,,,,,,,,,,,,,,,,,,,,,,,,,,,,,,,,,,,,,19,001,0,19,525,500,2022_Oct_11_1055,Experiment,2021.1.4,359.9556534584333,
images\S2_M_S_01.png,images\S2_M_S_01_scrambled.png,2,sad,-10,male,3,,430,on,2,0.5,0.75,0.5,0.928,3,429,2,1,3,2,2,32,128,163,,,,,,0,10,10,10,,,,,,,,,,,,,,,,,,,,,,,,,,,,,,,,,,,,,,,,,,,,,,,,,,,,,,,,,319.1348549000004,319.6402846000001,319.6402846000001,320.39561010000034,320.39561010000034,320.90099459999965,320.90099459999965,321.83415239999977,321.83415239999977,None,num_6,0.27991259999998874,321.83415239999977,None,sad,1,Sad,322.1312897399997,None,None,322.1312897399997,None,,,,,,,,,,,,,,,,,,,,,,,,,,,,,,,,,,,,,,,,,,,,,,,,,,,,,19,001,0,19,525,500,2022_Oct_11_1055,Experiment,2021.1.4,359.9556534584333,
images\S1_F_S_02.png,images\S1_F_S_02_scrambled.png,1,sad,-20,female,2,,305,on,2,0.5,0.75,0.5,0.855,3,304,3,1,1,2,2,32,128,162,,,,,,0,11,11,11,,,,,,,,,,,,,,,,,,,,,,,,,,,,,,,,,,,,,,,,,,,,,,,,,,,,,,,,,322.24221769999986,322.7448881999999,322.7448881999999,323.5002003999998,323.5002003999998,324.0056076000001,324.0056076000001,324.8608568999998,324.8608568999998,None,num_4,0.3169084000001021,324.8608568999998,None,happy,1,Sad,325.1858341199997,None,None,325.1858341199997,None,,,,,,,,,,,,,,,,,,,,,,,,,,,,,,,,,,,,,,,,,,,,,,,,,,,,,19,001,0,19,525,500,2022_Oct_11_1055,Experiment,2021.1.4,359.9556534584333,
images\S9_F_H_01.png,images\S9_F_H_01_scrambled.png,9,happy,10,female,4,,529,off,1,0.5,0.75,0.5,0.82,3,528,1,1,1,0,0,0,0,4,,,,,,0,12,12,12,,,,,,,,,,,,,,,,,,,,,,,,,,,,,,,,,,,,,,,,,,,,,,,,,,,,,,,,,325.29684650000036,325.7995178000001,325.7995178000001,326.5520137000003,326.5520137000003,327.05469809999977,327.05469809999977,327.8766107000001,327.8766107000001,None,num_4,0.508753600000091,327.8766107000001,None,happy,1,Happy,328.39864206,None,None,328.39864206,None,,,,,,,,,,,,,,,,,,,,,,,,,,,,,,,,,,,,,,,,,,,,,,,,,,,,,19,001,0,19,525,500,2022_Oct_11_1055,Experiment,2021.1.4,359.9556534584333,
images\S8_M_H_01.png,images\S8_M_H_01_scrambled.png,8,happy,10,male,4,,43,off,1,0.5,0.75,0.5,0.837,3,42,2,1,2,0,0,0,0,4,,,,,,0,13,13,13,,,,,,,,,,,,,,,,,,,,,,,,,,,,,,,,,,,,,,,,,,,,,,,,,,,,,,,,,328.44587479999973,328.9485205000001,328.9485205000001,329.6982926999999,329.6982926999999,330.2037631000003,330.2037631000003,331.04509529999996,331.04509529999996,None,num_4,0.3243769999999131,331.04509529999996,None,happy,1,Happy,331.38379646000027,None,None,331.38379646000027,None,,,,,,,,,,,,,,,,,,,,,,,,,,,,,,,,,,,,,,,,,,,,,,,,,,,,,19,001,0,19,525,500,2022_Oct_11_1055,Experiment,2021.1.4,359.9556534584333,
images\S9_F_H_02.png,images\S9_F_H_02_scrambled.png,9,happy,20,female,5,,410,off,1,0.5,0.75,0.5,0.753,3,409,3,1,1,0,0,0,0,5,,,,,,0,14,14,14,,,,,,,,,,,,,,,,,,,,,,,,,,,,,,,,,,,,,,,,,,,,,,,,,,,,,,,,,331.4921439999998,331.9975516000004,331.9975516000004,332.75012330000027,332.75012330000027,333.25552440000047,333.25552440000047,334.0108068999998,334.0108068999998,None,num_4,0.40681469999981346,334.0108068999998,None,happy,1,Happy,334.42739146000036,None,None,334.42739146000036,None,,,,,,,,,,,,,,,,,,,,,,,,,,,,,,,,,,,,,,,,,,,,,,,,,,,,,19,001,0,19,525,500,2022_Oct_11_1055,Experiment,2021.1.4,359.9556534584333,
images\S8_M_S_02.png,images\S8_M_S_02_scrambled.png,8,sad,-20,male,2,,347,on,2,0.5,0.75,0.5,0.884,3,346,1,1,1,2,2,32,128,162,,,,,,0,15,15,15,,,,,,,,,,,,,,,,,,,,,,,,,,,,,,,,,,,,,,,,,,,,,,,,,,,,,,,,,334.51344270000027,335.0160834999997,335.0160834999997,335.7658229999997,335.7658229999997,336.2685799000001,336.2685799000001,337.1570590000001,337.1570590000001,None,num_6,0.3084847999998601,337.1570590000001,None,sad,1,Sad,337.47916476000006,None,None,337.47916476000006,None,,,,,,,,,,,,,,,,,,,,,,,,,,,,,,,,,,,,,,,,,,,,,,,,,,,,,19,001,0,19,525,500,2022_Oct_11_1055,Experiment,2021.1.4,359.9556534584333,
images\S9_F_S_02.png,images\S9_F_S_02_scrambled.png,9,sad,-20,female,2,,53,off,1,0.5,0.75,0.5,0.871,3,52,1,1,2,0,0,0,0,2,,,,,,0,16,16,16,,,,,,,,,,,,,,,,,,,,,,,,,,,,,,,,,,,,,,,,,,,,,,,,,,,,,,,,,337.5902575,338.0956858999998,338.0956858999998,338.8454240000001,338.8454240000001,339.34804820000045,339.34804820000045,340.2227733999998,340.2227733999998,None,num_6,0.2673069000002215,340.2227733999998,None,sad,1,Sad,340.5089293799999,None,None,340.5089293799999,None,,,,,,,,,,,,,,,,,,,,,,,,,,,,,,,,,,,,,,,,,,,,,,,,,,,,,19,001,0,19,525,500,2022_Oct_11_1055,Experiment,2021.1.4,359.9556534584333,
images\S2_M_H_01.png,images\S2_M_H_01_scrambled.png,2,happy,10,male,4,,7,off,1,0.5,0.75,0.5,0.916,3,6,2,1,1,0,0,0,0,4,,,,,,0,17,17,17,,,,,,,,,,,,,,,,,,,,,,,,,,,,,,,,,,,,,,,,,,,,,,,,,,,,,,,,,340.6198752,341.1253142000005,341.1253142000005,341.87505090000013,341.87505090000013,342.3776620999997,342.3776620999997,343.2996793000002,343.2996793000002,None,num_6,0.27810369999951945,343.2996793000002,None,sad,1,Happy,343.58290328,None,None,343.58290328,None,,,,,,,,,,,,,,,,,,,,,,,,,,,,,,,,,,,,,,,,,,,,,,,,,,,,,19,001,0,19,525,500,2022_Oct_11_1055,Experiment,2021.1.4,359.9556534584333,
images\S1_F_H_02.png,images\S1_F_H_02_scrambled.png,1,happy,20,female,5,,482,off,1,0.5,0.75,0.5,0.886,3,481,3,1,1,0,0,0,0,5,,,,,,0,18,18,18,,,,,,,,,,,,,,,,,,,,,,,,,,,,,,,,,,,,,,,,,,,,,,,,,,,,,,,,,343.6300618000005,344.1354669000002,344.1354669000002,344.88800249999986,344.88800249999986,345.3906207,345.3906207,346.2793668000004,346.2793668000004,None,num_4,0.42610939999940456,346.2793668000004,None,happy,1,Happy,346.73188715999964,None,None,346.73188715999964,None,,,,,,,,,,,,,,,,,,,,,,,,,,,,,,,,,,,,,,,,,,,,,,,,,,,,,19,001,0,19,525,500,2022_Oct_11_1055,Experiment,2021.1.4,359.9556534584333,
images\S9_F_S_03.png,images\S9_F_S_03_scrambled.png,9,sad,-30,female,1,,354,on,2,0.5,0.75,0.5,0.853,3,353,1,1,1,2,2,32,128,161,,,,,,0,19,19,19,,,,,,,,,,,,,,,,,,,,,,,,,,,,,,,,,,,,,,,,,,,,,,,,,,,,,,,,,346.81790269999965,347.3205840999999,347.3205840999999,348.07031780000034,348.07031780000034,348.5729753000005,348.5729753000005,349.4310695000004,349.4310695000004,None,num_4,0.5465144999998302,349.4310695000004,None,happy,1,Sad,349.9864018799997,None,None,349.9864018799997,None,,,,,,,,,,,,,,,,,,,,,,,,,,,,,,,,,,,,,,,,,,,,,,,,,,,,,19,001,0,19,525,500,2022_Oct_11_1055,Experiment,2021.1.4,359.9556534584333,
images\S9_F_S_02.png,images\S9_F_S_02_scrambled.png,9,sad,-20,female,2,,413,off,1,0.5,0.75,0.5,0.791,3,412,1,2,1,0,0,0,0,2,,,,,,0,20,20,20,,,,,,,,,,,,,,,,,,,,,,,,,,,,,,,,,,,,,,,,,,,,,,,,,,,,,,,,,350.0336311000001,350.5362772999997,350.5362772999997,351.2888158000005,351.2888158000005,351.79432429999997,351.79432429999997,352.59120559999974,352.59120559999974,None,num_4,0.38625429999956395,352.59120559999974,None,happy,1,Sad,352.98550582000024,None,None,352.98550582000024,None,,,,,,,,,,,,,,,,,,,,,,,,,,,,,,,,,,,,,,,,,,,,,,,,,,,,,19,001,0,19,525,500,2022_Oct_11_1055,Experiment,2021.1.4,359.9556534584333,
images\blank.jpg,images\blank.jpg,none,none,none,none,0,,612,on,2,0.5,0.75,0.5,0.766,0,611,1,1,1,3,3,48,192,240,,,,,,0,21,21,21,,,,,,,,,,,,,,,,,,,,,,,,,,,,,,,,,,,,,,,,,,,,,,,,,,,,,,,,,353.1524005000001,353.6547397000004,353.6547397000004,354.4101122000002,354.4101122000002,354.9154991000005,354.9154991000005,355.68196160000025,355.68196160000025,355.68196160000025,None,,355.68196160000025,None,miss,1,,358.6837645400004,None,None,358.6837645400004,None,,,,,,,,,,,,,,,,,,,,,,,,,,,,,,,,,,,,,,,,,,,,,,,,,,,,,19,001,0,19,525,500,2022_Oct_11_1055,Experiment,2021.1.4,359.9556534584333,
images\S10_M_H_02.png,images\S10_M_H_02_scrambled.png,10,happy,20,male,5,,356,on,2,0.5,0.75,0.5,0.855,3,355,2,1,1,2,2,32,128,165,,,,,,0,22,22,22,,,,,,,,,,,,,,,,,,,,,,,,,,,,,,,,,,,,,,,,,,,,,,,,,,,,,,,,,358.8309936000005,359.3336583999999,359.3336583999999,360.0833064999997,360.0833064999997,360.58592920000046,360.58592920000046,361.44408959999964,361.44408959999964,None,num_4,0.23742000000038388,361.44408959999964,358.8309936000005,happy,1,Happy,361.69668836000034,None,None,361.69668836000034,None,,,,,,,,,,,,,,,,,,,,,,,,,,,,,,,,,,,,,,,,,,,,,,,,,,,,,19,001,0,19,525,500,2022_Oct_11_1055,Experiment,2021.1.4,359.9556534584333,
images\S5_F_H_03.png,images\S5_F_H_03_scrambled.png,5,happy,30,female,6,,87,on,2,0.5,0.75,0.5,0.887,3,86,3,1,1,2,2,32,128,166,,,,,,0,23,23,23,,,,,,,,,,,,,,,,,,,,,,,,,,,,,,,,,,,,,,,,,,,,,,,,,,,,,,,,,361.80499729999974,362.31042760000037,362.31042760000037,363.0629822000001,363.0629822000001,363.5684809000004,363.5684809000004,364.4597882999997,364.4597882999997,None,num_4,0.3097558999998,364.4597882999997,None,happy,1,Happy,364.78462066000026,None,None,364.78462066000026,None,,,,,,,,,,,,,,,,,,,,,,,,,,,,,,,,,,,,,,,,,,,,,,,,,,,,,19,001,0,19,525,500,2022_Oct_11_1055,Experiment,2021.1.4,359.9556534584333,
images\S10_M_H_01.png,images\S10_M_H_01_scrambled.png,10,happy,10,male,4,,355,on,2,0.5,0.75,0.5,0.913,3,354,4,1,1,2,2,32,128,164,,,,,,0,24,24,24,,,,,,,,,,,,,,,,,,,,,,,,,,,,,,,,,,,,,,,,,,,,,,,,,,,,,,,,,364.8707228000003,365.3761450000002,365.3761450000002,366.1287860000002,366.1287860000002,366.63418790000014,366.63418790000014,367.55048160000024,367.55048160000024,None,num_4,0.4270545999997921,367.55048160000024,None,happy,1,Happy,367.99196376000015,None,None,367.99196376000015,None,,,,,,,,,,,,,,,,,,,,,,,,,,,,,,,,,,,,,,,,,,,,,,,,,,,,,19,001,0,19,525,500,2022_Oct_11_1055,Experiment,2021.1.4,359.9556534584333,
images\S2_M_S_01.png,images\S2_M_S_01_scrambled.png,2,sad,-10,male,3,,190,on,2,0.5,0.75,0.5,0.799,3,189,5,1,1,2,2,32,128,163,,,,,,0,25,25,25,,,,,,,,,,,,,,,,,,,,,,,,,,,,,,,,,,,,,,,,,,,,,,,,,,,,,,,,,368.0391814000004,368.5446471000005,368.5446471000005,369.29436929999974,369.29436929999974,369.7942129000003,369.7942129000003,370.59674390000055,370.59674390000055,None,num_6,0.3246653000005608,370.59674390000055,None,sad,1,Sad,370.9355006600004,None,None,370.9355006600004,None,,,,,,,,,,,,,,,,,,,,,,,,,,,,,,,,,,,,,,,,,,,,,,,,,,,,,19,001,0,19,525,500,2022_Oct_11_1055,Experiment,2021.1.4,359.9556534584333,
images\S4_M_H_03.png,images\S4_M_H_03_scrambled.png,4,happy,30,male,6,,261,off,1,0.5,0.75,0.5,0.819,3,260,1,1,1,0,0,0,0,6,,,,,,0,26,26,26,,,,,,,,,,,,,,,,,,,,,,,,,,,,,,,,,,,,,,,,,,,,,,,,,,,,,,,,,371.0188355,371.5186567999999,371.5186567999999,372.2684562000004,372.2684562000004,372.7683173000005,372.7683173000005,373.58746770000016,373.58746770000016,None,num_6,0.3021297000004779,373.58746770000016,None,sad,1,Happy,373.8985389199999,None,None,373.8985389199999,None,,,,,,,,,,,,,,,,,,,,,,,,,,,,,,,,,,,,,,,,,,,,,,,,,,,,,19,001,0,19,525,500,2022_Oct_11_1055,Experiment,2021.1.4,359.9556534584333,
images\S7_F_S_01.png,images\S7_F_S_01_scrambled.png,7,sad,-10,female,3,,220,on,2,0.5,0.75,0.5,0.927,3,219,1,1,1,2,2,32,128,163,,,,,,0,27,27,27,,,,,,,,,,,,,,,,,,,,,,,,,,,,,,,,,,,,,,,,,,,,,,,,,,,,,,,,,374.0095836999999,374.5150024000004,374.5150024000004,375.2675589999999,375.2675589999999,375.77013330000045,375.77013330000045,376.6976138,376.6976138,None,num_6,0.3998460000002524,376.6976138,None,sad,1,Sad,377.11140049999995,None,None,377.11140049999995,None,,,,,,,,,,,,,,,,,,,,,,,,,,,,,,,,,,,,,,,,,,,,,,,,,,,,,19,001,0,19,525,500,2022_Oct_11_1055,Experiment,2021.1.4,359.9556534584333,
images\S5_F_S_01.png,images\S5_F_S_01_scrambled.png,5,sad,-10,female,3,,388,off,1,0.5,0.75,0.5,0.917,3,387,1,1,2,0,0,0,0,3,,,,,,0,28,28,28,,,,,,,,,,,,,,,,,,,,,,,,,,,,,,,,,,,,,,,,,,,,,,,,,,,,,,,,,377.19468529999995,377.6945593999999,377.6945593999999,378.44990450000023,378.44990450000023,378.95253090000006,378.95253090000006,379.8745171999999,379.8745171999999,None,num_4,0.3271906999998464,379.8745171999999,None,happy,1,Sad,380.2104004800001,None,None,380.2104004800001,None,,,,,,,,,,,,,,,,,,,,,,,,,,,,,,,,,,,,,,,,,,,,,,,,,,,,,19,001,0,19,525,500,2022_Oct_11_1055,Experiment,2021.1.4,359.9556534584333,
images\S3_F_S_02.png,images\S3_F_S_02_scrambled.png,3,sad,-20,female,2,,197,on,2,0.5,0.75,0.5,0.913,3,196,1,1,1,2,2,32,128,162,,,,,,0,29,29,29,,,,,,,,,,,,,,,,,,,,,,,,,,,,,,,,,,,,,,,,,,,,,,,,,,,,,,,,,380.2937315999998,380.7992627000003,380.7992627000003,381.5545301000002,381.5545301000002,382.05991259999973,382.05991259999973,382.97915530000046,382.97915530000046,None,num_6,0.2864350999998351,382.97915530000046,None,sad,1,Sad,383.2789042600003,None,None,383.2789042600003,None,,,,,,,,,,,,,,,,,,,,,,,,,,,,,,,,,,,,,,,,,,,,,,,,,,,,,19,001,0,19,525,500,2022_Oct_11_1055,Experiment,2021.1.4,359.9556534584333,
images\S10_M_H_01.png,images\S10_M_H_01_scrambled.png,10,happy,10,male,4,,595,on,2,0.5,0.75,0.5,0.92,3,594,2,1,1,2,2,32,128,164,,,,,,0,30,30,30,,,,,,,,,,,,,,,,,,,,,,,,,,,,,,,,,,,,,,,,,,,,,,,,,,,,,,,,,383.32612679999966,383.82886940000026,383.82886940000026,384.57851610000034,384.57851610000034,385.08403309999994,385.08403309999994,386.00588140000036,386.00588140000036,None,num_4,0.18776099999922735,386.00588140000036,None,happy,1,Happy,386.2085637599999,None,None,386.2085637599999,None,,,,,,,,,,,,,,,,,,,,,,,,,,,,,,,,,,,,,,,,,,,,,,,,,,,,,19,001,0,19,525,500,2022_Oct_11_1055,Experiment,2021.1.4,359.9556534584333,
images\S8_M_H_03.png,images\S8_M_H_03_scrambled.png,8,happy,30,male,6,,465,on,2,0.5,0.75,0.5,0.876,3,464,3,1,1,2,2,32,128,166,,,,,,0,31,31,31,,,,,,,,,,,,,,,,,,,,,,,,,,,,,,,,,,,,,,,,,,,,,,,,,,,,,,,,,386.2918791000002,386.7946124,386.7946124,387.54986329999974,387.54986329999974,388.0524860000005,388.0524860000005,388.93277110000054,388.93277110000054,None,num_4,0.3487225999997463,388.93277110000054,None,happy,1,Happy,389.29931965999964,None,None,389.29931965999964,None,,,,,,,,,,,,,,,,,,,,,,,,,,,,,,,,,,,,,,,,,,,,,,,,,,,,,19,001,0,19,525,500,2022_Oct_11_1055,Experiment,2021.1.4,359.9556534584333,
images\blank.jpg,images\blank.jpg,none,none,none,none,0,,608,on,2,0.5,0.75,0.5,0.944,0,607,4,1,1,3,3,48,192,240,,,,,,0,32,32,32,,,,,,,,,,,,,,,,,,,,,,,,,,,,,,,,,,,,,,,,,,,,,,,,,,,,,,,,,389.38581890000023,389.89079390000006,389.89079390000006,390.64333609999994,390.64333609999994,391.1459289000004,391.1459289000004,392.09008240000003,392.09008240000003,392.09008240000003,None,,392.09008240000003,None,miss,1,,395.09199797999986,None,None,395.09199797999986,None,,,,,,,,,,,,,,,,,,,,,,,,,,,,,,,,,,,,,,,,,,,,,,,,,,,,,19,001,0,19,525,500,2022_Oct_11_1055,Experiment,2021.1.4,359.9556534584333,
images\S6_M_H_02.png,images\S6_M_H_02_scrambled.png,6,happy,20,male,5,,452,on,2,0.5,0.75,0.5,0.923,3,451,5,1,1,2,2,32,128,165,,,,,,0,33,33,33,,,,,,,,,,,,,,,,,,,,,,,,,,,,,,,,,,,,,,,,,,,,,,,,,,,,,,,,,395.2143573000003,395.7195902000003,395.7195902000003,396.4692882999998,396.4692882999998,396.97475310000027,396.97475310000027,397.9021855000001,397.9021855000001,None,num_6,0.531292300000132,397.9021855000001,395.2143573000003,sad,1,Happy,398.43815978,None,None,398.43815978,None,,,,,,,,,,,,,,,,,,,,,,,,,,,,,,,,,,,,,,,,,,,,,,,,,,,,,19,001,0,19,525,500,2022_Oct_11_1055,Experiment,2021.1.4,359.9556534584333,
images\S2_M_H_02.png,images\S2_M_H_02_scrambled.png,2,happy,20,male,5,,68,on,2,0.5,0.75,0.5,0.816,3,67,6,1,2,2,2,32,128,165,,,,,,0,34,34,34,,,,,,,,,,,,,,,,,,,,,,,,,,,,,,,,,,,,,,,,,,,,,,,,,,,,,,,,,398.52420450000045,399.0268404999997,399.0268404999997,399.7793879999999,399.7793879999999,400.2792274000003,400.2792274000003,401.0985515000002,401.0985515000002,None,num_6,0.2549337000000378,401.0985515000002,None,sad,1,Happy,401.3650008200004,None,None,401.3650008200004,None,,,,,,,,,,,,,,,,,,,,,,,,,,,,,,,,,,,,,,,,,,,,,,,,,,,,,19,001,0,19,525,500,2022_Oct_11_1055,Experiment,2021.1.4,359.9556534584333,
images\S7_F_H_01.png,images\S7_F_H_01_scrambled.png,7,happy,10,female,4,,277,off,1,0.5,0.75,0.5,0.868,3,276,1,1,1,0,0,0,0,4,,,,,,0,35,35,35,,,,,,,,,,,,,,,,,,,,,,,,,,,,,,,,,,,,,,,,,,,,,,,,,,,,,,,,,401.4288677000004,401.92870539999967,401.92870539999967,402.6812742000002,402.6812742000002,403.1810972000003,403.1810972000003,404.0502795000002,404.0502795000002,None,num_6,0.2957894999999553,404.0502795000002,None,sad,1,Happy,404.3614364800003,None,None,404.3614364800003,None,,,,,,,,,,,,,,,,,,,,,,,,,,,,,,,,,,,,,,,,,,,,,,,,,,,,,19,001,0,19,525,500,2022_Oct_11_1055,Experiment,2021.1.4,359.9556534584333,
images\S9_F_S_02.png,images\S9_F_S_02_scrambled.png,9,sad,-20,female,2,,233,on,2,0.5,0.75,0.5,0.853,3,232,1,1,1,2,2,32,128,162,,,,,,0,36,36,36,,,,,,,,,,,,,,,,,,,,,,,,,,,,,,,,,,,,,,,,,,,,,,,,,,,,,,,,,404.4196053000005,404.9250516000002,404.9250516000002,405.6775611000003,405.6775611000003,406.1802141999997,406.1802141999997,407.0354642000002,407.0354642000002,None,num_6,0.5740735999997923,407.0354642000002,None,sad,1,Sad,407.6241578599998,None,None,407.6241578599998,None,,,,,,,,,,,,,,,,,,,,,,,,,,,,,,,,,,,,,,,,,,,,,,,,,,,,,19,001,0,19,525,500,2022_Oct_11_1055,Experiment,2021.1.4,359.9556534584333,
images\S3_F_S_01.png,images\S3_F_S_01_scrambled.png,3,sad,-10,female,3,,256,off,1,0.5,0.75,0.5,0.909,3,255,1,1,1,0,0,0,0,3,,,,,,0,37,37,37,,,,,,,,,,,,,,,,,,,,,,,,,,,,,,,,,,,,,,,,,,,,,,,,,,,,,,,,,407.6713810000001,408.17403060000015,408.17403060000015,408.92654159999984,408.92654159999984,409.42929509999976,409.42929509999976,410.3400406999999,410.3400406999999,None,num_6,0.3014396000007764,410.3400406999999,None,sad,1,Sad,410.6565784600003,None,None,410.6565784600003,None,,,,,,,,,,,,,,,,,,,,,,,,,,,,,,,,,,,,,,,,,,,,,,,,,,,,,19,001,0,19,525,500,2022_Oct_11_1055,Experiment,2021.1.4,359.9556534584333,
images\S9_F_S_01.png,images\S9_F_S_01_scrambled.png,9,sad,-10,female,3,,232,on,2,0.5,0.75,0.5,0.849,3,231,1,1,2,2,2,32,128,163,,,,,,0,38,38,38,,,,,,,,,,,,,,,,,,,,,,,,,,,,,,,,,,,,,,,,,,,,,,,,,,,,,,,,,410.70376769999984,411.20641950000027,411.20641950000027,411.95907179999995,411.95907179999995,412.4588051999999,412.4588051999999,413.3113211,413.3113211,None,num_6,0.4342249000001175,413.3113211,None,sad,1,Sad,413.7557368599997,None,None,413.7557368599997,None,,,,,,,,,,,,,,,,,,,,,,,,,,,,,,,,,,,,,,,,,,,,,,,,,,,,,19,001,0,19,525,500,2022_Oct_11_1055,Experiment,2021.1.4,359.9556534584333,
images\S8_M_H_03.png,images\S8_M_H_03_scrambled.png,8,happy,30,male,6,,165,off,1,0.5,0.75,0.5,0.838,3,164,1,1,1,0,0,0,0,6,,,,,,0,39,39,39,,,,,,,,,,,,,,,,,,,,,,,,,,,,,,,,,,,,,,,,,,,,,,,,,,,,,,,,,413.8028182999997,414.30265789999976,414.30265789999976,415.0552114000002,415.0552114000002,415.55796889999965,415.55796889999965,416.3993313000001,416.3993313000001,None,num_4,0.45022659999995085,416.3993313000001,None,happy,1,Happy,416.8629704600003,None,None,416.8629704600003,None,,,,,,,,,,,,,,,,,,,,,,,,,,,,,,,,,,,,,,,,,,,,,,,,,,,,,19,001,0,19,525,500,2022_Oct_11_1055,Experiment,2021.1.4,359.9556534584333,
images\S8_M_S_02.png,images\S8_M_S_02_scrambled.png,8,sad,-20,male,2,,227,on,2,0.5,0.75,0.5,0.847,3,226,1,2,1,2,2,32,128,162,,,,,,0,40,40,40,,,,,,,,,,,,,,,,,,,,,,,,,,,,,,,,,,,,,,,,,,,,,,,,,,,,,,,,,416.9101934999999,417.4128146000003,417.4128146000003,418.1653655,418.1653655,418.66812070000015,418.66812070000015,419.5177192000001,419.5177192000001,None,num_6,0.27562980000038806,419.5177192000001,None,sad,1,Sad,419.80380805999954,None,None,419.80380805999954,None,,,,,,,,,,,,,,,,,,,,,,,,,,,,,,,,,,,,,,,,,,,,,,,,,,,,,19,001,0,19,525,500,2022_Oct_11_1055,Experiment,2021.1.4,359.9556534584333,
images\S10_M_H_02.png,images\S10_M_H_02_scrambled.png,10,happy,20,male,5,,236,on,2,0.5,0.75,0.5,0.858,3,235,2,1,1,2,2,32,128,165,,,,,,0,41,41,41,,,,,,,,,,,,,,,,,,,,,,,,,,,,,,,,,,,,,,,,,,,,,,,,,,,,,,,,,419.86761110000043,420.3702752999998,420.3702752999998,421.12281820000044,421.12281820000044,421.6254385000002,421.6254385000002,422.48910780000006,422.48910780000006,None,num_4,0.27217430000018794,422.48910780000006,None,happy,1,Happy,422.77503266000036,None,None,422.77503266000036,None,,,,,,,,,,,,,,,,,,,,,,,,,,,,,,,,,,,,,,,,,,,,,,,,,,,,,19,001,0,19,525,500,2022_Oct_11_1055,Experiment,2021.1.4,359.9556534584333,
images\S6_M_H_03.png,images\S6_M_H_03_scrambled.png,6,happy,30,male,6,,93,on,2,0.5,0.75,0.5,0.943,3,92,3,1,1,2,2,32,128,166,,,,,,0,42,42,42,,,,,,,,,,,,,,,,,,,,,,,,,,,,,,,,,,,,,,,,,,,,,,,,,,,,,,,,,422.8833480000003,423.3831906000005,423.3831906000005,424.1357356999997,424.1357356999997,424.6384871,424.6384871,425.58532990000003,425.58532990000003,None,num_4,0.4487408000004507,425.58532990000003,None,happy,1,Happy,426.05745831999974,None,None,426.05745831999974,None,,,,,,,,,,,,,,,,,,,,,,,,,,,,,,,,,,,,,,,,,,,,,,,,,,,,,19,001,0,19,525,500,2022_Oct_11_1055,Experiment,2021.1.4,359.9556534584333,
images\S10_M_S_01.png,images\S10_M_S_01_scrambled.png,10,sad,-10,male,3,,298,off,1,0.5,0.75,0.5,0.903,3,297,1,1,1,0,0,0,0,3,,,,,,0,43,43,43,,,,,,,,,,,,,,,,,,,,,,,,,,,,,,,,,,,,,,,,,,,,,,,,,,,,,,,,,426.1656662000005,426.6683019000002,426.6683019000002,427.42086199999994,427.42086199999994,427.92359769999985,427.92359769999985,428.8288699000004,428.8288699000004,None,num_6,0.4124506999996811,428.8288699000004,None,sad,1,Sad,429.25637625999985,None,None,429.25637625999985,None,,,,,,,,,,,,,,,,,,,,,,,,,,,,,,,,,,,,,,,,,,,,,,,,,,,,,19,001,0,19,525,500,2022_Oct_11_1055,Experiment,2021.1.4,359.9556534584333,
images\S8_M_H_01.png,images\S8_M_H_01_scrambled.png,8,happy,10,male,4,,523,off,1,0.5,0.75,0.5,0.814,3,522,2,1,1,0,0,0,0,4,,,,,,0,44,44,44,,,,,,,,,,,,,,,,,,,,,,,,,,,,,,,,,,,,,,,,,,,,,,,,,,,,,,,,,429.30358479999995,429.80910219999987,429.80910219999987,430.55877899999996,430.55877899999996,431.0585959,431.0585959,431.87505429999965,431.87505429999965,None,num_6,0.3262249999997948,431.87505429999965,None,sad,1,Happy,432.21100961999963,None,None,432.21100961999963,None,,,,,,,,,,,,,,,,,,,,,,,,,,,,,,,,,,,,,,,,,,,,,,,,,,,,,19,001,0,19,525,500,2022_Oct_11_1055,Experiment,2021.1.4,359.9556534584333,
images\S8_M_S_01.png,images\S8_M_S_01_scrambled.png,8,sad,-10,male,3,,166,off,1,0.5,0.75,0.5,0.872,3,165,3,2,1,0,0,0,0,3,,,,,,0,45,45,45,,,,,,,,,,,,,,,,,,,,,,,,,,,,,,,,,,,,,,,,,,,,,,,,,,,,,,,,,432.32487029999993,432.8247266999997,432.8247266999997,433.58008450000034,433.58008450000034,434.08265779999965,434.08265779999965,434.96020839999983,434.96020839999983,None,num_6,0.3532191000003877,434.96020839999983,None,sad,1,Sad,435.32396226,None,None,435.32396226,None,,,,,,,,,,,,,,,,,,,,,,,,,,,,,,,,,,,,,,,,,,,,,,,,,,,,,19,001,0,19,525,500,2022_Oct_11_1055,Experiment,2021.1.4,359.9556534584333,
images\S3_F_H_01.png,images\S3_F_H_01_scrambled.png,3,happy,10,female,4,,373,off,1,0.5,0.75,0.5,0.759,3,372,4,1,1,0,0,0,0,4,,,,,,0,46,46,46,,,,,,,,,,,,,,,,,,,,,,,,,,,,,,,,,,,,,,,,,,,,,,,,,,,,,,,,,435.3711572000002,435.8765727,435.8765727,436.62917730000026,436.62917730000026,437.1317336000002,437.1317336000002,437.89540469999974,437.89540469999974,None,num_6,0.4261231000000407,437.89540469999974,None,sad,1,Happy,438.33133451999964,None,None,438.33133451999964,None,,,,,,,,,,,,,,,,,,,,,,,,,,,,,,,,,,,,,,,,,,,,,,,,,,,,,19,001,0,19,525,500,2022_Oct_11_1055,Experiment,2021.1.4,359.9556534584333,
images\S2_M_H_03.png,images\S2_M_H_03_scrambled.png,2,happy,30,male,6,,69,on,2,0.5,0.75,0.5,0.846,3,68,1,1,1,2,2,32,128,166,,,,,,0,47,47,47,,,,,,,,,,,,,,,,,,,,,,,,,,,,,,,,,,,,,,,,,,,,,,,,,,,,,,,,,438.43687520000003,438.9395104000005,438.9395104000005,439.6948210999999,439.6948210999999,440.20025239999995,440.20025239999995,441.0499692000003,441.0499692000003,None,num_4,0.3354477000002589,441.0499692000003,None,happy,1,Happy,441.3998360600004,None,None,441.3998360600004,None,,,,,,,,,,,,,,,,,,,,,,,,,,,,,,,,,,,,,,,,,,,,,,,,,,,,,19,001,0,19,525,500,2022_Oct_11_1055,Experiment,2021.1.4,359.9556534584333,
images\S9_F_H_01.png,images\S9_F_H_01_scrambled.png,9,happy,10,female,4,,349,on,2,0.5,0.75,0.5,0.836,3,348,2,1,1,2,2,32,128,164,,,,,,0,48,48,48,,,,,,,,,,,,,,,,,,,,,,,,,,,,,,,,,,,,,,,,,,,,,,,,,,,,,,,,,441.4637161999999,441.9691597000001,441.9691597000001,442.72171290000006,442.72171290000006,443.2244154,443.2244154,444.0629084000002,444.0629084000002,None,num_4,0.09864199999992707,444.0629084000002,None,happy,1,Happy,444.1767838600004,None,None,444.1767838600004,None,,,,,,,,,,,,,,,,,,,,,,,,,,,,,,,,,,,,,,,,,,,,,,,,,,,,,19,001,0,19,525,500,2022_Oct_11_1055,Experiment,2021.1.4,359.9556534584333,
images\S9_F_H_02.png,images\S9_F_H_02_scrambled.png,9,happy,20,female,5,,110,on,2,0.5,0.75,0.5,0.815,3,109,3,2,1,2,2,32,128,165,,,,,,0,49,49,49,,,,,,,,,,,,,,,,,,,,,,,,,,,,,,,,,,,,,,,,,,,,,,,,,,,,,,,,,444.2239762999998,444.7238183999998,444.7238183999998,445.4735859000002,445.4735859000002,445.97912280000037,445.97912280000037,446.7954023000002,446.7954023000002,None,num_4,0.39022019999993063,446.7954023000002,None,happy,1,Happy,447.2008477599998,None,None,447.2008477599998,None,,,,,,,,,,,,,,,,,,,,,,,,,,,,,,,,,,,,,,,,,,,,,,,,,,,,,19,001,0,19,525,500,2022_Oct_11_1055,Experiment,2021.1.4,359.9556534584333,
images\S10_M_S_02.png,images\S10_M_S_02_scrambled.png,10,sad,-20,male,2,,419,off,1,0.5,0.75,0.5,0.885,3,418,1,1,1,0,0,0,0,2,,,,,,0,50,50,50,,,,,,,,,,,,,,,,,,,,,,,,,,,,,,,,,,,,,,,,,,,,,,,,,,,,,,,,,447.30913340000006,447.8089748000002,447.8089748000002,448.5615428000001,448.5615428000001,449.0642828,449.0642828,449.9527874000005,449.9527874000005,None,num_6,0.6086883999996644,449.9527874000005,None,sad,1,Sad,450.5832039199997,None,None,450.5832039199997,None,,,,,,,,,,,,,,,,,,,,,,,,,,,,,,,,,,,,,,,,,,,,,,,,,,,,,19,001,0,19,525,500,2022_Oct_11_1055,Experiment,2021.1.4,359.9556534584333,
images\S3_F_H_02.png,images\S3_F_H_02_scrambled.png,3,happy,20,female,5,,74,on,2,0.5,0.75,0.5,0.754,3,73,1,1,1,2,2,32,128,165,,,,,,0,51,51,51,,,,,,,,,,,,,,,,,,,,,,,,,,,,,,,,,,,,,,,,,,,,,,,,,,,,,,,,,450.6914201999998,451.1940618999997,451.1940618999997,451.94944469999973,451.94944469999973,452.45482249999986,452.45482249999986,453.2156723999997,453.2156723999997,None,num_6,0.3697144000007029,453.2156723999997,None,sad,1,Happy,453.5905069799999,None,None,453.5905069799999,None,,,,,,,,,,,,,,,,,,,,,,,,,,,,,,,,,,,,,,,,,,,,,,,,,,,,,19,001,0,19,525,500,2022_Oct_11_1055,Experiment,2021.1.4,359.9556534584333,
images\S8_M_H_01.png,images\S8_M_H_01_scrambled.png,8,happy,10,male,4,,403,off,1,0.5,0.75,0.5,0.903,3,402,1,1,1,0,0,0,0,4,,,,,,0,52,52,52,,,,,,,,,,,,,,,,,,,,,,,,,,,,,,,,,,,,,,,,,,,,,,,,,,,,,,,,,453.6377365999997,454.1403734000005,454.1403734000005,454.8929383000004,454.8929383000004,455.39551850000043,455.39551850000043,456.30082760000005,456.30082760000005,None,num_6,0.37278630000037083,456.30082760000005,None,sad,1,Happy,456.68121448000034,None,None,456.68121448000034,None,,,,,,,,,,,,,,,,,,,,,,,,,,,,,,,,,,,,,,,,,,,,,,,,,,,,,19,001,0,19,525,500,2022_Oct_11_1055,Experiment,2021.1.4,359.9556534584333,
images\S6_M_H_03.png,images\S6_M_H_03_scrambled.png,6,happy,30,male,6,,33,off,1,0.5,0.75,0.5,0.788,3,32,2,1,1,0,0,0,0,6,,,,,,0,53,53,53,,,,,,,,,,,,,,,,,,,,,,,,,,,,,,,,,,,,,,,,,,,,,,,,,,,,,,,,,456.7284429000001,457.2310908999998,457.2310908999998,457.98361339999974,457.98361339999974,458.4834615,458.4834615,459.2749186000001,459.2749186000001,None,num_4,0.34238510000068345,459.2749186000001,None,happy,1,Happy,459.63032145999983,None,None,459.63032145999983,None,,,,,,,,,,,,,,,,,,,,,,,,,,,,,,,,,,,,,,,,,,,,,,,,,,,,,19,001,0,19,525,500,2022_Oct_11_1055,Experiment,2021.1.4,359.9556534584333,
images\S1_F_H_01.png,images\S1_F_H_01_scrambled.png,1,happy,10,female,4,,241,off,1,0.5,0.75,0.5,0.882,3,240,3,1,1,0,0,0,0,4,,,,,,0,54,54,54,,,,,,,,,,,,,,,,,,,,,,,,,,,,,,,,,,,,,,,,,,,,,,,,,,,,,,,,,459.7136349000002,460.2162767,460.2162767,460.9688262999998,460.9688262999998,461.4742763000004,461.4742763000004,462.3600876999999,462.3600876999999,None,num_4,0.46528659999967203,462.3600876999999,None,happy,1,Happy,462.8404574599995,None,None,462.8404574599995,None,,,,,,,,,,,,,,,,,,,,,,,,,,,,,,,,,,,,,,,,,,,,,,,,,,,,,19,001,0,19,525,500,2022_Oct_11_1055,Experiment,2021.1.4,359.9556534584333,
images\S6_M_H_02.png,images\S6_M_H_02_scrambled.png,6,happy,20,male,5,,392,off,1,0.5,0.75,0.5,0.917,3,391,4,1,1,0,0,0,0,5,,,,,,0,55,55,55,,,,,,,,,,,,,,,,,,,,,,,,,,,,,,,,,,,,,,,,,,,,,,,,,,,,,,,,,462.8876554999997,463.390316,463.390316,464.14004490000025,464.14004490000025,464.6427055000004,464.6427055000004,465.56465449999996,465.56465449999996,None,num_4,0.45272770000065066,465.56465449999996,None,happy,1,Happy,466.02836145999987,None,None,466.02836145999987,None,,,,,,,,,,,,,,,,,,,,,,,,,,,,,,,,,,,,,,,,,,,,,,,,,,,,,19,001,0,19,525,500,2022_Oct_11_1055,Experiment,2021.1.4,359.9556534584333,
images\S3_F_H_01.png,images\S3_F_H_01_scrambled.png,3,happy,10,female,4,,13,off,1,0.5,0.75,0.5,0.759,3,12,5,1,1,0,0,0,0,4,,,,,,0,56,56,56,,,,,,,,,,,,,,,,,,,,,,,,,,,,,,,,,,,,,,,,,,,,,,,,,,,,,,,,,466.0783368000002,466.58098059999975,466.58098059999975,467.33629590000055,467.33629590000055,467.83903400000054,467.83903400000054,468.5998288999999,468.5998288999999,None,num_6,0.7295513999997638,468.5998288999999,None,sad,1,Happy,469.33840957999996,None,None,469.33840957999996,None,,,,,,,,,,,,,,,,,,,,,,,,,,,,,,,,,,,,,,,,,,,,,,,,,,,,,19,001,0,19,525,500,2022_Oct_11_1055,Experiment,2021.1.4,359.9556534584333,
images\S7_F_S_02.png,images\S7_F_S_02_scrambled.png,7,sad,-20,female,2,,341,on,2,0.5,0.75,0.5,0.886,3,340,1,1,1,2,2,32,128,162,,,,,,0,57,57,57,,,,,,,,,,,,,,,,,,,,,,,,,,,,,,,,,,,,,,,,,,,,,,,,,,,,,,,,,469.4217515,469.92715730000054,469.92715730000054,470.67974890000005,470.67974890000005,471.1851277000005,471.1851277000005,472.07373629999984,472.07373629999984,None,num_6,0.303737799999908,472.07373629999984,None,sad,1,Sad,472.39026745999996,None,None,472.39026745999996,None,,,,,,,,,,,,,,,,,,,,,,,,,,,,,,,,,,,,,,,,,,,,,,,,,,,,,19,001,0,19,525,500,2022_Oct_11_1055,Experiment,2021.1.4,359.9556534584333,
images\S10_M_S_03.png,images\S10_M_S_03_scrambled.png,10,sad,-30,male,1,,540,off,1,0.5,0.75,0.5,0.867,3,539,1,1,1,0,0,0,0,1,,,,,,0,58,58,58,,,,,,,,,,,,,,,,,,,,,,,,,,,,,,,,,,,,,,,,,,,,,,,,,,,,,,,,,472.47636429999966,472.9791174000002,472.9791174000002,473.7287752000002,473.7287752000002,474.2342249000003,474.2342249000003,475.1033471999999,475.1033471999999,None,num_6,0.3780963999997766,475.1033471999999,None,sad,1,Sad,475.4948846599996,None,None,475.4948846599996,None,,,,,,,,,,,,,,,,,,,,,,,,,,,,,,,,,,,,,,,,,,,,,,,,,,,,,19,001,0,19,525,500,2022_Oct_11_1055,Experiment,2021.1.4,359.9556534584333,
images\S5_F_H_03.png,images\S5_F_H_03_scrambled.png,5,happy,30,female,6,,27,off,1,0.5,0.75,0.5,0.825,3,26,2,1,1,0,0,0,0,6,,,,,,0,59,59,59,,,,,,,,,,,,,,,,,,,,,,,,,,,,,,,,,,,,,,,,,,,,,,,,,,,,,,,,,475.54208199999994,476.04474649999975,476.04474649999975,476.8000225000005,476.8000225000005,477.3026692000003,477.3026692000003,478.13020140000026,478.13020140000026,None,num_4,0.2951608000003034,478.13020140000026,None,happy,1,Happy,478.4495238199999,None,None,478.4495238199999,None,,,,,,,,,,,,,,,,,,,,,,,,,,,,,,,,,,,,,,,,,,,,,,,,,,,,,19,001,0,19,525,500,2022_Oct_11_1055,Experiment,2021.1.4,359.9556534584333,
images\S10_M_H_01.png,images\S10_M_H_01_scrambled.png,10,happy,10,male,4,,235,on,2,0.5,0.75,0.5,0.913,3,234,1,1,1,2,2,32,128,164,,,,,,0,60,60,60,,,,,,,,,,,,,,,,,,,,,,,,,,,,,,,,,,,,,,,,,,,,,,,,,,,,,,,,,478.50227220000033,479.0049245,479.0049245,479.76021969999965,479.76021969999965,480.26287219999995,480.26287219999995,481.1793641000004,481.1793641000004,None,num_4,0.4782702000002246,481.1793641000004,None,happy,1,Happy,481.67073036000016,None,None,481.67073036000016,None,,,,,,,,,,,,,,,,,,,,,,,,,,,,,,,,,,,,,,,,,,,,,,,,,,,,,19,001,0,19,525,500,2022_Oct_11_1055,Experiment,2021.1.4,359.9556534584333,
images\S9_F_S_02.png,images\S9_F_S_02_scrambled.png,9,sad,-20,female,2,,293,off,1,0.5,0.75,0.5,0.855,3,292,1,1,1,0,0,0,0,2,,,,,,0,61,61,61,,,,,,,,,,,,,,,,,,,,,,,,,,,,,,,,,,,,,,,,,,,,,,,,,,,,,,,,,481.7179489,482.2205955999998,482.2205955999998,482.9759092000004,482.9759092000004,483.4813171000005,483.4813171000005,484.33941830000003,484.33941830000003,None,num_6,0.4064780000007886,484.33941830000003,None,sad,1,Sad,484.7671108400003,None,None,484.7671108400003,None,,,,,,,,,,,,,,,,,,,,,,,,,,,,,,,,,,,,,,,,,,,,,,,,,,,,,19,001,0,19,525,500,2022_Oct_11_1055,Experiment,2021.1.4,359.9556534584333,
images\S1_F_H_03.png,images\S1_F_H_03_scrambled.png,1,happy,30,female,6,,483,off,1,0.5,0.75,0.5,0.925,3,482,2,1,1,0,0,0,0,6,,,,,,0,62,62,62,,,,,,,,,,,,,,,,,,,,,,,,,,,,,,,,,,,,,,,,,,,,,,,,,,,,,,,,,484.87530380000044,485.3780618999999,485.3780618999999,486.1276932999999,486.1276932999999,486.6303625999999,486.6303625999999,487.5578470999999,487.5578470999999,None,num_4,0.6034020999995846,487.5578470999999,None,happy,1,Happy,488.17153595999986,None,None,488.17153595999986,None,,,,,,,,,,,,,,,,,,,,,,,,,,,,,,,,,,,,,,,,,,,,,,,,,,,,,19,001,0,19,525,500,2022_Oct_11_1055,Experiment,2021.1.4,359.9556534584333,
images\S5_F_H_02.png,images\S5_F_H_02_scrambled.png,5,happy,20,female,5,,86,on,2,0.5,0.75,0.5,0.882,3,85,1,1,1,2,2,32,128,165,,,,,,0,63,63,63,,,,,,,,,,,,,,,,,,,,,,,,,,,,,,,,,,,,,,,,,,,,,,,,,,,,,,,,,488.27980990000015,488.7852459000005,488.7852459000005,489.53498039999977,489.53498039999977,490.037636,490.037636,490.92355210000005,490.92355210000005,None,num_4,0.6297659000001659,490.92355210000005,None,happy,1,Happy,491.56770595999984,None,None,491.56770595999984,None,,,,,,,,,,,,,,,,,,,,,,,,,,,,,,,,,,,,,,,,,,,,,,,,,,,,,19,001,0,19,525,500,2022_Oct_11_1055,Experiment,2021.1.4,359.9556534584333,
images\S1_F_S_01.png,images\S1_F_S_01_scrambled.png,1,sad,-10,female,3,,64,on,2,0.5,0.75,0.5,0.879,3,63,2,1,1,2,2,32,128,163,,,,,,0,64,64,64,,,,,,,,,,,,,,,,,,,,,,,,,,,,,,,,,,,,,,,,,,,,,,,,,,,,,,,,,491.65099089999967,492.1564078000001,492.1564078000001,492.90894899999967,492.90894899999967,493.41441550000036,493.41441550000036,494.3002026000004,494.3002026000004,None,num_6,0.30120160000024043,494.3002026000004,None,sad,1,Sad,494.61394306000017,None,None,494.61394306000017,None,,,,,,,,,,,,,,,,,,,,,,,,,,,,,,,,,,,,,,,,,,,,,,,,,,,,,19,001,0,19,525,500,2022_Oct_11_1055,Experiment,2021.1.4,359.9556534584333,
images\S8_M_S_02.png,images\S8_M_S_02_scrambled.png,8,sad,-20,male,2,,527,off,1,0.5,0.75,0.5,0.836,3,526,1,1,1,0,0,0,0,2,,,,,,0,65,65,65,,,,,,,,,,,,,,,,,,,,,,,,,,,,,,,,,,,,,,,,,,,,,,,,,,,,,,,,,494.66943850000007,495.1749345999997,495.1749345999997,495.9302256000001,495.9302256000001,496.4356465999999,496.4356465999999,497.2714678000002,497.2714678000002,None,num_6,0.44973190000018803,497.2714678000002,None,sad,1,Sad,497.73248696000024,None,None,497.73248696000024,None,,,,,,,,,,,,,,,,,,,,,,,,,,,,,,,,,,,,,,,,,,,,,,,,,,,,,19,001,0,19,525,500,2022_Oct_11_1055,Experiment,2021.1.4,359.9556534584333,
images\S5_F_S_03.png,images\S5_F_S_03_scrambled.png,5,sad,-30,female,1,,150,off,1,0.5,0.75,0.5,0.826,3,149,2,1,1,0,0,0,0,1,,,,,,0,66,66,66,,,,,,,,,,,,,,,,,,,,,,,,,,,,,,,,,,,,,,,,,,,,,,,,,,,,,,,,,497.81574960000034,498.31850289999966,498.31850289999966,499.0681389000001,499.0681389000001,499.5707904000001,499.5707904000001,500.40398240000013,500.40398240000013,None,num_6,0.3095174000000043,500.40398240000013,None,sad,1,Sad,500.72875875999995,None,None,500.72875875999995,None,,,,,,,,,,,,,,,,,,,,,,,,,,,,,,,,,,,,,,,,,,,,,,,,,,,,,19,001,0,19,525,500,2022_Oct_11_1055,Experiment,2021.1.4,359.9556534584333,
images\S5_F_H_01.png,images\S5_F_H_01_scrambled.png,5,happy,10,female,4,,85,on,2,0.5,0.75,0.5,0.897,3,84,1,2,1,2,2,32,128,164,,,,,,0,67,67,67,,,,,,,,,,,,,,,,,,,,,,,,,,,,,,,,,,,,,,,,,,,,,,,,,,,,,,,,,500.83981420000055,501.34525529999974,501.34525529999974,502.0949833000004,502.0949833000004,502.60040930000014,502.60040930000014,503.500145,503.500145,None,num_4,0.3412419999995109,503.500145,None,happy,1,Happy,503.85554276,None,None,503.85554276,None,,,,,,,,,,,,,,,,,,,,,,,,,,,,,,,,,,,,,,,,,,,,,,,,,,,,,19,001,0,19,525,500,2022_Oct_11_1055,Experiment,2021.1.4,359.9556534584333,
images\S10_M_H_02.png,images\S10_M_H_02_scrambled.png,10,happy,20,male,5,,116,on,2,0.5,0.75,0.5,0.778,3,115,2,1,1,2,2,32,128,165,,,,,,0,68,68,68,,,,,,,,,,,,,,,,,,,,,,,,,,,,,,,,,,,,,,,,,,,,,,,,,,,,,,,,,503.90275889999975,504.40829699999995,504.40829699999995,505.1579634999998,505.1579634999998,505.6634479000004,505.6634479000004,506.4464324999999,506.4464324999999,None,num_4,0.907015699999647,506.4464324999999,None,happy,1,Happy,507.3711515600003,None,None,507.3711515600003,None,,,,,,,,,,,,,,,,,,,,,,,,,,,,,,,,,,,,,,,,,,,,,,,,,,,,,19,001,0,19,525,500,2022_Oct_11_1055,Experiment,2021.1.4,359.9556534584333,
images\S2_M_S_02.png,images\S2_M_S_02_scrambled.png,2,sad,-20,male,2,,371,off,1,0.5,0.75,0.5,0.819,3,370,1,1,1,0,0,0,0,2,,,,,,0,69,69,69,,,,,,,,,,,,,,,,,,,,,,,,,,,,,,,,,,,,,,,,,,,,,,,,,,,,,,,,,507.4544453999997,507.9543034999997,507.9543034999997,508.70965049999995,508.70965049999995,509.2122384000004,509.2122384000004,510.03429419999975,510.03429419999975,None,num_6,0.5268654999999853,510.03429419999975,None,sad,1,Sad,510.5757174599999,None,None,510.5757174599999,None,,,,,,,,,,,,,,,,,,,,,,,,,,,,,,,,,,,,,,,,,,,,,,,,,,,,,19,001,0,19,525,500,2022_Oct_11_1055,Experiment,2021.1.4,359.9556534584333,
images\S1_F_H_01.png,images\S1_F_H_01_scrambled.png,1,happy,10,female,4,,181,on,2,0.5,0.75,0.5,0.861,3,180,1,1,1,2,2,32,128,164,,,,,,0,70,70,70,,,,,,,,,,,,,,,,,,,,,,,,,,,,,,,,,,,,,,,,,,,,,,,,,,,,,,,,,510.62290850000045,511.12275240000054,511.12275240000054,511.8753351000005,511.8753351000005,512.3779667999997,512.3779667999997,513.2444049000005,513.2444049000005,None,num_4,0.3409501000005548,513.2444049000005,None,happy,1,Happy,513.5997564599999,None,None,513.5997564599999,None,,,,,,,,,,,,,,,,,,,,,,,,,,,,,,,,,,,,,,,,,,,,,,,,,,,,,19,001,0,19,525,500,2022_Oct_11_1055,Experiment,2021.1.4,359.9556534584333,
images\S2_M_H_01.png,images\S2_M_H_01_scrambled.png,2,happy,10,male,4,,427,on,2,0.5,0.75,0.5,0.774,3,426,2,1,2,2,2,32,128,164,,,,,,0,71,71,71,,,,,,,,,,,,,,,,,,,,,,,,,,,,,,,,,,,,,,,,,,,,,,,,,,,,,,,,,513.6469763000005,514.1495839999998,514.1495839999998,514.8993638000002,514.8993638000002,515.4048042000004,515.4048042000004,516.1851032000004,516.1851032000004,None,num_6,0.328221300000223,516.1851032000004,None,sad,1,Happy,516.5238346199995,None,None,516.5238346199995,None,,,,,,,,,,,,,,,,,,,,,,,,,,,,,,,,,,,,,,,,,,,,,,,,,,,,,19,001,0,19,525,500,2022_Oct_11_1055,Experiment,2021.1.4,359.9556534584333,
images\S2_M_H_01.png,images\S2_M_H_01_scrambled.png,2,happy,10,male,4,,307,on,2,0.5,0.75,0.5,0.856,3,306,3,2,3,2,2,32,128,164,,,,,,0,72,72,72,,,,,,,,,,,,,,,,,,,,,,,,,,,,,,,,,,,,,,,,,,,,,,,,,,,,,,,,,516.5877302999997,517.0875685000001,517.0875685000001,517.8373425,517.8373425,518.3400026999998,518.3400026999998,519.2008352000003,519.2008352000003,None,num_6,0.3125815999992483,519.2008352000003,None,sad,1,Happy,519.5229044799996,None,None,519.5229044799996,None,,,,,,,,,,,,,,,,,,,,,,,,,,,,,,,,,,,,,,,,,,,,,,,,,,,,,19,001,0,19,525,500,2022_Oct_11_1055,Experiment,2021.1.4,359.9556534584333,
images\S9_F_S_03.png,images\S9_F_S_03_scrambled.png,9,sad,-30,female,1,,594,on,2,0.5,0.75,0.5,0.814,3,593,4,1,1,2,2,32,128,161,,,,,,0,73,73,73,,,,,,,,,,,,,,,,,,,,,,,,,,,,,,,,,,,,,,,,,,,,,,,,,,,,,,,,,519.5701399,520.0755656000001,520.0755656000001,520.8280850000001,520.8280850000001,521.3279660999997,521.3279660999997,522.1443896999999,522.1443896999999,None,num_6,0.5450338999999076,522.1443896999999,None,sad,1,Sad,522.70249406,None,None,522.70249406,None,,,,,,,,,,,,,,,,,,,,,,,,,,,,,,,,,,,,,,,,,,,,,,,,,,,,,19,001,0,19,525,500,2022_Oct_11_1055,Experiment,2021.1.4,359.9556534584333,
images\blank.jpg,images\blank.jpg,none,none,none,none,0,,633,on,2,0.5,0.75,0.5,0.918,0,632,5,1,1,3,3,48,192,240,,,,,,0,74,74,74,,,,,,,,,,,,,,,,,,,,,,,,,,,,,,,,,,,,,,,,,,,,,,,,,,,,,,,,,522.7860836999998,523.2885649999998,523.2885649999998,524.0382000999998,524.0382000999998,524.5380861000003,524.5380861000003,525.4572049999997,525.4572049999997,525.4572049999997,None,,525.4572049999997,None,miss,1,,528.4619039799998,None,None,528.4619039799998,None,,,,,,,,,,,,,,,,,,,,,,,,,,,,,,,,,,,,,,,,,,,,,,,,,,,,,19,001,0,19,525,500,2022_Oct_11_1055,Experiment,2021.1.4,359.9556534584333,
images\S4_M_H_02.png,images\S4_M_H_02_scrambled.png,4,happy,20,male,5,,500,off,1,0.5,0.75,0.5,0.796,3,499,1,1,1,0,0,0,0,5,,,,,,0,75,75,75,,,,,,,,,,,,,,,,,,,,,,,,,,,,,,,,,,,,,,,,,,,,,,,,,,,,,,,,,528.6234949999998,529.1255461000001,529.1255461000001,529.8781999000003,529.8781999000003,530.3779075000002,530.3779075000002,531.1776614999999,531.1776614999999,None,num_6,0.3356102000007013,531.1776614999999,528.6234949999998,sad,1,Happy,531.5219705799998,None,None,531.5219705799998,None,,,,,,,,,,,,,,,,,,,,,,,,,,,,,,,,,,,,,,,,,,,,,,,,,,,,,19,001,0,19,525,500,2022_Oct_11_1055,Experiment,2021.1.4,359.9556534584333,
images\S2_M_S_01.png,images\S2_M_S_01_scrambled.png,2,sad,-10,male,3,,130,off,1,0.5,0.75,0.5,0.825,3,129,2,1,1,0,0,0,0,3,,,,,,0,76,76,76,,,,,,,,,,,,,,,,,,,,,,,,,,,,,,,,,,,,,,,,,,,,,,,,,,,,,,,,,531.5692104,532.0718433000002,532.0718433000002,532.8244249999998,532.8244249999998,533.3270438999998,533.3270438999998,534.1545149000003,534.1545149000003,None,num_6,0.3665767999991658,534.1545149000003,None,sad,1,Sad,534.5349494600001,None,None,534.5349494600001,None,,,,,,,,,,,,,,,,,,,,,,,,,,,,,,,,,,,,,,,,,,,,,,,,,,,,,19,001,0,19,525,500,2022_Oct_11_1055,Experiment,2021.1.4,359.9556534584333,
images\S4_M_H_01.png,images\S4_M_H_01_scrambled.png,4,happy,10,male,4,,199,on,2,0.5,0.75,0.5,0.893,3,198,1,1,1,2,2,32,128,164,,,,,,0,77,77,77,,,,,,,,,,,,,,,,,,,,,,,,,,,,,,,,,,,,,,,,,,,,,,,,,,,,,,,,,534.5821673999999,535.0848243999999,535.0848243999999,535.8373339999998,535.8373339999998,536.3371748,536.3371748,537.2342111999997,537.2342111999997,None,num_6,0.6391252000003078,537.2342111999997,None,sad,1,Happy,537.8811240800003,None,None,537.8811240800003,None,,,,,,,,,,,,,,,,,,,,,,,,,,,,,,,,,,,,,,,,,,,,,,,,,,,,,19,001,0,19,525,500,2022_Oct_11_1055,Experiment,2021.1.4,359.9556534584333,
images\S9_F_S_03.png,images\S9_F_S_03_scrambled.png,9,sad,-30,female,1,,114,on,2,0.5,0.75,0.5,0.817,3,113,2,1,1,2,2,32,128,161,,,,,,0,78,78,78,,,,,,,,,,,,,,,,,,,,,,,,,,,,,,,,,,,,,,,,,,,,,,,,,,,,,,,,,537.9283538,538.4309945000005,538.4309945000005,539.1863192000001,539.1863192000001,539.6890419000001,539.6890419000001,540.5109246000002,540.5109246000002,None,num_6,0.5463872000000265,540.5109246000002,None,sad,1,Sad,541.0718492600005,None,None,541.0718492600005,None,,,,,,,,,,,,,,,,,,,,,,,,,,,,,,,,,,,,,,,,,,,,,,,,,,,,,19,001,0,19,525,500,2022_Oct_11_1055,Experiment,2021.1.4,359.9556534584333,
images\S2_M_H_02.png,images\S2_M_H_02_scrambled.png,2,happy,20,male,5,,428,on,2,0.5,0.75,0.5,0.837,3,427,3,1,1,2,2,32,128,165,,,,,,0,79,79,79,,,,,,,,,,,,,,,,,,,,,,,,,,,,,,,,,,,,,,,,,,,,,,,,,,,,,,,,,541.1190439000002,541.6216487000002,541.6216487000002,542.3742812999999,542.3742812999999,542.8796456,542.8796456,543.7210302000003,543.7210302000003,None,num_4,0.36117660000036267,543.7210302000003,None,happy,1,Happy,544.1099512799999,None,None,544.1099512799999,None,,,,,,,,,,,,,,,,,,,,,,,,,,,,,,,,,,,,,,,,,,,,,,,,,,,,,19,001,0,19,525,500,2022_Oct_11_1055,Experiment,2021.1.4,359.9556534584333,
images\S5_F_H_02.png,images\S5_F_H_02_scrambled.png,5,happy,20,female,5,,566,on,2,0.5,0.75,0.5,0.769,3,565,4,1,2,2,2,32,128,165,,,,,,0,80,80,80,,,,,,,,,,,,,,,,,,,,,,,,,,,,,,,,,,,,,,,,,,,,,,,,,,,,,,,,,544.1736504,544.6762889000001,544.6762889000001,545.4315974000001,545.4315974000001,545.9343009000004,545.9343009000004,546.7062169000001,546.7062169000001,None,num_6,0.631142400000499,546.7062169000001,None,sad,1,Happy,547.34486068,None,None,547.34486068,None,,,,,,,,,,,,,,,,,,,,,,,,,,,,,,,,,,,,,,,,,,,,,,,,,,,,,19,001,0,19,525,500,2022_Oct_11_1055,Experiment,2021.1.4,359.9556534584333,
images\S5_F_H_03.png,images\S5_F_H_03_scrambled.png,5,happy,30,female,6,,327,on,2,0.5,0.75,0.5,0.789,3,326,5,2,1,2,2,32,128,166,,,,,,0,81,81,81,,,,,,,,,,,,,,,,,,,,,,,,,,,,,,,,,,,,,,,,,,,,,,,,,,,,,,,,,547.3920888000002,547.8947198000005,547.8947198000005,548.6472676000003,548.6472676000003,549.1499276000004,549.1499276000004,549.9385296999999,549.9385296999999,None,num_4,0.31908019999991666,549.9385296999999,None,happy,1,Happy,550.2830034199998,None,None,550.2830034199998,None,,,,,,,,,,,,,,,,,,,,,,,,,,,,,,,,,,,,,,,,,,,,,,,,,,,,,19,001,0,19,525,500,2022_Oct_11_1055,Experiment,2021.1.4,359.9556534584333,
images\S10_M_H_01.png,images\S10_M_H_01_scrambled.png,10,happy,10,male,4,,175,off,1,0.5,0.75,0.5,0.916,3,174,1,1,1,0,0,0,0,4,,,,,,0,82,82,82,,,,,,,,,,,,,,,,,,,,,,,,,,,,,,,,,,,,,,,,,,,,,,,,,,,,,,,,,550.3356341999997,550.8383794000001,550.8383794000001,551.5937105000003,551.5937105000003,552.0934182999999,552.0934182999999,553.0126225000004,553.0126225000004,None,num_4,0.3486019000001761,553.0126225000004,None,happy,1,Happy,553.3819171800003,None,None,553.3819171800003,None,,,,,,,,,,,,,,,,,,,,,,,,,,,,,,,,,,,,,,,,,,,,,,,,,,,,,19,001,0,19,525,500,2022_Oct_11_1055,Experiment,2021.1.4,359.9556534584333,
images\S3_F_S_01.png,images\S3_F_S_01_scrambled.png,3,sad,-10,female,3,,436,on,2,0.5,0.75,0.5,0.845,3,435,1,1,1,2,2,32,128,163,,,,,,0,83,83,83,,,,,,,,,,,,,,,,,,,,,,,,,,,,,,,,,,,,,,,,,,,,,,,,,,,,,,,,,553.4346912999999,553.9373049000005,553.9373049000005,554.6898473000001,554.6898473000001,555.1924779999999,555.1924779999999,556.0394575,556.0394575,None,num_6,0.39364869999917573,556.0394575,None,sad,1,Sad,556.4476221600004,None,None,556.4476221600004,None,,,,,,,,,,,,,,,,,,,,,,,,,,,,,,,,,,,,,,,,,,,,,,,,,,,,,19,001,0,19,525,500,2022_Oct_11_1055,Experiment,2021.1.4,359.9556534584333,
images\S5_F_H_01.png,images\S5_F_H_01_scrambled.png,5,happy,10,female,4,,205,on,2,0.5,0.75,0.5,0.9,3,204,2,1,1,2,2,32,128,164,,,,,,0,84,84,84,,,,,,,,,,,,,,,,,,,,,,,,,,,,,,,,,,,,,,,,,,,,,,,,,,,,,,,,,556.4948415999997,556.9974606000005,556.9974606000005,557.7500085000001,557.7500085000001,558.2554368000001,558.2554368000001,559.1607202000005,559.1607202000005,None,num_4,0.33672329999990325,559.1607202000005,None,happy,1,Happy,559.5189803400002,None,None,559.5189803400002,None,,,,,,,,,,,,,,,,,,,,,,,,,,,,,,,,,,,,,,,,,,,,,,,,,,,,,19,001,0,19,525,500,2022_Oct_11_1055,Experiment,2021.1.4,359.9556534584333,
images\S5_F_S_03.png,images\S5_F_S_03_scrambled.png,5,sad,-30,female,1,,570,on,2,0.5,0.75,0.5,0.8,3,569,3,2,1,2,2,32,128,161,,,,,,0,85,85,85,,,,,,,,,,,,,,,,,,,,,,,,,,,,,,,,,,,,,,,,,,,,,,,,,,,,,,,,,559.5661135999999,560.0715283999998,560.0715283999998,560.8241545999999,560.8241545999999,561.3295121000001,561.3295121000001,562.1292061000004,562.1292061000004,None,num_6,0.39232840000022406,562.1292061000004,None,sad,1,Sad,562.54307712,None,None,562.54307712,None,,,,,,,,,,,,,,,,,,,,,,,,,,,,,,,,,,,,,,,,,,,,,,,,,,,,,19,001,0,19,525,500,2022_Oct_11_1055,Experiment,2021.1.4,359.9556534584333,
images\S2_M_H_03.png,images\S2_M_H_03_scrambled.png,2,happy,30,male,6,,249,off,1,0.5,0.75,0.5,0.794,3,248,1,1,1,0,0,0,0,6,,,,,,0,86,86,86,,,,,,,,,,,,,,,,,,,,,,,,,,,,,,,,,,,,,,,,,,,,,,,,,,,,,,,,,562.5957323000002,563.1011551000001,563.1011551000001,563.8564680999998,563.8564680999998,564.3591594999998,564.3591594999998,565.1560725999998,565.1560725999998,None,num_4,0.3090087999999014,565.1560725999998,None,happy,1,Happy,565.4754352599999,None,None,565.4754352599999,None,,,,,,,,,,,,,,,,,,,,,,,,,,,,,,,,,,,,,,,,,,,,,,,,,,,,,19,001,0,19,525,500,2022_Oct_11_1055,Experiment,2021.1.4,359.9556534584333,
images\S3_F_S_01.png,images\S3_F_S_01_scrambled.png,3,sad,-10,female,3,,76,on,2,0.5,0.75,0.5,0.912,3,75,1,1,1,2,2,32,128,163,,,,,,0,87,87,87,,,,,,,,,,,,,,,,,,,,,,,,,,,,,,,,,,,,,,,,,,,,,,,,,,,,,,,,,565.5226062000002,566.0281475000002,566.0281475000002,566.7777904000004,566.7777904000004,567.2776561000001,567.2776561000001,568.1941127,568.1941127,None,num_6,0.2790733000001637,568.1941127,None,sad,1,Sad,568.4883469599996,None,None,568.4883469599996,None,,,,,,,,,,,,,,,,,,,,,,,,,,,,,,,,,,,,,,,,,,,,,,,,,,,,,19,001,0,19,525,500,2022_Oct_11_1055,Experiment,2021.1.4,359.9556534584333,
images\S7_F_S_03.png,images\S7_F_S_03_scrambled.png,7,sad,-30,female,1,,42,off,1,0.5,0.75,0.5,0.789,3,41,1,1,1,0,0,0,0,1,,,,,,0,88,88,88,,,,,,,,,,,,,,,,,,,,,,,,,,,,,,,,,,,,,,,,,,,,,,,,,,,,,,,,,568.5938787000005,569.0993246999997,569.0993246999997,569.8490603999999,569.8490603999999,570.3516824999997,570.3516824999997,571.1431263000004,571.1431263000004,None,num_6,0.43399909999970987,571.1431263000004,None,sad,1,Sad,571.5874523600002,None,None,571.5874523600002,None,,,,,,,,,,,,,,,,,,,,,,,,,,,,,,,,,,,,,,,,,,,,,,,,,,,,,19,001,0,19,525,500,2022_Oct_11_1055,Experiment,2021.1.4,359.9556534584333,
images\S2_M_S_02.png,images\S2_M_S_02_scrambled.png,2,sad,-20,male,2,,71,on,2,0.5,0.75,0.5,0.757,3,70,1,1,1,2,2,32,128,162,,,,,,0,89,89,89,,,,,,,,,,,,,,,,,,,,,,,,,,,,,,,,,,,,,,,,,,,,,,,,,,,,,,,,,571.6346073000004,572.1372387000001,572.1372387000001,572.8898162000005,572.8898162000005,573.3924248000003,573.3924248000003,574.1534179999999,574.1534179999999,None,num_6,0.47163670000009006,574.1534179999999,None,sad,1,Sad,574.6364834600005,None,None,574.6364834600005,None,,,,,,,,,,,,,,,,,,,,,,,,,,,,,,,,,,,,,,,,,,,,,,,,,,,,,19,001,0,19,525,500,2022_Oct_11_1055,Experiment,2021.1.4,359.9556534584333,
images\S1_F_H_01.png,images\S1_F_H_01_scrambled.png,1,happy,10,female,4,,361,off,1,0.5,0.75,0.5,0.815,3,360,1,1,1,0,0,0,0,4,,,,,,0,90,90,90,,,,,,,,,,,,,,,,,,,,,,,,,,,,,,,,,,,,,,,,,,,,,,,,,,,,,,,,,574.6836683000001,575.1863060000005,575.1863060000005,575.9389667000005,575.9389667000005,576.4386956999997,576.4386956999997,577.2606729999998,577.2606729999998,None,num_4,0.46853770000052464,577.2606729999998,None,happy,1,Happy,577.7438209600001,None,None,577.7438209600001,None,,,,,,,,,,,,,,,,,,,,,,,,,,,,,,,,,,,,,,,,,,,,,,,,,,,,,19,001,0,19,525,500,2022_Oct_11_1055,Experiment,2021.1.4,359.9556534584333,
images\S8_M_S_03.png,images\S8_M_S_03_scrambled.png,8,sad,-30,male,1,,408,off,1,0.5,0.75,0.5,0.89,3,407,2,1,1,0,0,0,0,1,,,,,,0,91,91,91,,,,,,,,,,,,,,,,,,,,,,,,,,,,,,,,,,,,,,,,,,,,,,,,,,,,,,,,,577.8493543000004,578.3548010000004,578.3548010000004,579.1101144000004,579.1101144000004,579.6127366000001,579.6127366000001,580.5096834000005,580.5096834000005,None,num_6,0.61138899999969,580.5096834000005,None,sad,1,Sad,581.1372738,None,None,581.1372738,None,,,,,,,,,,,,,,,,,,,,,,,,,,,,,,,,,,,,,,,,,,,,,,,,,,,,,19,001,0,19,525,500,2022_Oct_11_1055,Experiment,2021.1.4,359.9556534584333,
images\S1_F_S_03.png,images\S1_F_S_03_scrambled.png,1,sad,-30,female,1,,546,on,2,0.5,0.75,0.5,0.825,3,545,1,1,2,2,2,32,128,161,,,,,,0,92,92,92,,,,,,,,,,,,,,,,,,,,,,,,,,,,,,,,,,,,,,,,,,,,,,,,,,,,,,,,,581.1844487999997,581.6870637000002,581.6870637000002,582.4368314000003,582.4368314000003,582.9394939000003,582.9394939000003,583.7641875999998,583.7641875999998,None,num_6,0.40516219999972236,583.7641875999998,None,sad,1,Sad,584.1834608599999,None,None,584.1834608599999,None,,,,,,,,,,,,,,,,,,,,,,,,,,,,,,,,,,,,,,,,,,,,,,,,,,,,,19,001,0,19,525,500,2022_Oct_11_1055,Experiment,2021.1.4,359.9556534584333,
images\S8_M_S_02.png,images\S8_M_S_02_scrambled.png,8,sad,-20,male,2,,107,on,2,0.5,0.75,0.5,0.934,3,106,2,1,1,2,2,32,128,162,,,,,,0,93,93,93,,,,,,,,,,,,,,,,,,,,,,,,,,,,,,,,,,,,,,,,,,,,,,,,,,,,,,,,,584.2310125000004,584.7361338999999,584.7361338999999,585.4858780000004,585.4858780000004,585.9884971000001,585.9884971000001,586.9243747,586.9243747,None,num_6,0.33286039999984496,586.9243747,None,sad,1,Sad,587.2714352600002,None,None,587.2714352600002,None,,,,,,,,,,,,,,,,,,,,,,,,,,,,,,,,,,,,,,,,,,,,,,,,,,,,,19,001,0,19,525,500,2022_Oct_11_1055,Experiment,2021.1.4,359.9556534584333,
images\blank.jpg,images\blank.jpg,none,none,none,none,0,,646,on,2,0.5,0.75,0.5,0.802,0,645,3,1,1,3,3,48,192,240,,,,,,0,94,94,94,,,,,,,,,,,,,,,,,,,,,,,,,,,,,,,,,,,,,,,,,,,,,,,,,,,,,,,,,587.3549724000004,587.8601767,587.8601767,588.6155029000001,588.6155029000001,589.1208892000004,589.1208892000004,589.9290241999997,589.9290241999997,589.9290241999997,None,,589.9290241999997,None,miss,1,,592.9308782799997,None,None,592.9308782799997,None,,,,,,,,,,,,,,,,,,,,,,,,,,,,,,,,,,,,,,,,,,,,,,,,,,,,,19,001,0,19,525,500,2022_Oct_11_1055,Experiment,2021.1.4,359.9556534584333,
images\S7_F_H_02.png,images\S7_F_H_02_scrambled.png,7,happy,20,female,5,,98,on,2,0.5,0.75,0.5,0.868,3,97,4,1,1,2,2,32,128,165,,,,,,0,95,95,95,,,,,,,,,,,,,,,,,,,,,,,,,,,,,,,,,,,,,,,,,,,,,,,,,,,,,,,,,593.0921616000005,593.5917222999997,593.5917222999997,594.3443010999999,594.3443010999999,594.8469216000003,594.8469216000003,595.7216225000002,595.7216225000002,None,num_4,0.35955400000057125,595.7216225000002,593.0921616000005,happy,1,Happy,596.1104140599997,None,None,596.1104140599997,None,,,,,,,,,,,,,,,,,,,,,,,,,,,,,,,,,,,,,,,,,,,,,,,,,,,,,19,001,0,19,525,500,2022_Oct_11_1055,Experiment,2021.1.4,359.9556534584333,
images\S8_M_S_01.png,images\S8_M_S_01_scrambled.png,8,sad,-10,male,3,,586,on,2,0.5,0.75,0.5,0.788,3,585,5,1,1,2,2,32,128,163,,,,,,0,96,96,96,,,,,,,,,,,,,,,,,,,,,,,,,,,,,,,,,,,,,,,,,,,,,,,,,,,,,,,,,596.1631420000003,596.6657786000005,596.6657786000005,597.4211010999998,597.4211010999998,597.9238463000002,597.9238463000002,598.7151685999997,598.7151685999997,None,num_6,0.5339379999995799,598.7151685999997,None,sad,1,Sad,599.2622171600002,None,None,599.2622171600002,None,,,,,,,,,,,,,,,,,,,,,,,,,,,,,,,,,,,,,,,,,,,,,,,,,,,,,19,001,0,19,525,500,2022_Oct_11_1055,Experiment,2021.1.4,359.9556534584333,
images\S9_F_S_02.png,images\S9_F_S_02_scrambled.png,9,sad,-20,female,2,,173,off,1,0.5,0.75,0.5,0.948,3,172,1,1,1,0,0,0,0,2,,,,,,0,97,97,97,,,,,,,,,,,,,,,,,,,,,,,,,,,,,,,,,,,,,,,,,,,,,,,,,,,,,,,,,599.3093951000001,599.8148323000005,599.8148323000005,600.5701589999999,600.5701589999999,601.0728936000005,601.0728936000005,602.0280745999999,602.0280745999999,None,num_6,0.33301180000034947,602.0280745999999,None,sad,1,Sad,602.3723937600004,None,None,602.3723937600004,None,,,,,,,,,,,,,,,,,,,,,,,,,,,,,,,,,,,,,,,,,,,,,,,,,,,,,19,001,0,19,525,500,2022_Oct_11_1055,Experiment,2021.1.4,359.9556534584333,
images\S4_M_S_02.png,images\S4_M_S_02_scrambled.png,4,sad,-20,male,2,,83,on,2,0.5,0.75,0.5,0.842,3,82,1,1,2,2,2,32,128,162,,,,,,0,98,98,98,,,,,,,,,,,,,,,,,,,,,,,,,,,,,,,,,,,,,,,,,,,,,,,,,,,,,,,,,602.4556405000003,602.9610567999998,602.9610567999998,603.7136065000004,603.7136065000004,604.2190701999998,604.2190701999998,605.0633098999997,605.0633098999997,None,num_6,0.3217125000001033,605.0633098999997,None,sad,1,Sad,605.3964423599997,None,None,605.3964423599997,None,,,,,,,,,,,,,,,,,,,,,,,,,,,,,,,,,,,,,,,,,,,,,,,,,,,,,19,001,0,19,525,500,2022_Oct_11_1055,Experiment,2021.1.4,359.9556534584333,
images\S10_M_S_02.png,images\S10_M_S_02_scrambled.png,10,sad,-20,male,2,,119,on,2,0.5,0.75,0.5,0.901,3,118,2,1,3,2,2,32,128,162,,,,,,0,99,99,99,,,,,,,,,,,,,,,,,,,,,,,,,,,,,,,,,,,,,,,,,,,,,,,,,,,,,,,,,605.4436052000001,605.9462470999997,605.9462470999997,606.6987896,606.6987896,607.2042483000005,607.2042483000005,608.1094917,608.1094917,None,num_6,0.31617779999942286,608.1094917,None,sad,1,Sad,608.4456062399998,None,None,608.4456062399998,None,,,,,,,,,,,,,,,,,,,,,,,,,,,,,,,,,,,,,,,,,,,,,,,,,,,,,19,001,0,19,525,500,2022_Oct_11_1055,Experiment,2021.1.4,359.9556534584333,
images\blank.jpg,images\blank.jpg,none,none,none,none,0,,628,on,2,0.5,0.75,0.5,0.911,0,627,3,1,1,3,3,48,192,240,,,,,,0,100,100,100,,,,,,,,,,,,,,,,,,,,,,,,,,,,,,,,,,,,,,,,,,,,,,,,,,,,,,,,,608.5345366000001,609.0369521000002,609.0369521000002,609.7895123999997,609.7895123999997,610.2921151999999,610.2921151999999,611.2029738000001,611.2029738000001,611.2029738000001,None,,611.2029738000001,None,miss,1,,614.2048527799996,None,None,614.2048527799996,None,,,,,,,,,,,,,,,,,,,,,,,,,,,,,,,,,,,,,,,,,,,,,,,,,,,,,19,001,0,19,525,500,2022_Oct_11_1055,Experiment,2021.1.4,359.9556534584333,
images\S2_M_H_03.png,images\S2_M_H_03_scrambled.png,2,happy,30,male,6,,429,on,2,0.5,0.75,0.5,0.763,3,428,4,1,1,2,2,32,128,166,,,,,,0,101,101,101,,,,,,,,,,,,,,,,,,,,,,,,,,,,,,,,,,,,,,,,,,,,,,,,,,,,,,,,,614.3272357000005,614.8268251999998,614.8268251999998,615.5765971000001,615.5765971000001,616.0792032999998,616.0792032999998,616.8485092999999,616.8485092999999,None,num_4,0.36081170000034035,616.8485092999999,614.3272357000005,happy,1,Happy,617.2372637199998,None,None,617.2372637199998,None,,,,,,,,,,,,,,,,,,,,,,,,,,,,,,,,,,,,,,,,,,,,,,,,,,,,,19,001,0,19,525,500,2022_Oct_11_1055,Experiment,2021.1.4,359.9556534584333,
images\S8_M_H_01.png,images\S8_M_H_01_scrambled.png,8,happy,10,male,4,,583,on,2,0.5,0.75,0.5,0.857,3,582,5,1,1,2,2,32,128,164,,,,,,0,102,102,102,,,,,,,,,,,,,,,,,,,,,,,,,,,,,,,,,,,,,,,,,,,,,,,,,,,,,,,,,617.2899478999998,617.7953710000002,617.7953710000002,618.5479181999999,618.5479181999999,619.0505395999999,619.0505395999999,619.9113684000004,619.9113684000004,None,num_4,0.3857657000007748,619.9113684000004,None,happy,1,Happy,620.3112180599998,None,None,620.3112180599998,None,,,,,,,,,,,,,,,,,,,,,,,,,,,,,,,,,,,,,,,,,,,,,,,,,,,,,19,001,0,19,525,500,2022_Oct_11_1055,Experiment,2021.1.4,359.9556534584333,
images\S2_M_S_03.png,images\S2_M_S_03_scrambled.png,2,sad,-30,male,1,,372,off,1,0.5,0.75,0.5,0.786,3,371,1,1,1,0,0,0,0,1,,,,,,0,103,103,103,,,,,,,,,,,,,,,,,,,,,,,,,,,,,,,,,,,,,,,,,,,,,,,,,,,,,,,,,620.3917663000002,620.8943928999997,620.8943928999997,621.6497436,621.6497436,622.1523262000001,622.1523262000001,622.9438866999999,622.9438866999999,None,num_6,0.32156399999985297,622.9438866999999,None,sad,1,Sad,623.2937837199999,None,None,623.2937837199999,None,,,,,,,,,,,,,,,,,,,,,,,,,,,,,,,,,,,,,,,,,,,,,,,,,,,,,19,001,0,19,525,500,2022_Oct_11_1055,Experiment,2021.1.4,359.9556534584333,
images\blank.jpg,images\blank.jpg,none,none,none,none,0,,641,on,2,0.5,0.75,0.5,0.903,0,640,1,1,1,3,3,48,192,240,,,,,,0,104,104,104,,,,,,,,,,,,,,,,,,,,,,,,,,,,,,,,,,,,,,,,,,,,,,,,,,,,,,,,,623.3827067000002,623.8880340000005,623.8880340000005,624.6404781000001,624.6404781000001,625.1432209000004,625.1432209000004,626.0511437000005,626.0511437000005,626.0511437000005,None,,626.0511437000005,None,miss,1,,629.0530384400003,None,None,629.0530384400003,None,,,,,,,,,,,,,,,,,,,,,,,,,,,,,,,,,,,,,,,,,,,,,,,,,,,,,19,001,0,19,525,500,2022_Oct_11_1055,Experiment,2021.1.4,359.9556534584333,
images\blank.jpg,images\blank.jpg,none,none,none,none,0,,619,on,2,0.5,0.75,0.5,0.922,0,618,2,2,2,3,3,48,192,240,,,,,,0,105,105,105,,,,,,,,,,,,,,,,,,,,,,,,,,,,,,,,,,,,,,,,,,,,,,,,,,,,,,,,,629.0835333000005,629.5861615000003,629.5861615000003,630.3414820999997,630.3414820999997,630.8441760000005,630.8441760000005,631.7688948000005,631.7688948000005,631.7688948000005,None,,631.7688948000005,629.0835333000005,miss,1,,634.7735040799996,None,None,634.7735040799996,None,,,,,,,,,,,,,,,,,,,,,,,,,,,,,,,,,,,,,,,,,,,,,,,,,,,,,19,001,0,19,525,500,2022_Oct_11_1055,Experiment,2021.1.4,359.9556534584333,
images\S2_M_S_02.png,images\S2_M_S_02_scrambled.png,2,sad,-20,male,2,,431,on,2,0.5,0.75,0.5,0.775,3,430,3,1,1,2,2,32,128,162,,,,,,0,106,106,106,,,,,,,,,,,,,,,,,,,,,,,,,,,,,,,,,,,,,,,,,,,,,,,,,,,,,,,,,634.8959228000003,635.3983662,635.3983662,636.1536852999998,636.1536852999998,636.6534019999999,636.6534019999999,637.4338079999998,637.4338079999998,None,num_6,0.3111940999997387,637.4338079999998,634.8959228000003,sad,1,Sad,637.7558671599996,None,None,637.7558671599996,None,,,,,,,,,,,,,,,,,,,,,,,,,,,,,,,,,,,,,,,,,,,,,,,,,,,,,19,001,0,19,525,500,2022_Oct_11_1055,Experiment,2021.1.4,359.9556534584333,
images\S7_F_H_01.png,images\S7_F_H_01_scrambled.png,7,happy,10,female,4,,217,on,2,0.5,0.75,0.5,0.829,3,216,4,1,1,2,2,32,128,164,,,,,,0,107,107,107,,,,,,,,,,,,,,,,,,,,,,,,,,,,,,,,,,,,,,,,,,,,,,,,,,,,,,,,,637.8030492999997,638.3056999999999,638.3056999999999,639.0582998,639.0582998,639.5637643999999,639.5637643999999,640.3995089,640.3995089,None,num_4,0.31354000000010274,640.3995089,None,happy,1,Happy,640.7271319600001,None,None,640.7271319600001,None,,,,,,,,,,,,,,,,,,,,,,,,,,,,,,,,,,,,,,,,,,,,,,,,,,,,,19,001,0,19,525,500,2022_Oct_11_1055,Experiment,2021.1.4,359.9556534584333,
images\S7_F_H_01.png,images\S7_F_H_01_scrambled.png,7,happy,10,female,4,,517,off,1,0.5,0.75,0.5,0.846,3,516,1,2,2,0,0,0,0,4,,,,,,0,108,108,108,,,,,,,,,,,,,,,,,,,,,,,,,,,,,,,,,,,,,,,,,,,,,,,,,,,,,,,,,640.7743649000004,641.2742060999999,641.2742060999999,642.0295623000002,642.0295623000002,642.5321535000003,642.5321535000003,643.3846985,643.3846985,None,num_4,0.3124032999994597,643.3846985,None,happy,1,Happy,643.7208354400003,None,None,643.7208354400003,None,,,,,,,,,,,,,,,,,,,,,,,,,,,,,,,,,,,,,,,,,,,,,,,,,,,,,19,001,0,19,525,500,2022_Oct_11_1055,Experiment,2021.1.4,359.9556534584333,
images\S2_M_S_01.png,images\S2_M_S_01_scrambled.png,2,sad,-10,male,3,,310,on,2,0.5,0.75,0.5,0.852,3,309,1,1,1,2,2,32,128,163,,,,,,0,109,109,109,,,,,,,,,,,,,,,,,,,,,,,,,,,,,,,,,,,,,,,,,,,,,,,,,,,,,,,,,643.7734278999997,644.2760709000004,644.2760709000004,645.0286145999999,645.0286145999999,645.5340772,645.5340772,646.3892935000003,646.3892935000003,None,num_4,0.3558582999994542,646.3892935000003,None,happy,1,Sad,646.7530468800003,None,None,646.7530468800003,None,,,,,,,,,,,,,,,,,,,,,,,,,,,,,,,,,,,,,,,,,,,,,,,,,,,,,19,001,0,19,525,500,2022_Oct_11_1055,Experiment,2021.1.4,359.9556534584333,
images\blank.jpg,images\blank.jpg,none,none,none,none,0,,640,on,2,0.5,0.75,0.5,0.841,0,639,2,1,1,3,3,48,192,240,,,,,,0,110,110,110,,,,,,,,,,,,,,,,,,,,,,,,,,,,,,,,,,,,,,,,,,,,,,,,,,,,,,,,,646.8366107000002,647.3390904999997,647.3390904999997,648.0943557,648.0943557,648.5997531000003,648.5997531000003,649.4439785000004,649.4439785000004,649.4439785000004,None,,649.4439785000004,None,miss,1,,652.4486238799998,None,None,652.4486238799998,None,,,,,,,,,,,,,,,,,,,,,,,,,,,,,,,,,,,,,,,,,,,,,,,,,,,,,19,001,0,19,525,500,2022_Oct_11_1055,Experiment,2021.1.4,359.9556534584333,
images\S1_F_S_01.png,images\S1_F_S_01_scrambled.png,1,sad,-10,female,3,,124,off,1,0.5,0.75,0.5,0.791,3,123,1,1,1,0,0,0,0,3,,,,,,0,111,111,111,,,,,,,,,,,,,,,,,,,,,,,,,,,,,,,,,,,,,,,,,,,,,,,,,,,,,,,,,652.5737295999998,653.0789689000003,653.0789689000003,653.8342536999999,653.8342536999999,654.3396533000005,654.3396533000005,655.1338316000001,655.1338316000001,None,num_4,0.2673197000003711,655.1338316000001,652.5737295999998,happy,1,Sad,655.4059622800003,None,None,655.4059622800003,None,,,,,,,,,,,,,,,,,,,,,,,,,,,,,,,,,,,,,,,,,,,,,,,,,,,,,19,001,0,19,525,500,2022_Oct_11_1055,Experiment,2021.1.4,359.9556534584333,
images\S10_M_H_02.png,images\S10_M_H_02_scrambled.png,10,happy,20,male,5,,536,off,1,0.5,0.75,0.5,0.893,3,535,2,1,1,0,0,0,0,5,,,,,,0,112,112,112,,,,,,,,,,,,,,,,,,,,,,,,,,,,,,,,,,,,,,,,,,,,,,,,,,,,,,,,,655.4531560000005,655.9557943999998,655.9557943999998,656.7084508999997,656.7084508999997,657.2138525,657.2138525,658.1106907000003,658.1106907000003,None,num_4,0.626289299999371,658.1106907000003,None,happy,1,Happy,658.7521530600003,None,None,658.7521530600003,None,,,,,,,,,,,,,,,,,,,,,,,,,,,,,,,,,,,,,,,,,,,,,,,,,,,,,19,001,0,19,525,500,2022_Oct_11_1055,Experiment,2021.1.4,359.9556534584333,
images\S2_M_H_01.png,images\S2_M_H_01_scrambled.png,2,happy,10,male,4,,67,on,2,0.5,0.75,0.5,0.762,3,66,1,1,1,2,2,32,128,164,,,,,,0,113,113,113,,,,,,,,,,,,,,,,,,,,,,,,,,,,,,,,,,,,,,,,,,,,,,,,,,,,,,,,,658.7993398999997,659.3019731000004,659.3019731000004,660.0545493,660.0545493,660.5599463999997,660.5599463999997,661.3263439000002,661.3263439000002,None,num_6,0.378592000000026,661.3263439000002,None,sad,1,Happy,661.7123007799999,None,None,661.7123007799999,None,,,,,,,,,,,,,,,,,,,,,,,,,,,,,,,,,,,,,,,,,,,,,,,,,,,,,19,001,0,19,525,500,2022_Oct_11_1055,Experiment,2021.1.4,359.9556534584333,
images\S5_F_S_02.png,images\S5_F_S_02_scrambled.png,5,sad,-20,female,2,,389,off,1,0.5,0.75,0.5,0.843,3,388,1,1,1,0,0,0,0,2,,,,,,0,114,114,114,,,,,,,,,,,,,,,,,,,,,,,,,,,,,,,,,,,,,,,,,,,,,,,,,,,,,,,,,661.8206523999997,662.3234121000005,662.3234121000005,663.0758191000004,663.0758191000004,663.5785446,663.5785446,664.4253799999997,664.4253799999997,None,num_6,0.31995830000050773,664.4253799999997,None,sad,1,Sad,664.7725375199999,None,None,664.7725375199999,None,,,,,,,,,,,,,,,,,,,,,,,,,,,,,,,,,,,,,,,,,,,,,,,,,,,,,19,001,0,19,525,500,2022_Oct_11_1055,Experiment,2021.1.4,359.9556534584333,
images\S3_F_H_01.png,images\S3_F_H_01_scrambled.png,3,happy,10,female,4,,433,on,2,0.5,0.75,0.5,0.865,3,432,1,1,1,2,2,32,128,164,,,,,,0,115,115,115,,,,,,,,,,,,,,,,,,,,,,,,,,,,,,,,,,,,,,,,,,,,,,,,,,,,,,,,,664.8252576000004,665.3306742000004,665.3306742000004,666.0859959999998,666.0859959999998,666.5887469999998,666.5887469999998,667.4605806999998,667.4605806999998,None,num_6,0.29236719999971683,667.4605806999998,None,sad,1,Happy,667.75770618,None,None,667.75770618,None,,,,,,,,,,,,,,,,,,,,,,,,,,,,,,,,,,,,,,,,,,,,,,,,,,,,,19,001,0,19,525,500,2022_Oct_11_1055,Experiment,2021.1.4,359.9556534584333,
images\S3_F_H_02.png,images\S3_F_H_02_scrambled.png,3,happy,20,female,5,,494,off,1,0.5,0.75,0.5,0.936,3,493,1,2,1,0,0,0,0,5,,,,,,0,116,116,116,,,,,,,,,,,,,,,,,,,,,,,,,,,,,,,,,,,,,,,,,,,,,,,,,,,,,,,,,667.8048940999997,668.3103185999998,668.3103185999998,669.0628649,669.0628649,669.5626832999997,669.5626832999997,670.5041288000002,670.5041288000002,None,num_6,0.2968076999995901,670.5041288000002,None,sad,1,Happy,670.8094925800003,None,None,670.8094925800003,None,,,,,,,,,,,,,,,,,,,,,,,,,,,,,,,,,,,,,,,,,,,,,,,,,,,,,19,001,0,19,525,500,2022_Oct_11_1055,Experiment,2021.1.4,359.9556534584333,
images\S7_F_H_03.png,images\S7_F_H_03_scrambled.png,7,happy,30,female,6,,159,off,1,0.5,0.75,0.5,0.828,3,158,2,1,1,0,0,0,0,6,,,,,,0,117,117,117,,,,,,,,,,,,,,,,,,,,,,,,,,,,,,,,,,,,,,,,,,,,,,,,,,,,,,,,,670.8928305999998,671.3926738999999,671.3926738999999,672.1452443999997,672.1452443999997,672.6450629999999,672.6450629999999,673.4753865000002,673.4753865000002,None,num_4,0.325402600000416,673.4753865000002,None,happy,1,Happy,673.8253182599998,None,None,673.8253182599998,None,,,,,,,,,,,,,,,,,,,,,,,,,,,,,,,,,,,,,,,,,,,,,,,,,,,,,19,001,0,19,525,500,2022_Oct_11_1055,Experiment,2021.1.4,359.9556534584333,
images\S4_M_S_03.png,images\S4_M_S_03_scrambled.png,4,sad,-30,male,1,,324,on,2,0.5,0.75,0.5,0.865,3,323,1,1,1,2,2,32,128,161,,,,,,0,118,118,118,,,,,,,,,,,,,,,,,,,,,,,,,,,,,,,,,,,,,,,,,,,,,,,,,,,,,,,,,673.9141134000001,674.4139894,674.4139894,675.1637484000003,675.1637484000003,675.6663479999997,675.6663479999997,676.5355556000004,676.5355556000004,None,num_6,0.4174190000003364,676.5355556000004,None,sad,1,Sad,676.9632225600004,None,None,676.9632225600004,None,,,,,,,,,,,,,,,,,,,,,,,,,,,,,,,,,,,,,,,,,,,,,,,,,,,,,19,001,0,19,525,500,2022_Oct_11_1055,Experiment,2021.1.4,359.9556534584333,
images\blank.jpg,images\blank.jpg,none,none,none,none,0,,603,on,2,0.5,0.75,0.5,0.94,0,602,2,1,1,3,3,48,192,240,,,,,,0,119,119,119,,,,,,,,,,,,,,,,,,,,,,,,,,,,,,,,,,,,,,,,,,,,,,,,,,,,,,,,,677.0467080999997,677.5490987000003,677.5490987000003,678.3016574000003,678.3016574000003,678.8043248000004,678.8043248000004,679.7485689000005,679.7485689000005,679.7485689000005,None,,679.7485689000005,None,miss,1,,682.7531271799996,None,None,682.7531271799996,None,,,,,,,,,,,,,,,,,,,,,,,,,,,,,,,,,,,,,,,,,,,,,,,,,,,,,19,001,0,19,525,500,2022_Oct_11_1055,Experiment,2021.1.4,359.9556534584333,
images\S10_M_S_02.png,images\S10_M_S_02_scrambled.png,10,sad,-20,male,2,,299,off,1,0.5,0.75,0.5,0.942,3,298,1,1,1,0,0,0,0,2,,,,,,0,120,120,120,,,,,,,,,,,,,,,,,,,,,,,,,,,,,,,,,,,,,,,,,,,,,,,,,,,,,,,,,682.8754713999997,683.3806549999999,683.3806549999999,684.1359774000002,684.1359774000002,684.6387077999998,684.6387077999998,685.5799513000002,685.5799513000002,None,num_6,0.3010975999995935,685.5799513000002,682.8754713999997,sad,1,Sad,685.90768932,None,None,685.90768932,None,,,,,,,,,,,,,,,,,,,,,,,,,,,,,,,,,,,,,,,,,,,,,,,,,,,,,19,001,0,19,525,500,2022_Oct_11_1055,Experiment,2021.1.4,359.9556534584333,
images\S9_F_S_01.png,images\S9_F_S_01_scrambled.png,9,sad,-10,female,3,,532,off,1,0.5,0.75,0.5,0.852,3,531,2,1,1,0,0,0,0,3,,,,,,0,121,121,121,,,,,,,,,,,,,,,,,,,,,,,,,,,,,,,,,,,,,,,,,,,,,,,,,,,,,,,,,685.9603988999997,686.4657907000001,686.4657907000001,687.2184765000002,687.2184765000002,687.7238163000002,687.7238163000002,688.5791113000005,688.5791113000005,None,num_6,0.3023793000002115,688.5791113000005,None,sad,1,Sad,688.9096724799999,None,None,688.9096724799999,None,,,,,,,,,,,,,,,,,,,,,,,,,,,,,,,,,,,,,,,,,,,,,,,,,,,,,19,001,0,19,525,500,2022_Oct_11_1055,Experiment,2021.1.4,359.9556534584333,
images\S4_M_S_01.png,images\S4_M_S_01_scrambled.png,4,sad,-10,male,3,,562,on,2,0.5,0.75,0.5,0.754,3,561,1,1,2,2,2,32,128,163,,,,,,0,122,122,122,,,,,,,,,,,,,,,,,,,,,,,,,,,,,,,,,,,,,,,,,,,,,,,,,,,,,,,,,689.0288251000002,689.5287539000001,689.5287539000001,690.2785111000003,690.2785111000003,690.7839996000002,690.7839996000002,691.5448165999996,691.5448165999996,None,num_6,0.5440287000001263,691.5448165999996,None,sad,1,Sad,692.1002052600003,None,None,692.1002052600003,None,,,,,,,,,,,,,,,,,,,,,,,,,,,,,,,,,,,,,,,,,,,,,,,,,,,,,19,001,0,19,525,500,2022_Oct_11_1055,Experiment,2021.1.4,359.9556534584333,
images\S7_F_S_02.png,images\S7_F_S_02_scrambled.png,7,sad,-20,female,2,,401,off,1,0.5,0.75,0.5,0.874,3,400,1,1,1,0,0,0,0,2,,,,,,0,123,123,123,,,,,,,,,,,,,,,,,,,,,,,,,,,,,,,,,,,,,,,,,,,,,,,,,,,,,,,,,692.1473715000002,692.6499887999998,692.6499887999998,693.4025801999996,693.4025801999996,693.9024208000001,693.9024208000001,694.7828086,694.7828086,None,num_6,0.33832819999952335,694.7828086,None,sad,1,Sad,695.1437841199996,None,None,695.1437841199996,None,,,,,,,,,,,,,,,,,,,,,,,,,,,,,,,,,,,,,,,,,,,,,,,,,,,,,19,001,0,19,525,500,2022_Oct_11_1055,Experiment,2021.1.4,359.9556534584333,
images\S4_M_S_02.png,images\S4_M_S_02_scrambled.png,4,sad,-20,male,2,,143,off,1,0.5,0.75,0.5,0.898,3,142,2,1,2,0,0,0,0,2,,,,,,0,124,124,124,,,,,,,,,,,,,,,,,,,,,,,,,,,,,,,,,,,,,,,,,,,,,,,,,,,,,,,,,695.1964270999997,695.6991333000005,695.6991333000005,696.4544192000003,696.4544192000003,696.9570500999998,696.9570500999998,697.8595345000003,697.8595345000003,None,num_6,0.32548750000023574,697.8595345000003,None,sad,1,Sad,698.2010744599999,None,None,698.2010744599999,None,,,,,,,,,,,,,,,,,,,,,,,,,,,,,,,,,,,,,,,,,,,,,,,,,,,,,19,001,0,19,525,500,2022_Oct_11_1055,Experiment,2021.1.4,359.9556534584333,
images\S7_F_S_03.png,images\S7_F_S_03_scrambled.png,7,sad,-30,female,1,,162,off,1,0.5,0.75,0.5,0.813,3,161,3,1,1,0,0,0,0,1,,,,,,0,125,125,125,,,,,,,,,,,,,,,,,,,,,,,,,,,,,,,,,,,,,,,,,,,,,,,,,,,,,,,,,698.2510422000005,698.7564503000003,698.7564503000003,699.5090639999999,699.5090639999999,700.0144264999999,700.0144264999999,700.8337116000002,700.8337116000002,None,num_6,0.3592806999995446,700.8337116000002,None,sad,1,Sad,701.2056710599996,None,None,701.2056710599996,None,,,,,,,,,,,,,,,,,,,,,,,,,,,,,,,,,,,,,,,,,,,,,,,,,,,,,19,001,0,19,525,500,2022_Oct_11_1055,Experiment,2021.1.4,359.9556534584333,
images\S3_F_S_03.png,images\S3_F_S_03_scrambled.png,3,sad,-30,female,1,,138,off,1,0.5,0.75,0.5,0.855,3,137,4,1,2,0,0,0,0,1,,,,,,0,126,126,126,,,,,,,,,,,,,,,,,,,,,,,,,,,,,,,,,,,,,,,,,,,,,,,,,,,,,,,,,701.2889961999999,701.7916199000001,701.7916199000001,702.5442142000002,702.5442142000002,703.0496029000005,703.0496029000005,703.9048517000001,703.9048517000001,None,num_6,0.7760649000001649,703.9048517000001,None,sad,1,Sad,704.69074496,None,None,704.69074496,None,,,,,,,,,,,,,,,,,,,,,,,,,,,,,,,,,,,,,,,,,,,,,,,,,,,,,19,001,0,19,525,500,2022_Oct_11_1055,Experiment,2021.1.4,359.9556534584333,
images\S2_M_H_02.png,images\S2_M_H_02_scrambled.png,2,happy,20,male,5,,488,off,1,0.5,0.75,0.5,0.94,3,487,5,1,1,0,0,0,0,5,,,,,,0,127,127,127,,,,,,,,,,,,,,,,,,,,,,,,,,,,,,,,,,,,,,,,,,,,,,,,,,,,,,,,,704.7408041999997,705.2434519999997,705.2434519999997,705.9958868000003,705.9958868000003,706.498619,706.498619,707.4454501,707.4454501,None,num_4,0.36387829999966925,707.4454501,None,happy,1,Happy,707.8341991199997,None,None,707.8341991199997,None,,,,,,,,,,,,,,,,,,,,,,,,,,,,,,,,,,,,,,,,,,,,,,,,,,,,,19,001,0,19,525,500,2022_Oct_11_1055,Experiment,2021.1.4,359.9556534584333,
images\blank.jpg,images\blank.jpg,none,none,none,none,0,,611,on,2,0.5,0.75,0.5,0.847,0,610,1,1,1,3,3,48,192,240,,,,,,0,128,128,128,,,,,,,,,,,,,,,,,,,,,,,,,,,,,,,,,,,,,,,,,,,,,,,,,,,,,,,,,707.9204988000001,708.4230266000004,708.4230266000004,709.1754388999998,709.1754388999998,709.6808577000002,709.6808577000002,710.5277992000001,710.5277992000001,710.5277992000001,None,,710.5277992000001,None,miss,1,,713.52971908,None,None,713.52971908,None,,,,,,,,,,,,,,,,,,,,,,,,,,,,,,,,,,,,,,,,,,,,,,,,,,,,,19,001,0,19,525,500,2022_Oct_11_1055,Experiment,2021.1.4,359.9556534584333,
images\S6_M_H_03.png,images\S6_M_H_03_scrambled.png,6,happy,30,male,6,,513,off,1,0.5,0.75,0.5,0.845,3,512,1,1,1,0,0,0,0,6,,,,,,0,129,129,129,,,,,,,,,,,,,,,,,,,,,,,,,,,,,,,,,,,,,,,,,,,,,,,,,,,,,,,,,713.6492820000003,714.1516896000003,714.1516896000003,714.9042335000004,714.9042335000004,715.4096656000002,715.4096656000002,716.2594046000004,716.2594046000004,None,num_4,0.2935088000003816,716.2594046000004,713.6492820000003,happy,1,Happy,716.5842832999997,None,None,716.5842832999997,None,,,,,,,,,,,,,,,,,,,,,,,,,,,,,,,,,,,,,,,,,,,,,,,,,,,,,19,001,0,19,525,500,2022_Oct_11_1055,Experiment,2021.1.4,359.9556534584333,
images\S4_M_H_03.png,images\S4_M_H_03_scrambled.png,4,happy,30,male,6,,201,on,2,0.5,0.75,0.5,0.903,3,200,1,1,2,2,2,32,128,166,,,,,,0,130,130,130,,,,,,,,,,,,,,,,,,,,,,,,,,,,,,,,,,,,,,,,,,,,,,,,,,,,,,,,,716.6481355000005,717.1507773000003,717.1507773000003,717.9060895000002,717.9060895000002,718.4087817,718.4087817,719.3140585000001,719.3140585000001,None,num_4,0.2867574000001696,719.3140585000001,None,happy,1,Happy,719.6333695000003,None,space,719.6333695000003,None,22.439002199999777,,,,,,,,,,,,,,,,,,,,,,,,,,,,,,,,,,,,,,,,,,,,,,,,,,,,19,001,0,19,525,500,2022_Oct_11_1055,Experiment,2021.1.4,359.9556534584333,
images\S10_M_S_02.png,images\S10_M_S_02_scrambled.png,10,sad,-20,male,2,,539,off,1,0.5,0.75,0.5,0.776,3,538,1,1,1,0,0,0,0,2,,,,,,0,131,131,131,,,,,,,,,,,,,,,,,,,,,,,,,,,,,,,,,,,,,,,,,,,,,,,,,,,,,,,,,742.1291149999997,742.6345504000001,742.6345504000001,743.3898993000003,743.3898993000003,743.8952979000005,743.8952979000005,744.6784771000002,744.6784771000002,None,num_6,0.3144084000005023,744.6784771000002,None,sad,1,Sad,745.00331376,None,None,745.00331376,None,,,,,,,,,,,,,,,,,,,,,,,,,,,,,,,,,,,,,,,,,,,,,,,,,,,,,19,001,0,19,525,500,2022_Oct_11_1055,Experiment,2021.1.4,359.9556534584333,
images\S4_M_S_03.png,images\S4_M_S_03_scrambled.png,4,sad,-30,male,1,,264,off,1,0.5,0.75,0.5,0.844,3,263,2,1,1,0,0,0,0,1,,,,,,0,132,132,132,,,,,,,,,,,,,,,,,,,,,,,,,,,,,,,,,,,,,,,,,,,,,,,,,,,,,,,,,745.0504655000004,745.5532234000002,745.5532234000002,746.3085595000002,746.3085595000002,746.8110717,746.8110717,747.6579994000003,747.6579994000003,None,num_6,0.29562149999946996,747.6579994000003,None,sad,1,Sad,747.9775277799997,None,None,747.9775277799997,None,,,,,,,,,,,,,,,,,,,,,,,,,,,,,,,,,,,,,,,,,,,,,,,,,,,,,19,001,0,19,525,500,2022_Oct_11_1055,Experiment,2021.1.4,359.9556534584333,
images\S1_F_H_01.png,images\S1_F_H_01_scrambled.png,1,happy,10,female,4,,421,on,2,0.5,0.75,0.5,0.85,3,420,1,1,1,2,2,32,128,164,,,,,,0,133,133,133,,,,,,,,,,,,,,,,,,,,,,,,,,,,,,,,,,,,,,,,,,,,,,,,,,,,,,,,,748.0273268999999,748.5299468000003,748.5299468000003,749.2824959999998,749.2824959999998,749.7851117999999,749.7851117999999,750.6404346999998,750.6404346999998,None,num_4,0.29651319999993575,750.6404346999998,None,happy,1,Happy,750.9514075599997,None,None,750.9514075599997,None,,,,,,,,,,,,,,,,,,,,,,,,,,,,,,,,,,,,,,,,,,,,,,,,,,,,,19,001,0,19,525,500,2022_Oct_11_1055,Experiment,2021.1.4,359.9556534584333,
images\S6_M_H_01.png,images\S6_M_H_01_scrambled.png,6,happy,10,male,4,,391,off,1,0.5,0.75,0.5,0.88,3,390,1,1,2,0,0,0,0,4,,,,,,0,134,134,134,,,,,,,,,,,,,,,,,,,,,,,,,,,,,,,,,,,,,,,,,,,,,,,,,,,,,,,,,751.0347364999998,751.5401584000001,751.5401584000001,752.2928100999998,752.2928100999998,752.7953266000004,752.7953266000004,753.6784930000003,753.6784930000003,None,num_6,0.41060640000068815,753.6784930000003,None,sad,1,Happy,754.1004315199999,None,None,754.1004315199999,None,,,,,,,,,,,,,,,,,,,,,,,,,,,,,,,,,,,,,,,,,,,,,,,,,,,,,19,001,0,19,525,500,2022_Oct_11_1055,Experiment,2021.1.4,359.9556534584333,
images\S6_M_S_02.png,images\S6_M_S_02_scrambled.png,6,sad,-20,male,2,,155,off,1,0.5,0.75,0.5,0.773,3,154,2,2,1,0,0,0,0,2,,,,,,0,135,135,135,,,,,,,,,,,,,,,,,,,,,,,,,,,,,,,,,,,,,,,,,,,,,,,,,,,,,,,,,754.2087522000002,754.7141983000001,754.7141983000001,755.4667016000003,755.4667016000003,755.9693139999999,755.9693139999999,756.7441197999997,756.7441197999997,None,num_6,0.48858670000026905,756.7441197999997,None,sad,1,Sad,757.2439611599999,None,None,757.2439611599999,None,,,,,,,,,,,,,,,,,,,,,,,,,,,,,,,,,,,,,,,,,,,,,,,,,,,,,19,001,0,19,525,500,2022_Oct_11_1055,Experiment,2021.1.4,359.9556534584333,
images\S6_M_S_03.png,images\S6_M_S_03_scrambled.png,6,sad,-30,male,1,,576,on,2,0.5,0.75,0.5,0.783,3,575,1,3,1,2,2,32,128,161,,,,,,0,136,136,136,,,,,,,,,,,,,,,,,,,,,,,,,,,,,,,,,,,,,,,,,,,,,,,,,,,,,,,,,757.3605581000002,757.8633030000001,757.8633030000001,758.6186195,758.6186195,759.1239885000005,759.1239885000005,759.9098051000001,759.9098051000001,None,num_6,0.6192384999994829,759.9098051000001,None,sad,1,Sad,760.5429182599997,None,None,760.5429182599997,None,,,,,,,,,,,,,,,,,,,,,,,,,,,,,,,,,,,,,,,,,,,,,,,,,,,,,19,001,0,19,525,500,2022_Oct_11_1055,Experiment,2021.1.4,359.9556534584333,
images\S2_M_S_01.png,images\S2_M_S_01_scrambled.png,2,sad,-10,male,3,,10,off,1,0.5,0.75,0.5,0.947,3,9,1,1,1,0,0,0,0,3,,,,,,0,137,137,137,,,,,,,,,,,,,,,,,,,,,,,,,,,,,,,,,,,,,,,,,,,,,,,,,,,,,,,,,760.5901151999997,761.0955347999998,761.0955347999998,761.8480854,761.8480854,762.3535828000004,762.3535828000004,763.3059497000004,763.3059497000004,None,num_6,0.5508698999992703,763.3059497000004,None,sad,1,Sad,763.8696427600004,None,None,763.8696427600004,None,,,,,,,,,,,,,,,,,,,,,,,,,,,,,,,,,,,,,,,,,,,,,,,,,,,,,19,001,0,19,525,500,2022_Oct_11_1055,Experiment,2021.1.4,359.9556534584333,
images\S2_M_S_03.png,images\S2_M_S_03_scrambled.png,2,sad,-30,male,1,,312,on,2,0.5,0.75,0.5,0.95,3,311,1,2,1,2,2,32,128,161,,,,,,0,138,138,138,,,,,,,,,,,,,,,,,,,,,,,,,,,,,,,,,,,,,,,,,,,,,,,,,,,,,,,,,763.9168662000002,764.4195293000002,764.4195293000002,765.1748324,765.1748324,765.6774679999999,765.6774679999999,766.6299508000002,766.6299508000002,None,num_6,0.5390811999996004,766.6299508000002,None,sad,1,Sad,767.1825390600003,None,None,767.1825390600003,None,,,,,,,,,,,,,,,,,,,,,,,,,,,,,,,,,,,,,,,,,,,,,,,,,,,,,19,001,0,19,525,500,2022_Oct_11_1055,Experiment,2021.1.4,359.9556534584333,
images\S5_F_S_02.png,images\S5_F_S_02_scrambled.png,5,sad,-20,female,2,,89,on,2,0.5,0.75,0.5,0.769,3,88,2,1,1,2,2,32,128,162,,,,,,0,139,139,139,,,,,,,,,,,,,,,,,,,,,,,,,,,,,,,,,,,,,,,,,,,,,,,,,,,,,,,,,767.2297305000002,767.7295697,767.7295697,768.4793544000004,768.4793544000004,768.9847785000002,768.9847785000002,769.7539632999997,769.7539632999997,None,num_6,0.5671713000001546,769.7539632999997,None,sad,1,Sad,770.34278912,None,None,770.34278912,None,,,,,,,,,,,,,,,,,,,,,,,,,,,,,,,,,,,,,,,,,,,,,,,,,,,,,19,001,0,19,525,500,2022_Oct_11_1055,Experiment,2021.1.4,359.9556534584333,
images\blank.jpg,images\blank.jpg,none,none,none,none,0,,623,on,2,0.5,0.75,0.5,0.822,0,622,3,1,1,3,3,48,192,240,,,,,,0,140,140,140,,,,,,,,,,,,,,,,,,,,,,,,,,,,,,,,,,,,,,,,,,,,,,,,,,,,,,,,,770.4318473000003,770.9313712000003,770.9313712000003,771.6866884000001,771.6866884000001,772.1893503000001,772.1893503000001,773.0140965999999,773.0140965999999,773.0140965999999,None,,773.0140965999999,None,miss,1,,776.0159744800001,None,None,776.0159744800001,None,,,,,,,,,,,,,,,,,,,,,,,,,,,,,,,,,,,,,,,,,,,,,,,,,,,,,19,001,0,19,525,500,2022_Oct_11_1055,Experiment,2021.1.4,359.9556534584333,
