image_face,image_scram,avatar,emo,emotion,sex,trigeeg,dac,trial_no,NMES,stimtime,baseline,iti,face,scr_face,resp_time,index,count_NMES,count_avatar,count_emotion,dac1,dac2,dac1_output,dac2_output,trigs_out,nmes,practice_trials.thisRepN,practice_trials.thisTrialN,practice_trials.thisN,practice_trials.thisIndex,real_trials.thisRepN,real_trials.thisTrialN,real_trials.thisN,real_trials.thisIndex,trials.thisRepN,trials.thisTrialN,trials.thisN,trials.thisIndex,position,Welcome.started,Welcome.stopped,Welcome_resp.keys,Welcome_resp.rt,text_2.started,text_2.stopped,form_2.index,form_2.itemText,form_2.type,form_2.response,form_2.rt,key_resp_4.keys,key_resp_4.rt,key_resp_4.started,key_resp_4.stopped,instructions.started,instructions.stopped,end_instr.keys,end_instr.rt,instructions_2.started,instructions_2.stopped,end_instr_2.keys,end_instr_2.rt,end_instr_2.started,end_instr_2.stopped,instruct_keypress.started,instruct_keypress.stopped,end_instruct_keypress.keys,end_instruct_keypress.rt,start_practice.started,start_practice.stopped,start_practice_resp.keys,start_practice_resp.rt,prac_baseline.started,prac_baseline.stopped,prac_iti.started,prac_iti.stopped,prac_stimulus.started,prac_stimulus.stopped,prac_scram_stim.started,prac_scram_stim.stopped,prac_stimulus_resp.started,prac_stimulus_resp.stopped,prac_resp.keys,prac_resp.rt,prac_resp.started,prac_resp.stopped,transition_to_real.started,transition_to_real.stopped,end_transition_to_real.keys,end_transition_to_real.rt,fixation_cross.started,fixation_cross.stopped,tr_iti.started,tr_iti.stopped,stimulus.started,stimulus.stopped,scram_stim.started,scram_stim.stopped,response_txt.started,response_txt.stopped,response.keys,response.rt,response.started,response.stopped,participant_Resp,grouping,corAnswer,break_msg.started,break_msg.stopped,end_break.keys,end_break.started,end_break.stopped,end_break.rt,text.started,text.stopped,key_resp_3.keys,key_resp_3.rt,key_resp_3.started,key_resp_3.stopped,fix_cross_comf.started,fix_cross_comf.stopped,stimulation_comf.started,stimulation_comf.stopped,rate_instr.started,rate_instr.stopped,comfort_rating.response,comfort_rating.rt,comfort_rating.started,comfort_rating.stopped,resp_form.keys,resp_form.rt,resp_form.started,resp_form.stopped,survey_instructions.started,survey_instructions.stopped,key_resp_2.keys,key_resp_2.rt,key_resp_2.started,key_resp_2.stopped,form.index,form.itemText,form.type,form.response,form.rt,key_resp.keys,key_resp.rt,key_resp.started,key_resp.stopped,text_3.started,text_3.stopped,rate_smile.response,rate_smile.rt,rate_smile.started,rate_smile.stopped,key_resp_5.keys,key_resp_5.rt,key_resp_5.started,key_resp_5.stopped,end_msg.started,end_msg.stopped,end_resp.keys,end_resp.rt,end_resp.started,end_resp.stopped,participant,session,gender,age,LEFT,RIGHT,date,expName,psychopyVersion,frameRate,
,,,,,,,,,,,,,,,,,,,,,,,,,,,,,,,,,,,,,,H-S,61.780002100000274,None,num_add,3.502730399999564,,,,,,,,,,,,,,,,,,,,,,,,,,,,,,,,,,,,,,,,,,,,,,,,,,,,,,,,,,,,,,,,,,,,,,,,,,,,,,,,,,,,,,,,,,,,,,,,,,,,,,,,,,,,,,,,,,,,,,,,,,1,001,male,24,500,400,2022_Jun_30_1226,Experiment,2021.1.4,359.9737938994562,
,,,,,,,,,,,,,,,,,,,,,,,,,,,,,,,,,,,,,,,,,,,65.29006560000016,67.3366188,1,"This scale consistes of a number of words that describe different feelings and emotion. Read each item and then list the number from the scale below each word. Indicate (by clicking) to what extend you feel this way RIGHT NOW, that is, AT THE PRESENT MOMENT.",description,,,,,,,,,,,,,,,,,,,,,,,,,,,,,,,,,,,,,,,,,,,,,,,,,,,,,,,,,,,,,,,,,,,,,,,,,,,,,,,,,,,,,,,,,,,,,,,,,,,,,,,,,,,,,,,,,,,,,1,001,male,24,500,400,2022_Jun_30_1226,Experiment,2021.1.4,359.9737938994562,
,,,,,,,,,,,,,,,,,,,,,,,,,,,,,,,,,,,,,,,,,,,,,2,Interested,rating,4.0,15.936416399999871,,,,,,,,,,,,,,,,,,,,,,,,,,,,,,,,,,,,,,,,,,,,,,,,,,,,,,,,,,,,,,,,,,,,,,,,,,,,,,,,,,,,,,,,,,,,,,,,,,,,,,,,,,,,,,,,,,,1,001,male,24,500,400,2022_Jun_30_1226,Experiment,2021.1.4,359.9737938994562,
,,,,,,,,,,,,,,,,,,,,,,,,,,,,,,,,,,,,,,,,,,,,,3,Distressed,rating,3.0,29.122540200000003,,,,,,,,,,,,,,,,,,,,,,,,,,,,,,,,,,,,,,,,,,,,,,,,,,,,,,,,,,,,,,,,,,,,,,,,,,,,,,,,,,,,,,,,,,,,,,,,,,,,,,,,,,,,,,,,,,,1,001,male,24,500,400,2022_Jun_30_1226,Experiment,2021.1.4,359.9737938994562,
,,,,,,,,,,,,,,,,,,,,,,,,,,,,,,,,,,,,,,,,,,,,,4,Excited,rating,4.0,32.12355310000021,,,,,,,,,,,,,,,,,,,,,,,,,,,,,,,,,,,,,,,,,,,,,,,,,,,,,,,,,,,,,,,,,,,,,,,,,,,,,,,,,,,,,,,,,,,,,,,,,,,,,,,,,,,,,,,,,,,1,001,male,24,500,400,2022_Jun_30_1226,Experiment,2021.1.4,359.9737938994562,
,,,,,,,,,,,,,,,,,,,,,,,,,,,,,,,,,,,,,,,,,,,,,5,Upset,rating,2.0,37.93201090000002,,,,,,,,,,,,,,,,,,,,,,,,,,,,,,,,,,,,,,,,,,,,,,,,,,,,,,,,,,,,,,,,,,,,,,,,,,,,,,,,,,,,,,,,,,,,,,,,,,,,,,,,,,,,,,,,,,,1,001,male,24,500,400,2022_Jun_30_1226,Experiment,2021.1.4,359.9737938994562,
,,,,,,,,,,,,,,,,,,,,,,,,,,,,,,,,,,,,,,,,,,,,,6,Strong,rating,2.0,41.81122200000027,,,,,,,,,,,,,,,,,,,,,,,,,,,,,,,,,,,,,,,,,,,,,,,,,,,,,,,,,,,,,,,,,,,,,,,,,,,,,,,,,,,,,,,,,,,,,,,,,,,,,,,,,,,,,,,,,,,1,001,male,24,500,400,2022_Jun_30_1226,Experiment,2021.1.4,359.9737938994562,
,,,,,,,,,,,,,,,,,,,,,,,,,,,,,,,,,,,,,,,,,,,,,7,Guilty,rating,1.0,13.998446499999773,,,,,,,,,,,,,,,,,,,,,,,,,,,,,,,,,,,,,,,,,,,,,,,,,,,,,,,,,,,,,,,,,,,,,,,,,,,,,,,,,,,,,,,,,,,,,,,,,,,,,,,,,,,,,,,,,,,1,001,male,24,500,400,2022_Jun_30_1226,Experiment,2021.1.4,359.9737938994562,
,,,,,,,,,,,,,,,,,,,,,,,,,,,,,,,,,,,,,,,,,,,,,8,Scared,rating,3.0,35.0529432000003,,,,,,,,,,,,,,,,,,,,,,,,,,,,,,,,,,,,,,,,,,,,,,,,,,,,,,,,,,,,,,,,,,,,,,,,,,,,,,,,,,,,,,,,,,,,,,,,,,,,,,,,,,,,,,,,,,,1,001,male,24,500,400,2022_Jun_30_1226,Experiment,2021.1.4,359.9737938994562,
,,,,,,,,,,,,,,,,,,,,,,,,,,,,,,,,,,,,,,,,,,,,,9,Hostile,rating,1.0,37.35958539999956,,,,,,,,,,,,,,,,,,,,,,,,,,,,,,,,,,,,,,,,,,,,,,,,,,,,,,,,,,,,,,,,,,,,,,,,,,,,,,,,,,,,,,,,,,,,,,,,,,,,,,,,,,,,,,,,,,,1,001,male,24,500,400,2022_Jun_30_1226,Experiment,2021.1.4,359.9737938994562,
,,,,,,,,,,,,,,,,,,,,,,,,,,,,,,,,,,,,,,,,,,,,,10,Enthusiastic,rating,2.0,37.42824859999928,,,,,,,,,,,,,,,,,,,,,,,,,,,,,,,,,,,,,,,,,,,,,,,,,,,,,,,,,,,,,,,,,,,,,,,,,,,,,,,,,,,,,,,,,,,,,,,,,,,,,,,,,,,,,,,,,,,1,001,male,24,500,400,2022_Jun_30_1226,Experiment,2021.1.4,359.9737938994562,
,,,,,,,,,,,,,,,,,,,,,,,,,,,,,,,,,,,,,,,,,,,,,11,Proud,rating,4.0,38.604122099999586,,,,,,,,,,,,,,,,,,,,,,,,,,,,,,,,,,,,,,,,,,,,,,,,,,,,,,,,,,,,,,,,,,,,,,,,,,,,,,,,,,,,,,,,,,,,,,,,,,,,,,,,,,,,,,,,,,,1,001,male,24,500,400,2022_Jun_30_1226,Experiment,2021.1.4,359.9737938994562,
,,,,,,,,,,,,,,,,,,,,,,,,,,,,,,,,,,,,,,,,,,,,,12,Irritable,rating,3.0,35.792298300000766,,,,,,,,,,,,,,,,,,,,,,,,,,,,,,,,,,,,,,,,,,,,,,,,,,,,,,,,,,,,,,,,,,,,,,,,,,,,,,,,,,,,,,,,,,,,,,,,,,,,,,,,,,,,,,,,,,,1,001,male,24,500,400,2022_Jun_30_1226,Experiment,2021.1.4,359.9737938994562,
,,,,,,,,,,,,,,,,,,,,,,,,,,,,,,,,,,,,,,,,,,,,,13,Alert,rating,4.0,21.241388200000074,,,,,,,,,,,,,,,,,,,,,,,,,,,,,,,,,,,,,,,,,,,,,,,,,,,,,,,,,,,,,,,,,,,,,,,,,,,,,,,,,,,,,,,,,,,,,,,,,,,,,,,,,,,,,,,,,,,1,001,male,24,500,400,2022_Jun_30_1226,Experiment,2021.1.4,359.9737938994562,
,,,,,,,,,,,,,,,,,,,,,,,,,,,,,,,,,,,,,,,,,,,,,14,Ashamed,rating,1.0,13.984447700000601,,,,,,,,,,,,,,,,,,,,,,,,,,,,,,,,,,,,,,,,,,,,,,,,,,,,,,,,,,,,,,,,,,,,,,,,,,,,,,,,,,,,,,,,,,,,,,,,,,,,,,,,,,,,,,,,,,,1,001,male,24,500,400,2022_Jun_30_1226,Experiment,2021.1.4,359.9737938994562,
,,,,,,,,,,,,,,,,,,,,,,,,,,,,,,,,,,,,,,,,,,,,,15,Inspired,rating,3.0,18.220304799999212,,,,,,,,,,,,,,,,,,,,,,,,,,,,,,,,,,,,,,,,,,,,,,,,,,,,,,,,,,,,,,,,,,,,,,,,,,,,,,,,,,,,,,,,,,,,,,,,,,,,,,,,,,,,,,,,,,,1,001,male,24,500,400,2022_Jun_30_1226,Experiment,2021.1.4,359.9737938994562,
,,,,,,,,,,,,,,,,,,,,,,,,,,,,,,,,,,,,,,,,,,,,,16,Nervous,rating,3.0,20.650999700001194,,,,,,,,,,,,,,,,,,,,,,,,,,,,,,,,,,,,,,,,,,,,,,,,,,,,,,,,,,,,,,,,,,,,,,,,,,,,,,,,,,,,,,,,,,,,,,,,,,,,,,,,,,,,,,,,,,,1,001,male,24,500,400,2022_Jun_30_1226,Experiment,2021.1.4,359.9737938994562,
,,,,,,,,,,,,,,,,,,,,,,,,,,,,,,,,,,,,,,,,,,,,,17,Determined,rating,4.0,21.956375499999922,,,,,,,,,,,,,,,,,,,,,,,,,,,,,,,,,,,,,,,,,,,,,,,,,,,,,,,,,,,,,,,,,,,,,,,,,,,,,,,,,,,,,,,,,,,,,,,,,,,,,,,,,,,,,,,,,,,1,001,male,24,500,400,2022_Jun_30_1226,Experiment,2021.1.4,359.9737938994562,
,,,,,,,,,,,,,,,,,,,,,,,,,,,,,,,,,,,,,,,,,,,,,18,Attentive,rating,4.0,15.577670900000157,,,,,,,,,,,,,,,,,,,,,,,,,,,,,,,,,,,,,,,,,,,,,,,,,,,,,,,,,,,,,,,,,,,,,,,,,,,,,,,,,,,,,,,,,,,,,,,,,,,,,,,,,,,,,,,,,,,1,001,male,24,500,400,2022_Jun_30_1226,Experiment,2021.1.4,359.9737938994562,
,,,,,,,,,,,,,,,,,,,,,,,,,,,,,,,,,,,,,,,,,,,,,19,Jittery,rating,1.0,14.644680200000948,,,,,,,,,,,,,,,,,,,,,,,,,,,,,,,,,,,,,,,,,,,,,,,,,,,,,,,,,,,,,,,,,,,,,,,,,,,,,,,,,,,,,,,,,,,,,,,,,,,,,,,,,,,,,,,,,,,1,001,male,24,500,400,2022_Jun_30_1226,Experiment,2021.1.4,359.9737938994562,
,,,,,,,,,,,,,,,,,,,,,,,,,,,,,,,,,,,,,,,,,,,,,20,Active,rating,4.0,15.819104900001548,,,,,,,,,,,,,,,,,,,,,,,,,,,,,,,,,,,,,,,,,,,,,,,,,,,,,,,,,,,,,,,,,,,,,,,,,,,,,,,,,,,,,,,,,,,,,,,,,,,,,,,,,,,,,,,,,,,1,001,male,24,500,400,2022_Jun_30_1226,Experiment,2021.1.4,359.9737938994562,
,,,,,,,,,,,,,,,,,,,,,,,,,,,,,,,,,,,,,,,,,,,,,21,Afraid,rating,1.0,18.410150100000465,,,,,,,,,,,,,,,,,,,,,,,,,,,,,,,,,,,,,,,,,,,,,,,,,,,,,,,,,,,,,,,,,,,,,,,,,,,,,,,,,,,,,,,,,,,,,,,,,,,,,,,,,,,,,,,,,,,1,001,male,24,500,400,2022_Jun_30_1226,Experiment,2021.1.4,359.9737938994562,
,,,,,,,,,,,,,,,,,,,,,,,,,,,,,,,,,,,,,,,,,,,,,22,Press the + button to submit your answers,description,,,,,,,,,,,,,,,,,,,,,,,,,,,,,,,,,,,,,,,,,,,,,,,,,,,,,,,,,,,,,,,,,,,,,,,,,,,,,,,,,,,,,,,,,,,,,,,,,,,,,,,,,,,,,,,,,,,,,1,001,male,24,500,400,2022_Jun_30_1226,Experiment,2021.1.4,359.9737938994562,
,,,,,,,,,,,,,,,,,,,,,,,,,,,,,,,,,,,,,,,,,,,,,,,,,,num_add,119.27184300000044,75.30640680000033,None,,,,,,,,,,,,,,,,,,,,,,,,,,,,,,,,,,,,,,,,,,,,,,,,,,,,,,,,,,,,,,,,,,,,,,,,,,,,,,,,,,,,,,,,,,,,,,,,,,,,,,,,,,,,,,,1,001,male,24,500,400,2022_Jun_30_1226,Experiment,2021.1.4,359.9737938994562,
,,,,,,,,,,,,,,,,,,,,,,,,,,,,,,,,,,,,,,,,,,,,,,,,,,,,,,194.60000039999977,None,num_add,21.338432000000466,,,,,,,,,,,,,,,,,,,,,,,,,,,,,,,,,,,,,,,,,,,,,,,,,,,,,,,,,,,,,,,,,,,,,,,,,,,,,,,,,,,,,,,,,,,,,,,,,,,,,,,,,,,1,001,male,24,500,400,2022_Jun_30_1226,Experiment,2021.1.4,359.9737938994562,
,,,,,,,,,,,,,,,,,,,,,,,,,,,,,,,,,,,,,,,,,,,,,,,,,,,,,,,,,,215.94623370000045,None,num_add,11.392003400000249,215.94623370000045,None,,,,,,,,,,,,,,,,,,,,,,,,,,,,,,,,,,,,,,,,,,,,,,,,,,,,,,,,,,,,,,,,,,,,,,,,,,,,,,,,,,,,,,,,,,,,,,,,,,,,,1,001,male,24,500,400,2022_Jun_30_1226,Experiment,2021.1.4,359.9737938994562,
,,,,,,,,,,,,,,,,,,,,,,,,,,,,,,,,,,,,,,,,,,,,,,,,,,,,,,,,,,,,,,,,227.36486940000032,None,num_add,16.71719640000083,,,,,,,,,,,,,,,,,,,,,,,,,,,,,,,,,,,,,,,,,,,,,,,,,,,,,,,,,,,,,,,,,,,,,,,,,,,,,,,,,,,,,,,,,,,,,,,,,1,001,male,24,500,400,2022_Jun_30_1226,Experiment,2021.1.4,359.9737938994562,
,,,,,,,,,,,,,,,,,,,,,,,,,,,,,,,,,,,,,,,,,,,,,,,,,,,,,,,,,,,,,,,,,,,,244.09021720000055,None,space,15.439813400000276,,,,,,,,,,,,,,,,,,,,,,,,,,,,,,,,,,,,,,,,,,,,,,,,,,,,,,,,,,,,,,,,,,,,,,,,,,,,,,,,,,,,,,,,,,,,,1,001,male,24,500,400,2022_Jun_30_1226,Experiment,2021.1.4,359.9737938994562,
images\S22_M_S_03.png,images\S22_M_S_03_scrambled.png,22,Sad,0.3,M,0,0,practice,on,2,0.5,0.75,0.5,0.87,3,,,,,,,,,,,0,0,0,4,,,,,,,,,,,,,,,,,,,,,,,,,,,,,,,,,,,,,,,,,,,259.7270817999997,260.2297361000001,260.2297361000001,260.98505880000084,260.98505880000084,261.48489690000133,261.48489690000133,262.3596468000014,262.3596468000014,None,num_4,1.1313083000004553,262.3596468000014,None,,,,,,,,,,,,,,,,,,,,,,,,,,,,,,,,,,,,,,,,,,,,,,,,,,,,,,,,,,,,,,,,,,,,,,,,,,,,,,,1,001,male,24,500,400,2022_Jun_30_1226,Experiment,2021.1.4,359.9737938994562,
images\S21_F_H_01.png,images\S21_F_H_01_scrambled.png,21,Happy,-0.1,F,0,0,practice,off,1,0.5,0.75,0.5,0.853,3,,,,,,,,,,,0,1,1,0,,,,,,,,,,,,,,,,,,,,,,,,,,,,,,,,,,,,,,,,,,,263.61197920000086,264.11465730000054,264.11465730000054,264.8699774000015,264.8699774000015,265.37259040000026,265.37259040000026,266.22787140000037,266.22787140000037,None,num_4,0.6310182999986864,266.22787140000037,None,,,,,,,,,,,,,,,,,,,,,,,,,,,,,,,,,,,,,,,,,,,,,,,,,,,,,,,,,,,,,,,,,,,,,,,,,,,,,,,1,001,male,24,500,400,2022_Jun_30_1226,Experiment,2021.1.4,359.9737938994562,
images\S22_M_S_03.png,images\S22_M_S_03_scrambled.png,22,Sad,0.3,M,0,0,practice,on,2,0.5,0.75,0.5,0.794,3,,,,,,,,,,,0,2,2,7,,,,,,,,,,,,,,,,,,,,,,,,,,,,,,,,,,,,,,,,,,,266.91095900000073,267.41360650000024,267.41360650000024,268.16338410000026,268.16338410000026,268.6688742000006,268.6688742000006,269.4629435000006,269.4629435000006,None,num_4,1.0117253000007622,269.4629435000006,None,,,,,,,,,,,,,,,,,,,,,,,,,,,,,,,,,,,,,,,,,,,,,,,,,,,,,,,,,,,,,,,,,,,,,,,,,,,,,,,1,001,male,24,500,400,2022_Jun_30_1226,Experiment,2021.1.4,359.9737938994562,
images\S22_M_S_02.png,images\S22_M_S_02_scrambled.png,22,Sad,0.2,M,0,0,practice,off,1,0.5,0.75,0.5,0.751,3,,,,,,,,,,,0,3,3,3,,,,,,,,,,,,,,,,,,,,,,,,,,,,,,,,,,,,,,,,,,,270.5903756000007,271.09581270000126,271.09581270000126,271.8511107000013,271.8511107000013,272.353836100001,272.353836100001,273.10917680000057,273.10917680000057,None,num_4,1.0696867999995447,273.10917680000057,None,,,,,,,,,,,,,,,,,,,,,,,,,,,,,,,,,,,,,,,,,,,,,,,,,,,,,,,,,,,,,,,,,,,,,,,,,,,,,,,1,001,male,24,500,400,2022_Jun_30_1226,Experiment,2021.1.4,359.9737938994562,
images\S22_M_S_02.png,images\S22_M_S_02_scrambled.png,22,Sad,0.2,M,0,0,practice,on,2,0.5,0.75,0.5,0.783,3,,,,,,,,,,,0,4,4,6,,,,,,,,,,,,,,,,,,,,,,,,,,,,,,,,,,,,,,,,,,,274.2420221000011,274.7446938000012,274.7446938000012,275.497243400001,275.497243400001,275.9998685999999,275.9998685999999,276.7829031000001,276.7829031000001,None,num_4,1.2356507999993482,276.7829031000001,None,,,,,,,,,,,,,,,,,,,,,,,,,,,,,,,,,,,,,,,,,,,,,,,,,,,,,,,,,,,,,,,,,,,,,,,,,,,,,,,1,001,male,24,500,400,2022_Jun_30_1226,Experiment,2021.1.4,359.9737938994562,
images\S21_F_H_02.png,images\S21_F_H_02_scrambled.png,21,Happy,-0.2,F,0,0,practice,off,1,0.5,0.75,0.5,0.91,3,,,,,,,,,,,0,5,5,1,,,,,,,,,,,,,,,,,,,,,,,,,,,,,,,,,,,,,,,,,,,278.0797252000011,278.5851605000007,278.5851605000007,279.34046769999986,279.34046769999986,279.84032430000116,279.84032430000116,280.7540398000001,280.7540398000001,None,num_4,1.6004837000000407,280.7540398000001,None,,,,,,,,,,,,,,,,,,,,,,,,,,,,,,,,,,,,,,,,,,,,,,,,,,,,,,,,,,,,,,,,,,,,,,,,,,,,,,,1,001,male,24,500,400,2022_Jun_30_1226,Experiment,2021.1.4,359.9737938994562,
images\S22_M_S_01.png,images\S22_M_S_01_scrambled.png,22,Sad,0.1,M,0,0,practice,on,2,0.5,0.75,0.5,0.867,3,,,,,,,,,,,0,6,6,5,,,,,,,,,,,,,,,,,,,,,,,,,,,,,,,,,,,,,,,,,,,282.4672619000012,282.9699175000005,282.9699175000005,283.7224733000003,283.7224733000003,284.2223199,284.2223199,285.09145929999977,285.09145929999977,None,num_4,0.4310903000005055,285.09145929999977,None,,,,,,,,,,,,,,,,,,,,,,,,,,,,,,,,,,,,,,,,,,,,,,,,,,,,,,,,,,,,,,,,,,,,,,,,,,,,,,,1,001,male,24,500,400,2022_Jun_30_1226,Experiment,2021.1.4,359.9737938994562,
images\S22_M_H_02.png,images\S22_M_H_02_scrambled.png,22,Happy,-0.2,M,0,0,practice,off,1,0.5,0.75,0.5,0.883,3,,,,,,,,,,,0,7,7,2,,,,,,,,,,,,,,,,,,,,,,,,,,,,,,,,,,,,,,,,,,,285.6357168000013,286.1411375000007,286.1411375000007,286.8936855000011,286.8936855000011,287.3935029000004,287.3935029000004,288.27939740000147,288.27939740000147,None,num_4,0.8031277999998565,288.27939740000147,None,,,,,,,,,,,,,,,,,,,,,,,,,,,,,,,,,,,,,,,,,,,,,,,,,,,,,,,,,,,,,,,,,,,,,,,,,,,,,,,1,001,male,24,500,400,2022_Jun_30_1226,Experiment,2021.1.4,359.9737938994562,
,,,,,,,,,,,,,,,,,,,,,,,,,,,,,,,,,,,,,,,,,,,,,,,,,,,,,,,,,,,,,,,,,,,,,,,,,,,,,,,,,,,,,,289.10686010000063,None,space,73.27889999999934,,,,,,,,,,,,,,,,,,,,,,,,,,,,,,,,,,,,,,,,,,,,,,,,,,,,,,,,,,,,,,,,,,,,,,,,,,,1,001,male,24,500,400,2022_Jun_30_1226,Experiment,2021.1.4,359.9737938994562,
images\S4_M_S_01.png,images\S4_M_S_01_scrambled.png,4,sad,-10,male,3,,502,off,1,0.5,0.75,0.5,0.854,3,501,1,1,1,0,0,0,0,3,,,,,,0,0,0,0,,,,,,,,,,,,,,,,,,,,,,,,,,,,,,,,,,,,,,,,,,,,,,,,,,,,,,,,,362.92012690000047,363.41998260000037,363.41998260000037,364.1697503000014,364.1697503000014,364.6724198000011,364.6724198000011,365.5333451000006,365.5333451000006,None,num_6,2.15695229999983,365.5333451000006,None,sad,1,Sad,367.7047873500014,None,None,367.7047873500014,None,,,,,,,,,,,,,,,,,,,,,,,,,,,,,,,,,,,,,,,,,,,,,,,,,,,,,1,001,male,24,500,400,2022_Jun_30_1226,Experiment,2021.1.4,359.9737938994562,
images\S6_M_H_02.png,images\S6_M_H_02_scrambled.png,6,happy,20,male,5,,32,off,1,0.5,0.75,0.5,0.941,3,31,2,1,1,0,0,0,0,5,,,,,,0,1,1,1,,,,,,,,,,,,,,,,,,,,,,,,,,,,,,,,,,,,,,,,,,,,,,,,,,,,,,,,,367.8102823999998,368.3157058000015,368.3157058000015,369.07098360000055,369.07098360000055,369.5737676000008,369.5737676000008,370.5205850000002,370.5205850000002,None,num_4,0.4656609000012395,370.5205850000002,None,happy,1,Happy,370.99819396000163,None,None,370.99819396000163,None,,,,,,,,,,,,,,,,,,,,,,,,,,,,,,,,,,,,,,,,,,,,,,,,,,,,,1,001,male,24,500,400,2022_Jun_30_1226,Experiment,2021.1.4,359.9737938994562,
images\S8_M_S_01.png,images\S8_M_S_01_scrambled.png,8,sad,-10,male,3,,46,off,1,0.5,0.75,0.5,0.798,3,45,3,1,1,0,0,0,0,3,,,,,,0,2,2,2,,,,,,,,,,,,,,,,,,,,,,,,,,,,,,,,,,,,,,,,,,,,,,,,,,,,,,,,,371.1120389000007,371.61469320000106,371.61469320000106,372.3700179000007,372.3700179000007,372.8698645000004,372.8698645000004,373.66961850000007,373.66961850000007,None,num_4,0.444737100000566,373.66961850000007,None,happy,1,Sad,374.12499417,None,None,374.12499417,None,,,,,,,,,,,,,,,,,,,,,,,,,,,,,,,,,,,,,,,,,,,,,,,,,,,,,1,001,male,24,500,400,2022_Jun_30_1226,Experiment,2021.1.4,359.9737938994562,
images\S1_F_S_03.png,images\S1_F_S_03_scrambled.png,1,sad,-30,female,1,,186,on,2,0.5,0.75,0.5,0.882,3,185,1,1,1,2,2,32,128,161,,,,,,0,3,3,3,,,,,,,,,,,,,,,,,,,,,,,,,,,,,,,,,,,,,,,,,,,,,,,,,,,,,,,,,374.23607190000075,374.7388265999998,374.7388265999998,375.4940966000013,375.4940966000013,375.9966525,375.9966525,376.88251090000085,376.88251090000085,None,num_6,0.5041077999994741,376.88251090000085,None,sad,1,Sad,377.3989407600016,None,None,377.3989407600016,None,,,,,,,,,,,,,,,,,,,,,,,,,,,,,,,,,,,,,,,,,,,,,,,,,,,,,1,001,male,24,500,400,2022_Jun_30_1226,Experiment,2021.1.4,359.9737938994562,
images\S2_M_S_02.png,images\S2_M_S_02_scrambled.png,2,sad,-20,male,2,,311,on,2,0.5,0.75,0.5,0.863,3,310,2,1,1,2,2,32,128,162,,,,,,0,4,4,4,,,,,,,,,,,,,,,,,,,,,,,,,,,,,,,,,,,,,,,,,,,,,,,,,,,,,,,,,377.51006600000073,378.0154796000006,378.0154796000006,378.76523110000016,378.76523110000016,379.26787140000124,379.26787140000124,380.134302800001,380.134302800001,None,num_4,0.4363761999993585,380.134302800001,None,happy,1,Sad,380.57583518000024,None,None,380.57583518000024,None,,,,,,,,,,,,,,,,,,,,,,,,,,,,,,,,,,,,,,,,,,,,,,,,,,,,,1,001,male,24,500,400,2022_Jun_30_1226,Experiment,2021.1.4,359.9737938994562,
images\blank.jpg,images\blank.jpg,none,none,none,none,0,,639,on,2,0.5,0.75,0.5,0.867,0,638,3,1,1,3,3,48,192,240,,,,,,0,5,5,5,,,,,,,,,,,,,,,,,,,,,,,,,,,,,,,,,,,,,,,,,,,,,,,,,,,,,,,,,380.6983798000001,381.2005998000004,381.2005998000004,381.9531500000012,381.9531500000012,382.4529954000009,382.4529954000009,383.32220140000027,383.32220140000027,383.32220140000027,None,,383.32220140000027,None,miss,1,,386.3241285800002,None,None,386.3241285800002,None,,,,,,,,,,,,,,,,,,,,,,,,,,,,,,,,,,,,,,,,,,,,,,,,,,,,,1,001,male,24,500,400,2022_Jun_30_1226,Experiment,2021.1.4,359.9737938994562,
images\S1_F_S_03.png,images\S1_F_S_03_scrambled.png,1,sad,-30,female,1,,426,on,2,0.5,0.75,0.5,0.797,3,425,4,1,1,2,2,32,128,161,,,,,,0,6,6,6,,,,,,,,,,,,,,,,,,,,,,,,,,,,,,,,,,,,,,,,,,,,,,,,,,,,,,,,,386.4462596000012,386.9489295000003,386.9489295000003,387.70417670000097,387.70417670000097,388.209560700001,388.209560700001,389.00927840000077,389.00927840000077,None,num_6,0.4093308000010438,389.00927840000077,386.4462596000012,sad,1,Sad,389.43146466000104,None,None,389.43146466000104,None,,,,,,,,,,,,,,,,,,,,,,,,,,,,,,,,,,,,,,,,,,,,,,,,,,,,,1,001,male,24,500,400,2022_Jun_30_1226,Experiment,2021.1.4,359.9737938994562,
images\S1_F_S_02.png,images\S1_F_S_02_scrambled.png,1,sad,-20,female,2,,305,on,2,0.5,0.75,0.5,0.855,3,304,5,2,1,2,2,32,128,162,,,,,,0,7,7,7,,,,,,,,,,,,,,,,,,,,,,,,,,,,,,,,,,,,,,,,,,,,,,,,,,,,,,,,,389.5146746999999,390.02011050000146,390.02011050000146,390.77263550000134,390.77263550000134,391.2725019999998,391.2725019999998,392.1277598000015,392.1277598000015,None,num_4,0.5383901999994123,392.1277598000015,None,happy,1,Sad,392.6747998800008,None,None,392.6747998800008,None,,,,,,,,,,,,,,,,,,,,,,,,,,,,,,,,,,,,,,,,,,,,,,,,,,,,,1,001,male,24,500,400,2022_Jun_30_1226,Experiment,2021.1.4,359.9737938994562,
images\S5_F_S_03.png,images\S5_F_S_03_scrambled.png,5,sad,-30,female,1,,390,off,1,0.5,0.75,0.5,0.927,3,389,1,1,1,0,0,0,0,1,,,,,,0,8,8,8,,,,,,,,,,,,,,,,,,,,,,,,,,,,,,,,,,,,,,,,,,,,,,,,,,,,,,,,,392.7858840000008,393.2886255000012,393.2886255000012,394.04392310000003,394.04392310000003,394.54927640000096,394.54927640000096,395.4767251000012,395.4767251000012,None,num_4,0.7737850000012259,395.4767251000012,None,happy,1,Sad,396.2597935800011,None,None,396.2597935800011,None,,,,,,,,,,,,,,,,,,,,,,,,,,,,,,,,,,,,,,,,,,,,,,,,,,,,,1,001,male,24,500,400,2022_Jun_30_1226,Experiment,2021.1.4,359.9737938994562,
images\S8_M_H_02.png,images\S8_M_H_02_scrambled.png,8,happy,20,male,5,,584,on,2,0.5,0.75,0.5,0.803,3,583,1,1,1,2,2,32,128,165,,,,,,0,9,9,9,,,,,,,,,,,,,,,,,,,,,,,,,,,,,,,,,,,,,,,,,,,,,,,,,,,,,,,,,396.3653309000001,396.8651840000002,396.8651840000002,397.6177623000003,397.6177623000003,398.11761670000124,398.11761670000124,398.9229015000001,398.9229015000001,None,num_4,1.2479130000010628,398.9229015000001,None,happy,1,Happy,400.19201854000164,None,None,400.19201854000164,None,,,,,,,,,,,,,,,,,,,,,,,,,,,,,,,,,,,,,,,,,,,,,,,,,,,,,1,001,male,24,500,400,2022_Jun_30_1226,Experiment,2021.1.4,359.9737938994562,
images\S9_F_S_03.png,images\S9_F_S_03_scrambled.png,9,sad,-30,female,1,,474,on,2,0.5,0.75,0.5,0.809,3,473,2,1,1,2,2,32,128,161,,,,,,0,10,10,10,,,,,,,,,,,,,,,,,,,,,,,,,,,,,,,,,,,,,,,,,,,,,,,,,,,,,,,,,400.30022460000146,400.8056503000007,400.8056503000007,401.5582030000005,401.5582030000005,402.0608217000008,402.0608217000008,402.8744647000003,402.8744647000003,None,num_6,0.9756659000013315,402.8744647000003,None,sad,1,Sad,403.86578656000125,None,None,403.86578656000125,None,,,,,,,,,,,,,,,,,,,,,,,,,,,,,,,,,,,,,,,,,,,,,,,,,,,,,1,001,male,24,500,400,2022_Jun_30_1226,Experiment,2021.1.4,359.9737938994562,
images\S6_M_S_03.png,images\S6_M_S_03_scrambled.png,6,sad,-30,male,1,,216,on,2,0.5,0.75,0.5,0.934,3,215,3,1,2,2,2,32,128,161,,,,,,0,11,11,11,,,,,,,,,,,,,,,,,,,,,,,,,,,,,,,,,,,,,,,,,,,,,,,,,,,,,,,,,403.9713102000005,404.4740305000014,404.4740305000014,405.2293030000001,405.2293030000001,405.7291245000015,405.7291245000015,406.6621562,406.6621562,None,num_6,1.052028699999937,406.6621562,None,sad,1,Sad,407.7284893600004,None,None,407.7284893600004,None,,,,,,,,,,,,,,,,,,,,,,,,,,,,,,,,,,,,,,,,,,,,,,,,,,,,,1,001,male,24,500,400,2022_Jun_30_1226,Experiment,2021.1.4,359.9737938994562,
images\S10_M_H_03.png,images\S10_M_H_03_scrambled.png,10,happy,30,male,6,,177,off,1,0.5,0.75,0.5,0.833,3,176,1,1,1,0,0,0,0,6,,,,,,0,12,12,12,,,,,,,,,,,,,,,,,,,,,,,,,,,,,,,,,,,,,,,,,,,,,,,,,,,,,,,,,407.83678060000057,408.33946190000097,408.33946190000097,409.09198920000017,409.09198920000017,409.59182750000036,409.59182750000036,410.4276832000014,410.4276832000014,None,num_4,0.638633700000355,410.4276832000014,None,happy,1,Happy,411.07746386000105,None,None,411.07746386000105,None,,,,,,,,,,,,,,,,,,,,,,,,,,,,,,,,,,,,,,,,,,,,,,,,,,,,,1,001,male,24,500,400,2022_Jun_30_1226,Experiment,2021.1.4,359.9737938994562,
images\S6_M_S_03.png,images\S6_M_S_03_scrambled.png,6,sad,-30,male,1,,516,off,1,0.5,0.75,0.5,0.784,3,515,2,1,1,0,0,0,0,1,,,,,,0,13,13,13,,,,,,,,,,,,,,,,,,,,,,,,,,,,,,,,,,,,,,,,,,,,,,,,,,,,,,,,,411.12465300000076,411.6245042999999,411.6245042999999,412.3770983000013,412.3770983000013,412.879703300001,412.879703300001,413.6655490000012,413.6655490000012,None,num_6,0.9608158999999432,413.6655490000012,None,sad,1,Sad,414.6430990400007,None,None,414.6430990400007,None,,,,,,,,,,,,,,,,,,,,,,,,,,,,,,,,,,,,,,,,,,,,,,,,,,,,,1,001,male,24,500,400,2022_Jun_30_1226,Experiment,2021.1.4,359.9737938994562,
images\S4_M_S_02.png,images\S4_M_S_02_scrambled.png,4,sad,-20,male,2,,143,off,1,0.5,0.75,0.5,0.898,3,142,3,1,1,0,0,0,0,2,,,,,,0,14,14,14,,,,,,,,,,,,,,,,,,,,,,,,,,,,,,,,,,,,,,,,,,,,,,,,,,,,,,,,,414.7096539000013,415.20950390000144,415.20950390000144,415.9592754000005,415.9592754000005,416.4619461000002,416.4619461000002,417.36442270000043,417.36442270000043,None,num_6,0.7975636999999551,417.36442270000043,None,sad,1,Sad,418.1725115600016,None,None,418.1725115600016,None,,,,,,,,,,,,,,,,,,,,,,,,,,,,,,,,,,,,,,,,,,,,,,,,,,,,,1,001,male,24,500,400,2022_Jun_30_1226,Experiment,2021.1.4,359.9737938994562,
images\S8_M_S_01.png,images\S8_M_S_01_scrambled.png,8,sad,-10,male,3,,106,on,2,0.5,0.75,0.5,0.857,3,105,1,1,1,2,2,32,128,163,,,,,,0,15,15,15,,,,,,,,,,,,,,,,,,,,,,,,,,,,,,,,,,,,,,,,,,,,,,,,,,,,,,,,,418.219678200001,418.7251025000005,418.7251025000005,419.4804251000005,419.4804251000005,419.9831060000015,419.9831060000015,420.8439763000006,420.8439763000006,None,num_4,0.9342242999991868,420.8439763000006,None,happy,1,Sad,421.7880415799998,None,None,421.7880415799998,None,,,,,,,,,,,,,,,,,,,,,,,,,,,,,,,,,,,,,,,,,,,,,,,,,,,,,1,001,male,24,500,400,2022_Jun_30_1226,Experiment,2021.1.4,359.9737938994562,
images\S8_M_S_03.png,images\S8_M_S_03_scrambled.png,8,sad,-30,male,1,,168,off,1,0.5,0.75,0.5,0.89,3,167,1,2,1,0,0,0,0,1,,,,,,0,16,16,16,,,,,,,,,,,,,,,,,,,,,,,,,,,,,,,,,,,,,,,,,,,,,,,,,,,,,,,,,421.87132850000125,422.37402100000145,422.37402100000145,423.129300300001,423.129300300001,423.63194680000015,423.63194680000015,424.5289193999997,424.5289193999997,None,num_4,0.8254419000004418,424.5289193999997,None,happy,1,Sad,425.3647654700009,None,None,425.3647654700009,None,,,,,,,,,,,,,,,,,,,,,,,,,,,,,,,,,,,,,,,,,,,,,,,,,,,,,1,001,male,24,500,400,2022_Jun_30_1226,Experiment,2021.1.4,359.9737938994562,
images\blank.jpg,images\blank.jpg,none,none,none,none,0,,642,on,2,0.5,0.75,0.5,0.919,0,641,1,1,1,3,3,48,192,240,,,,,,0,17,17,17,,,,,,,,,,,,,,,,,,,,,,,,,,,,,,,,,,,,,,,,,,,,,,,,,,,,,,,,,425.4593255,425.9645418,425.9645418,426.71986070000094,426.71986070000094,427.21966489999977,427.21966489999977,428.1388267000002,428.1388267000002,428.1388267000002,None,,428.1388267000002,None,miss,1,,431.1435026800016,None,None,431.1435026800016,None,,,,,,,,,,,,,,,,,,,,,,,,,,,,,,,,,,,,,,,,,,,,,,,,,,,,,1,001,male,24,500,400,2022_Jun_30_1226,Experiment,2021.1.4,359.9737938994562,
images\S7_F_H_03.png,images\S7_F_H_03_scrambled.png,7,happy,30,female,6,,279,off,1,0.5,0.75,0.5,0.945,3,278,1,1,1,0,0,0,0,6,,,,,,0,18,18,18,,,,,,,,,,,,,,,,,,,,,,,,,,,,,,,,,,,,,,,,,,,,,,,,,,,,,,,,,431.31584620000103,431.8182618999999,431.8182618999999,432.568048000001,432.568048000001,433.0706487000007,433.0706487000007,434.01760340000146,434.01760340000146,None,num_4,0.6726001000006363,434.01760340000146,431.31584620000103,happy,1,Happy,434.70068666000003,None,None,434.70068666000003,None,,,,,,,,,,,,,,,,,,,,,,,,,,,,,,,,,,,,,,,,,,,,,,,,,,,,,1,001,male,24,500,400,2022_Jun_30_1226,Experiment,2021.1.4,359.9737938994562,
images\S5_F_H_03.png,images\S5_F_H_03_scrambled.png,5,happy,30,female,6,,267,off,1,0.5,0.75,0.5,0.908,3,266,2,1,2,0,0,0,0,6,,,,,,0,19,19,19,,,,,,,,,,,,,,,,,,,,,,,,,,,,,,,,,,,,,,,,,,,,,,,,,,,,,,,,,434.808986,435.3088404000009,435.3088404000009,436.06422460000067,436.06422460000067,436.56683070000145,436.56683070000145,437.47765230000005,437.47765230000005,None,num_4,0.7884085000005143,437.47765230000005,None,happy,1,Happy,438.27738476000155,None,None,438.27738476000155,None,,,,,,,,,,,,,,,,,,,,,,,,,,,,,,,,,,,,,,,,,,,,,,,,,,,,,1,001,male,24,500,400,2022_Jun_30_1226,Experiment,2021.1.4,359.9737938994562,
images\S4_M_H_01.png,images\S4_M_H_01_scrambled.png,4,happy,10,male,4,,379,off,1,0.5,0.75,0.5,0.844,3,378,3,1,1,0,0,0,0,4,,,,,,0,20,20,20,,,,,,,,,,,,,,,,,,,,,,,,,,,,,,,,,,,,,,,,,,,,,,,,,,,,,,,,,438.39393240000027,438.8994337000004,438.8994337000004,439.6519745000005,439.6519745000005,440.1518152999997,440.1518152999997,440.99887130000025,440.99887130000025,None,num_6,1.1074067000008654,440.99887130000025,None,sad,1,Happy,442.115038480001,None,None,442.115038480001,None,,,,,,,,,,,,,,,,,,,,,,,,,,,,,,,,,,,,,,,,,,,,,,,,,,,,,1,001,male,24,500,400,2022_Jun_30_1226,Experiment,2021.1.4,359.9737938994562,
images\S9_F_H_01.png,images\S9_F_H_01_scrambled.png,9,happy,10,female,4,,589,on,2,0.5,0.75,0.5,0.833,3,588,1,1,2,2,2,32,128,164,,,,,,0,21,21,21,,,,,,,,,,,,,,,,,,,,,,,,,,,,,,,,,,,,,,,,,,,,,,,,,,,,,,,,,442.2233758000002,442.7288573000005,442.7288573000005,443.4841066000008,443.4841066000008,443.98392290000083,443.98392290000083,444.81981460000134,444.81981460000134,None,num_4,1.1103925000006711,444.81981460000134,None,happy,1,Happy,445.9417078600014,None,None,445.9417078600014,None,,,,,,,,,,,,,,,,,,,,,,,,,,,,,,,,,,,,,,,,,,,,,,,,,,,,,1,001,male,24,500,400,2022_Jun_30_1226,Experiment,2021.1.4,359.9737938994562,
images\S9_F_H_03.png,images\S9_F_H_03_scrambled.png,9,happy,30,female,6,,591,on,2,0.5,0.75,0.5,0.814,3,590,2,2,1,2,2,32,128,166,,,,,,0,22,22,22,,,,,,,,,,,,,,,,,,,,,,,,,,,,,,,,,,,,,,,,,,,,,,,,,,,,,,,,,446.0499948000015,446.55260400000043,446.55260400000043,447.30237920000036,447.30237920000036,447.80222590000085,447.80222590000085,448.6187219000003,448.6187219000003,None,num_4,0.15119749999939813,448.6187219000003,None,happy,1,Happy,448.7824360600003,None,None,448.7824360600003,None,,,,,,,,,,,,,,,,,,,,,,,,,,,,,,,,,,,,,,,,,,,,,,,,,,,,,1,001,male,24,500,400,2022_Jun_30_1226,Experiment,2021.1.4,359.9737938994562,
images\S10_M_H_03.png,images\S10_M_H_03_scrambled.png,10,happy,30,male,6,,477,on,2,0.5,0.75,0.5,0.773,3,476,3,1,2,2,2,32,128,166,,,,,,0,23,23,23,,,,,,,,,,,,,,,,,,,,,,,,,,,,,,,,,,,,,,,,,,,,,,,,,,,,,,,,,448.82966250000027,449.3350754000003,449.3350754000003,450.087633000001,450.087633000001,450.5930876000002,450.5930876000002,451.3705495000013,451.3705495000013,None,num_4,0.6318785000003118,451.3705495000013,None,happy,1,Happy,452.0148527600009,None,None,452.0148527600009,None,,,,,,,,,,,,,,,,,,,,,,,,,,,,,,,,,,,,,,,,,,,,,,,,,,,,,1,001,male,24,500,400,2022_Jun_30_1226,Experiment,2021.1.4,359.9737938994562,
images\S10_M_S_01.png,images\S10_M_S_01_scrambled.png,10,sad,-10,male,3,,238,on,2,0.5,0.75,0.5,0.811,3,237,4,2,1,2,2,32,128,163,,,,,,0,24,24,24,,,,,,,,,,,,,,,,,,,,,,,,,,,,,,,,,,,,,,,,,,,,,,,,,,,,,,,,,452.1203009000001,452.6230575999998,452.6230575999998,453.3727235000006,453.3727235000006,453.872573300001,453.872573300001,454.6889858000013,454.6889858000013,None,num_4,1.5451847999993333,454.6889858000013,None,happy,1,Sad,456.2440115800007,None,None,456.2440115800007,None,,,,,,,,,,,,,,,,,,,,,,,,,,,,,,,,,,,,,,,,,,,,,,,,,,,,,1,001,male,24,500,400,2022_Jun_30_1226,Experiment,2021.1.4,359.9737938994562,
images\S4_M_S_02.png,images\S4_M_S_02_scrambled.png,4,sad,-20,male,2,,263,off,1,0.5,0.75,0.5,0.775,3,262,1,1,1,0,0,0,0,2,,,,,,0,25,25,25,,,,,,,,,,,,,,,,,,,,,,,,,,,,,,,,,,,,,,,,,,,,,,,,,,,,,,,,,456.29122540000026,456.7939186000003,456.7939186000003,457.5492226000006,457.5492226000006,458.05184780000127,458.05184780000127,458.82936979999977,458.82936979999977,None,num_6,1.0048956999999064,458.82936979999977,None,sad,1,Sad,459.8457607600008,None,None,459.8457607600008,None,,,,,,,,,,,,,,,,,,,,,,,,,,,,,,,,,,,,,,,,,,,,,,,,,,,,,1,001,male,24,500,400,2022_Jun_30_1226,Experiment,2021.1.4,359.9737938994562,
images\S6_M_S_02.png,images\S6_M_S_02_scrambled.png,6,sad,-20,male,2,,575,on,2,0.5,0.75,0.5,0.907,3,574,1,1,2,2,2,32,128,162,,,,,,0,26,26,26,,,,,,,,,,,,,,,,,,,,,,,,,,,,,,,,,,,,,,,,,,,,,,,,,,,,,,,,,459.9512126000009,460.45390600000064,460.45390600000064,461.20922040000005,461.20922040000005,461.7118308000008,461.7118308000008,462.62263040000107,462.62263040000107,None,num_6,1.027668699998685,462.62263040000107,None,sad,1,Sad,463.66123165999994,None,None,463.66123165999994,None,,,,,,,,,,,,,,,,,,,,,,,,,,,,,,,,,,,,,,,,,,,,,,,,,,,,,1,001,male,24,500,400,2022_Jun_30_1226,Experiment,2021.1.4,359.9737938994562,
images\blank.jpg,images\blank.jpg,none,none,none,none,0,,649,on,2,0.5,0.75,0.5,0.814,0,648,2,1,1,3,3,48,192,240,,,,,,0,27,27,27,,,,,,,,,,,,,,,,,,,,,,,,,,,,,,,,,,,,,,,,,,,,,,,,,,,,,,,,,463.7446918000005,464.2499125000013,464.2499125000013,464.9996476000015,464.9996476000015,465.49948720000066,465.49948720000066,466.31597350000084,466.31597350000084,466.31597350000084,None,,466.31597350000084,None,miss,1,,469.3177723900011,None,None,469.3177723900011,None,,,,,,,,,,,,,,,,,,,,,,,,,,,,,,,,,,,,,,,,,,,,,,,,,,,,,1,001,male,24,500,400,2022_Jun_30_1226,Experiment,2021.1.4,359.9737938994562,
images\S4_M_H_02.png,images\S4_M_H_02_scrambled.png,4,happy,20,male,5,,200,on,2,0.5,0.75,0.5,0.765,3,199,3,1,1,2,2,32,128,165,,,,,,0,28,28,28,,,,,,,,,,,,,,,,,,,,,,,,,,,,,,,,,,,,,,,,,,,,,,,,,,,,,,,,,469.4901485999999,469.98977860000014,469.98977860000014,470.7423552,470.7423552,471.24215860000004,471.24215860000004,472.0085799999997,472.0085799999997,None,num_4,0.6730478999998013,472.0085799999997,469.4901485999999,happy,1,Happy,472.69721936000093,None,None,472.69721936000093,None,,,,,,,,,,,,,,,,,,,,,,,,,,,,,,,,,,,,,,,,,,,,,,,,,,,,,1,001,male,24,500,400,2022_Jun_30_1226,Experiment,2021.1.4,359.9737938994562,
images\S8_M_S_01.png,images\S8_M_S_01_scrambled.png,8,sad,-10,male,3,,346,on,2,0.5,0.75,0.5,0.773,3,345,4,1,1,2,2,32,128,163,,,,,,0,29,29,29,,,,,,,,,,,,,,,,,,,,,,,,,,,,,,,,,,,,,,,,,,,,,,,,,,,,,,,,,472.74448310000116,473.2442893000007,473.2442893000007,473.9969157000014,473.9969157000014,474.49674270000105,474.49674270000105,475.27427979999993,475.27427979999993,None,num_4,0.6798137000005227,475.27427979999993,None,happy,1,Sad,475.96017457999983,None,None,475.96017457999983,None,,,,,,,,,,,,,,,,,,,,,,,,,,,,,,,,,,,,,,,,,,,,,,,,,,,,,1,001,male,24,500,400,2022_Jun_30_1226,Experiment,2021.1.4,359.9737938994562,
images\S4_M_H_01.png,images\S4_M_H_01_scrambled.png,4,happy,10,male,4,,259,off,1,0.5,0.75,0.5,0.888,3,258,1,1,1,0,0,0,0,4,,,,,,0,30,30,30,,,,,,,,,,,,,,,,,,,,,,,,,,,,,,,,,,,,,,,,,,,,,,,,,,,,,,,,,476.02401100000134,476.52944560000105,476.52944560000105,477.2820135000002,477.2820135000002,477.7846061,477.7846061,478.6759751999998,478.6759751999998,None,num_6,0.7903796999999031,478.6759751999998,None,sad,1,Happy,479.4757284800005,None,None,479.4757284800005,None,,,,,,,,,,,,,,,,,,,,,,,,,,,,,,,,,,,,,,,,,,,,,,,,,,,,,1,001,male,24,500,400,2022_Jun_30_1226,Experiment,2021.1.4,359.9737938994562,
images\S2_M_S_03.png,images\S2_M_S_03_scrambled.png,2,sad,-30,male,1,,192,on,2,0.5,0.75,0.5,0.843,3,191,1,1,1,2,2,32,128,161,,,,,,0,31,31,31,,,,,,,,,,,,,,,,,,,,,,,,,,,,,,,,,,,,,,,,,,,,,,,,,,,,,,,,,479.5840173000015,480.08386729999984,480.08386729999984,480.8392436000013,480.8392436000013,481.3390177000001,481.3390177000001,482.1832420999999,482.1832420999999,None,num_6,0.9468885000005685,482.1832420999999,None,sad,1,Sad,483.14128746000057,None,None,483.14128746000057,None,,,,,,,,,,,,,,,,,,,,,,,,,,,,,,,,,,,,,,,,,,,,,,,,,,,,,1,001,male,24,500,400,2022_Jun_30_1226,Experiment,2021.1.4,359.9737938994562,
images\S7_F_S_01.png,images\S7_F_S_01_scrambled.png,7,sad,-10,female,3,,580,on,2,0.5,0.75,0.5,0.827,3,579,2,1,1,2,2,32,128,163,,,,,,0,32,32,32,,,,,,,,,,,,,,,,,,,,,,,,,,,,,,,,,,,,,,,,,,,,,,,,,,,,,,,,,483.249608600001,483.75497929999983,483.75497929999983,484.5075355000008,484.5075355000008,485.0073716000006,485.0073716000006,485.83765719999974,485.83765719999974,None,num_4,0.5160378000000492,485.83765719999974,None,happy,1,Sad,486.3624728800012,None,None,486.3624728800012,None,,,,,,,,,,,,,,,,,,,,,,,,,,,,,,,,,,,,,,,,,,,,,,,,,,,,,1,001,male,24,500,400,2022_Jun_30_1226,Experiment,2021.1.4,359.9737938994562,
images\S9_F_H_03.png,images\S9_F_H_03_scrambled.png,9,happy,30,female,6,,291,off,1,0.5,0.75,0.5,0.901,3,290,1,1,1,0,0,0,0,6,,,,,,0,33,33,33,,,,,,,,,,,,,,,,,,,,,,,,,,,,,,,,,,,,,,,,,,,,,,,,,,,,,,,,,486.4235785000001,486.9290240999999,486.9290240999999,487.68156530000124,487.68156530000124,488.18137019999995,488.18137019999995,489.08944840000004,489.08944840000004,None,num_4,0.928429600000527,489.08944840000004,None,happy,1,Happy,490.0307470600015,None,None,490.0307470600015,None,,,,,,,,,,,,,,,,,,,,,,,,,,,,,,,,,,,,,,,,,,,,,,,,,,,,,1,001,male,24,500,400,2022_Jun_30_1226,Experiment,2021.1.4,359.9737938994562,
images\S10_M_H_01.png,images\S10_M_H_01_scrambled.png,10,happy,10,male,4,,235,on,2,0.5,0.75,0.5,0.913,3,234,1,1,1,2,2,32,128,164,,,,,,0,34,34,34,,,,,,,,,,,,,,,,,,,,,,,,,,,,,,,,,,,,,,,,,,,,,,,,,,,,,,,,,490.1335336000011,490.63896980000027,490.63896980000027,491.39430040000116,491.39430040000116,491.8969222000014,491.8969222000014,492.81337730000087,492.81337730000087,None,num_4,1.292421000000104,492.81337730000087,None,happy,1,Happy,494.1211520600005,None,None,494.1211520600005,None,,,,,,,,,,,,,,,,,,,,,,,,,,,,,,,,,,,,,,,,,,,,,,,,,,,,,1,001,male,24,500,400,2022_Jun_30_1226,Experiment,2021.1.4,359.9737938994562,
images\S1_F_S_01.png,images\S1_F_S_01_scrambled.png,1,sad,-10,female,3,,4,off,1,0.5,0.75,0.5,0.853,3,3,1,1,1,0,0,0,0,3,,,,,,0,35,35,35,,,,,,,,,,,,,,,,,,,,,,,,,,,,,,,,,,,,,,,,,,,,,,,,,,,,,,,,,494.2294849000009,494.7293313000009,494.7293313000009,495.4819281,495.4819281,495.98453580000023,495.98453580000023,496.83982470000046,496.83982470000046,None,num_4,1.5540357000008953,496.83982470000046,None,happy,1,Sad,498.4004090800015,None,None,498.4004090800015,None,,,,,,,,,,,,,,,,,,,,,,,,,,,,,,,,,,,,,,,,,,,,,,,,,,,,,1,001,male,24,500,400,2022_Jun_30_1226,Experiment,2021.1.4,359.9737938994562,
images\S8_M_S_02.png,images\S8_M_S_02_scrambled.png,8,sad,-20,male,2,,107,on,2,0.5,0.75,0.5,0.934,3,106,1,1,1,2,2,32,128,162,,,,,,0,36,36,36,,,,,,,,,,,,,,,,,,,,,,,,,,,,,,,,,,,,,,,,,,,,,,,,,,,,,,,,,498.44486230000075,498.9446938000001,498.9446938000001,499.70003890000044,499.70003890000044,500.20277239999996,500.20277239999996,501.14406430000054,501.14406430000054,None,num_6,0.6659920000001875,501.14406430000054,None,sad,1,Sad,501.82436126000135,None,None,501.82436126000135,None,,,,,,,,,,,,,,,,,,,,,,,,,,,,,,,,,,,,,,,,,,,,,,,,,,,,,1,001,male,24,500,400,2022_Jun_30_1226,Experiment,2021.1.4,359.9737938994562,
images\S4_M_H_03.png,images\S4_M_H_03_scrambled.png,4,happy,30,male,6,,261,off,1,0.5,0.75,0.5,0.819,3,260,1,1,1,0,0,0,0,6,,,,,,0,37,37,37,,,,,,,,,,,,,,,,,,,,,,,,,,,,,,,,,,,,,,,,,,,,,,,,,,,,,,,,,501.87156270000014,502.3742249000006,502.3742249000006,503.1239622000012,503.1239622000012,503.6266248000011,503.6266248000011,504.4486287,504.4486287,None,num_6,0.8333873999999923,504.4486287,None,sad,1,Happy,505.28721658000063,None,None,505.28721658000063,None,,,,,,,,,,,,,,,,,,,,,,,,,,,,,,,,,,,,,,,,,,,,,,,,,,,,,1,001,male,24,500,400,2022_Jun_30_1226,Experiment,2021.1.4,359.9737938994562,
images\S4_M_S_03.png,images\S4_M_S_03_scrambled.png,4,sad,-30,male,1,,84,on,2,0.5,0.75,0.5,0.9,3,83,1,2,1,2,2,32,128,161,,,,,,0,38,38,38,,,,,,,,,,,,,,,,,,,,,,,,,,,,,,,,,,,,,,,,,,,,,,,,,,,,,,,,,505.39547480000147,505.89811440000085,505.89811440000085,506.6478962000001,506.6478962000001,507.14773440000135,507.14773440000135,508.05023230000006,508.05023230000006,None,num_6,0.6481402999997954,508.05023230000006,None,sad,1,Sad,508.7140468400015,None,None,508.7140468400015,None,,,,,,,,,,,,,,,,,,,,,,,,,,,,,,,,,,,,,,,,,,,,,,,,,,,,,1,001,male,24,500,400,2022_Jun_30_1226,Experiment,2021.1.4,359.9737938994562,
images\S6_M_H_01.png,images\S6_M_H_01_scrambled.png,6,happy,10,male,4,,451,on,2,0.5,0.75,0.5,0.823,3,450,2,1,1,2,2,32,128,164,,,,,,0,39,39,39,,,,,,,,,,,,,,,,,,,,,,,,,,,,,,,,,,,,,,,,,,,,,,,,,,,,,,,,,508.8194128000014,509.3248387000003,509.3248387000003,510.0773966000015,510.0773966000015,510.57724100000087,510.57724100000087,511.4047578999998,511.4047578999998,None,num_4,0.9331221000011283,511.4047578999998,None,happy,1,Happy,512.3516251600009,None,None,512.3516251600009,None,,,,,,,,,,,,,,,,,,,,,,,,,,,,,,,,,,,,,,,,,,,,,,,,,,,,,1,001,male,24,500,400,2022_Jun_30_1226,Experiment,2021.1.4,359.9737938994562,
images\S2_M_S_02.png,images\S2_M_S_02_scrambled.png,2,sad,-20,male,2,,191,on,2,0.5,0.75,0.5,0.831,3,190,3,1,1,2,2,32,128,162,,,,,,0,40,40,40,,,,,,,,,,,,,,,,,,,,,,,,,,,,,,,,,,,,,,,,,,,,,,,,,,,,,,,,,512.3988619000011,512.9043013999999,512.9043013999999,513.6540332000004,513.6540332000004,514.1567016000008,514.1567016000008,514.9897212000014,514.9897212000014,None,num_6,1.684164199999941,514.9897212000014,None,sad,1,Sad,516.68636716,None,None,516.68636716,None,,,,,,,,,,,,,,,,,,,,,,,,,,,,,,,,,,,,,,,,,,,,,,,,,,,,,1,001,male,24,500,400,2022_Jun_30_1226,Experiment,2021.1.4,359.9737938994562,
images\S8_M_H_01.png,images\S8_M_H_01_scrambled.png,8,happy,10,male,4,,43,off,1,0.5,0.75,0.5,0.837,3,42,1,1,1,0,0,0,0,4,,,,,,0,41,41,41,,,,,,,,,,,,,,,,,,,,,,,,,,,,,,,,,,,,,,,,,,,,,,,,,,,,,,,,,516.7947254999999,517.297371300001,517.297371300001,518.0499153000001,518.0499153000001,518.5497726000012,518.5497726000012,519.3939752000006,519.3939752000006,None,num_4,1.280077600000368,519.3939752000006,None,happy,1,Happy,520.6879606600011,None,None,520.6879606600011,None,,,,,,,,,,,,,,,,,,,,,,,,,,,,,,,,,,,,,,,,,,,,,,,,,,,,,1,001,male,24,500,400,2022_Jun_30_1226,Experiment,2021.1.4,359.9737938994562,
images\S3_F_S_03.png,images\S3_F_S_03_scrambled.png,3,sad,-30,female,1,,18,off,1,0.5,0.75,0.5,0.753,3,17,2,1,1,0,0,0,0,1,,,,,,0,42,42,42,,,,,,,,,,,,,,,,,,,,,,,,,,,,,,,,,,,,,,,,,,,,,,,,,,,,,,,,,520.7962616000004,521.2961500000001,521.2961500000001,522.0487265000011,522.0487265000011,522.5541052999997,522.5541052999997,523.3094108000005,523.3094108000005,None,num_6,1.2286078999986785,523.3094108000005,None,sad,1,Sad,524.5480218600002,None,None,524.5480218600002,None,,,,,,,,,,,,,,,,,,,,,,,,,,,,,,,,,,,,,,,,,,,,,,,,,,,,,1,001,male,24,500,400,2022_Jun_30_1226,Experiment,2021.1.4,359.9737938994562,
images\S1_F_S_02.png,images\S1_F_S_02_scrambled.png,1,sad,-20,female,2,,365,off,1,0.5,0.75,0.5,0.81,3,364,3,1,1,0,0,0,0,2,,,,,,0,43,43,43,,,,,,,,,,,,,,,,,,,,,,,,,,,,,,,,,,,,,,,,,,,,,,,,,,,,,,,,,524.5978673999998,525.0977358,525.0977358,525.8502707000007,525.8502707000007,526.3529075000006,526.3529075000006,527.1693271000004,527.1693271000004,None,num_6,0.9288775000004534,527.1693271000004,None,sad,1,Sad,528.1163200400009,None,None,528.1163200400009,None,,,,,,,,,,,,,,,,,,,,,,,,,,,,,,,,,,,,,,,,,,,,,,,,,,,,,1,001,male,24,500,400,2022_Jun_30_1226,Experiment,2021.1.4,359.9737938994562,
images\blank.jpg,images\blank.jpg,none,none,none,none,0,,641,on,2,0.5,0.75,0.5,0.903,0,640,1,1,1,3,3,48,192,240,,,,,,0,44,44,44,,,,,,,,,,,,,,,,,,,,,,,,,,,,,,,,,,,,,,,,,,,,,,,,,,,,,,,,,528.2025465000006,528.7021304000009,528.7021304000009,529.4547273000007,529.4547273000007,529.9545388000006,529.9545388000006,530.8570362999999,530.8570362999999,530.8570362999999,None,,530.8570362999999,None,miss,1,,533.8589051900002,None,None,533.8589051900002,None,,,,,,,,,,,,,,,,,,,,,,,,,,,,,,,,,,,,,,,,,,,,,,,,,,,,,1,001,male,24,500,400,2022_Jun_30_1226,Experiment,2021.1.4,359.9737938994562,
images\S8_M_H_02.png,images\S8_M_H_02_scrambled.png,8,happy,20,male,5,,464,on,2,0.5,0.75,0.5,0.805,3,463,2,1,1,2,2,32,128,165,,,,,,0,45,45,45,,,,,,,,,,,,,,,,,,,,,,,,,,,,,,,,,,,,,,,,,,,,,,,,,,,,,,,,,533.9728211000001,534.4754891000011,534.4754891000011,535.2307462999997,535.2307462999997,535.7361326999999,535.7361326999999,536.5442035000015,536.5442035000015,None,num_6,0.5213234000002558,536.5442035000015,533.9728211000001,sad,1,Happy,537.0745480800003,None,None,537.0745480800003,None,,,,,,,,,,,,,,,,,,,,,,,,,,,,,,,,,,,,,,,,,,,,,,,,,,,,,1,001,male,24,500,400,2022_Jun_30_1226,Experiment,2021.1.4,359.9737938994562,
images\S2_M_H_01.png,images\S2_M_H_01_scrambled.png,2,happy,10,male,4,,127,off,1,0.5,0.75,0.5,0.751,3,126,1,1,1,0,0,0,0,4,,,,,,0,46,46,46,,,,,,,,,,,,,,,,,,,,,,,,,,,,,,,,,,,,,,,,,,,,,,,,,,,,,,,,,537.1800829000003,537.6855731000014,537.6855731000014,538.4408737000012,538.4408737000012,538.9462430000003,538.9462430000003,539.7015585999998,539.7015585999998,None,num_6,1.9643684000002395,539.7015585999998,None,sad,1,Happy,541.6731222800015,None,None,541.6731222800015,None,,,,,,,,,,,,,,,,,,,,,,,,,,,,,,,,,,,,,,,,,,,,,,,,,,,,,1,001,male,24,500,400,2022_Jun_30_1226,Experiment,2021.1.4,359.9737938994562,
images\S9_F_S_03.png,images\S9_F_S_03_scrambled.png,9,sad,-30,female,1,,594,on,2,0.5,0.75,0.5,0.814,3,593,1,1,1,2,2,32,128,161,,,,,,0,47,47,47,,,,,,,,,,,,,,,,,,,,,,,,,,,,,,,,,,,,,,,,,,,,,,,,,,,,,,,,,541.7203401000006,542.2258106000008,542.2258106000008,542.9783458000002,542.9783458000002,543.4809483000008,543.4809483000008,544.2973411000003,544.2973411000003,None,num_6,1.0884733000002598,544.2973411000003,None,sad,1,Sad,545.3997659600005,None,None,545.3997659600005,None,,,,,,,,,,,,,,,,,,,,,,,,,,,,,,,,,,,,,,,,,,,,,,,,,,,,,1,001,male,24,500,400,2022_Jun_30_1226,Experiment,2021.1.4,359.9737938994562,
images\S7_F_S_03.png,images\S7_F_S_03_scrambled.png,7,sad,-30,female,1,,102,on,2,0.5,0.75,0.5,0.813,3,101,2,1,2,2,2,32,128,161,,,,,,0,48,48,48,,,,,,,,,,,,,,,,,,,,,,,,,,,,,,,,,,,,,,,,,,,,,,,,,,,,,,,,,545.4802897999998,545.9857435000013,545.9857435000013,546.7410481000006,546.7410481000006,547.2408614000014,547.2408614000014,548.0572959000001,548.0572959000001,None,num_6,0.8405334999988554,548.0572959000001,None,sad,1,Sad,548.9098178600012,None,None,548.9098178600012,None,,,,,,,,,,,,,,,,,,,,,,,,,,,,,,,,,,,,,,,,,,,,,,,,,,,,,1,001,male,24,500,400,2022_Jun_30_1226,Experiment,2021.1.4,359.9737938994562,
images\S10_M_S_02.png,images\S10_M_S_02_scrambled.png,10,sad,-20,male,2,,539,off,1,0.5,0.75,0.5,0.776,3,538,1,1,1,0,0,0,0,2,,,,,,0,49,49,49,,,,,,,,,,,,,,,,,,,,,,,,,,,,,,,,,,,,,,,,,,,,,,,,,,,,,,,,,549.015305500001,549.5207599000005,549.5207599000005,550.2704915000013,550.2704915000013,550.7759286,550.7759286,551.5561867000015,551.5561867000015,None,None,,551.5561867000015,None,miss,1,Sad,554.5609504800002,None,None,554.5609504800002,None,,,,,,,,,,,,,,,,,,,,,,,,,,,,,,,,,,,,,,,,,,,,,,,,,,,,,1,001,male,24,500,400,2022_Jun_30_1226,Experiment,2021.1.4,359.9737938994562,
images\S1_F_S_02.png,images\S1_F_S_02_scrambled.png,1,sad,-20,female,2,,425,on,2,0.5,0.75,0.5,0.752,3,424,1,1,2,2,2,32,128,162,,,,,,0,50,50,50,,,,,,,,,,,,,,,,,,,,,,,,,,,,,,,,,,,,,,,,,,,,,,,,,,,,,,,,,554.6191426000005,555.1217797000008,555.1217797000008,555.8743372999998,555.8743372999998,556.3741795000005,556.3741795000005,557.1322551000012,557.1322551000012,554.6191426000005,num_4,0.49382189999960246,557.1322551000012,554.6191426000005,happy,1,Sad,557.6321094800012,None,None,557.6321094800012,None,,,,,,,,,,,,,,,,,,,,,,,,,,,,,,,,,,,,,,,,,,,,,,,,,,,,,1,001,male,24,500,400,2022_Jun_30_1226,Experiment,2021.1.4,359.9737938994562,
images\S9_F_H_02.png,images\S9_F_H_02_scrambled.png,9,happy,20,female,5,,230,on,2,0.5,0.75,0.5,0.828,3,229,2,1,1,2,2,32,128,165,,,,,,0,51,51,51,,,,,,,,,,,,,,,,,,,,,,,,,,,,,,,,,,,,,,,,,,,,,,,,,,,,,,,,,557.7153892000006,558.2208435000011,558.2208435000011,558.9733785000008,558.9733785000008,559.4732210000002,559.4732210000002,560.3062915999999,560.3062915999999,None,num_4,0.36772150000069814,560.3062915999999,None,happy,1,Happy,560.6866782600006,None,None,560.6866782600006,None,,,,,,,,,,,,,,,,,,,,,,,,,,,,,,,,,,,,,,,,,,,,,,,,,,,,,1,001,male,24,500,400,2022_Jun_30_1226,Experiment,2021.1.4,359.9737938994562,
images\S9_F_S_01.png,images\S9_F_S_01_scrambled.png,9,sad,-10,female,3,,292,off,1,0.5,0.75,0.5,0.821,3,291,1,2,1,0,0,0,0,3,,,,,,0,52,52,52,,,,,,,,,,,,,,,,,,,,,,,,,,,,,,,,,,,,,,,,,,,,,,,,,,,,,,,,,560.7977714999997,561.3005246000012,561.3005246000012,562.055777900001,562.055777900001,562.5583912000002,562.5583912000002,563.3859166000002,563.3859166000002,None,num_4,0.9035736000005272,563.3859166000002,None,happy,1,Sad,564.2994604800012,None,None,564.2994604800012,None,,,,,,,,,,,,,,,,,,,,,,,,,,,,,,,,,,,,,,,,,,,,,,,,,,,,,1,001,male,24,500,400,2022_Jun_30_1226,Experiment,2021.1.4,359.9737938994562,
images\S3_F_H_03.png,images\S3_F_H_03_scrambled.png,3,happy,30,female,6,,15,off,1,0.5,0.75,0.5,0.829,3,14,2,1,1,0,0,0,0,6,,,,,,0,53,53,53,,,,,,,,,,,,,,,,,,,,,,,,,,,,,,,,,,,,,,,,,,,,,,,,,,,,,,,,,564.3466709000004,564.8520903999997,564.8520903999997,565.6046465,565.6046465,566.1044603999999,566.1044603999999,566.9375651000009,566.9375651000009,None,num_4,0.5842028000006394,566.9375651000009,None,happy,1,Happy,567.5428983300014,None,None,567.5428983300014,None,,,,,,,,,,,,,,,,,,,,,,,,,,,,,,,,,,,,,,,,,,,,,,,,,,,,,1,001,male,24,500,400,2022_Jun_30_1226,Experiment,2021.1.4,359.9737938994562,
images\S4_M_H_02.png,images\S4_M_H_02_scrambled.png,4,happy,20,male,5,,560,on,2,0.5,0.75,0.5,0.787,3,559,1,1,1,2,2,32,128,165,,,,,,0,54,54,54,,,,,,,,,,,,,,,,,,,,,,,,,,,,,,,,,,,,,,,,,,,,,,,,,,,,,,,,,567.5984513000003,568.1011245000009,568.1011245000009,568.8508679000006,568.8508679000006,569.3535090000005,569.3535090000005,570.1449946000012,570.1449946000012,None,num_4,0.9289250999991054,570.1449946000012,None,happy,1,Happy,571.0889940600006,None,None,571.0889940600006,None,,,,,,,,,,,,,,,,,,,,,,,,,,,,,,,,,,,,,,,,,,,,,,,,,,,,,1,001,male,24,500,400,2022_Jun_30_1226,Experiment,2021.1.4,359.9737938994562,
images\S9_F_H_02.png,images\S9_F_H_02_scrambled.png,9,happy,20,female,5,,590,on,2,0.5,0.75,0.5,0.923,3,589,2,1,2,2,2,32,128,165,,,,,,0,55,55,55,,,,,,,,,,,,,,,,,,,,,,,,,,,,,,,,,,,,,,,,,,,,,,,,,,,,,,,,,571.1362346000005,571.6416633999997,571.6416633999997,572.3914015000009,572.3914015000009,572.8912922,572.8912922,573.8215472000011,573.8215472000011,None,num_4,0.6287824000010005,573.8215472000011,None,happy,1,Happy,574.4659045400007,None,None,574.4659045400007,None,,,,,,,,,,,,,,,,,,,,,,,,,,,,,,,,,,,,,,,,,,,,,,,,,,,,,1,001,male,24,500,400,2022_Jun_30_1226,Experiment,2021.1.4,359.9737938994562,
images\S4_M_S_02.png,images\S4_M_S_02_scrambled.png,4,sad,-20,male,2,,383,off,1,0.5,0.75,0.5,0.783,3,382,1,1,1,0,0,0,0,2,,,,,,0,56,56,56,,,,,,,,,,,,,,,,,,,,,,,,,,,,,,,,,,,,,,,,,,,,,,,,,,,,,,,,,574.5185677999998,575.0211907000012,575.0211907000012,575.7737276000007,575.7737276000007,576.2735380000013,576.2735380000013,577.0594258000001,577.0594258000001,None,num_6,0.84657739999966,577.0594258000001,None,sad,1,Sad,577.9230836400005,None,None,577.9230836400005,None,,,,,,,,,,,,,,,,,,,,,,,,,,,,,,,,,,,,,,,,,,,,,,,,,,,,,1,001,male,24,500,400,2022_Jun_30_1226,Experiment,2021.1.4,359.9737938994562,
images\S10_M_H_02.png,images\S10_M_H_02_scrambled.png,10,happy,20,male,5,,116,on,2,0.5,0.75,0.5,0.778,3,115,1,1,1,2,2,32,128,165,,,,,,0,57,57,57,,,,,,,,,,,,,,,,,,,,,,,,,,,,,,,,,,,,,,,,,,,,,,,,,,,,,,,,,578.025765800001,578.531208800001,578.531208800001,579.2837716000013,579.2837716000013,579.7836106000013,579.7836106000013,580.5639139000014,580.5639139000014,None,num_4,0.750022700000045,580.5639139000014,None,happy,1,Happy,581.3248311600015,None,None,581.3248311600015,None,,,,,,,,,,,,,,,,,,,,,,,,,,,,,,,,,,,,,,,,,,,,,,,,,,,,,1,001,male,24,500,400,2022_Jun_30_1226,Experiment,2021.1.4,359.9737938994562,
images\S9_F_H_01.png,images\S9_F_H_01_scrambled.png,9,happy,10,female,4,,109,on,2,0.5,0.75,0.5,0.916,3,108,2,1,1,2,2,32,128,164,,,,,,0,58,58,58,,,,,,,,,,,,,,,,,,,,,,,,,,,,,,,,,,,,,,,,,,,,,,,,,,,,,,,,,581.371956500001,581.8746112999997,581.8746112999997,582.6243723000007,582.6243723000007,583.1242124,583.1242124,584.0461630000009,584.0461630000009,None,num_4,0.6196222999988095,584.0461630000009,None,happy,1,Happy,584.6904101200008,None,None,584.6904101200008,None,,,,,,,,,,,,,,,,,,,,,,,,,,,,,,,,,,,,,,,,,,,,,,,,,,,,,1,001,male,24,500,400,2022_Jun_30_1226,Experiment,2021.1.4,359.9737938994562,
images\S9_F_H_03.png,images\S9_F_H_03_scrambled.png,9,happy,30,female,6,,531,off,1,0.5,0.75,0.5,0.868,3,530,1,2,1,0,0,0,0,6,,,,,,0,59,59,59,,,,,,,,,,,,,,,,,,,,,,,,,,,,,,,,,,,,,,,,,,,,,,,,,,,,,,,,,584.7431366000001,585.2429632000003,585.2429632000003,585.9955322000005,585.9955322000005,586.5009699000002,586.5009699000002,587.3757092000014,587.3757092000014,None,num_4,0.7300623999999516,587.3757092000014,None,happy,1,Happy,588.1254750500011,None,None,588.1254750500011,None,,,,,,,,,,,,,,,,,,,,,,,,,,,,,,,,,,,,,,,,,,,,,,,,,,,,,1,001,male,24,500,400,2022_Jun_30_1226,Experiment,2021.1.4,359.9737938994562,
images\S1_F_S_02.png,images\S1_F_S_02_scrambled.png,1,sad,-20,female,2,,65,on,2,0.5,0.75,0.5,0.922,3,64,1,1,1,2,2,32,128,162,,,,,,0,60,60,60,,,,,,,,,,,,,,,,,,,,,,,,,,,,,,,,,,,,,,,,,,,,,,,,,,,,,,,,,588.1781879999999,588.6808359000006,588.6808359000006,589.4305640000002,589.4305640000002,589.9360327000013,589.9360327000013,590.8607520000005,590.8607520000005,None,num_4,0.5567042999991827,590.8607520000005,None,happy,1,Sad,591.4271760800009,None,None,591.4271760800009,None,,,,,,,,,,,,,,,,,,,,,,,,,,,,,,,,,,,,,,,,,,,,,,,,,,,,,1,001,male,24,500,400,2022_Jun_30_1226,Experiment,2021.1.4,359.9737938994562,
images\S3_F_H_03.png,images\S3_F_H_03_scrambled.png,3,happy,30,female,6,,135,off,1,0.5,0.75,0.5,0.764,3,134,1,1,1,0,0,0,0,6,,,,,,0,61,61,61,,,,,,,,,,,,,,,,,,,,,,,,,,,,,,,,,,,,,,,,,,,,,,,,,,,,,,,,,591.4910465000012,591.9964856000006,591.9964856000006,592.7517968000011,592.7517968000011,593.2516088000011,593.2516088000011,594.02088,594.02088,None,num_4,0.8687098000009428,594.02088,None,happy,1,Happy,594.9039043600002,None,None,594.9039043600002,None,,,,,,,,,,,,,,,,,,,,,,,,,,,,,,,,,,,,,,,,,,,,,,,,,,,,,1,001,male,24,500,400,2022_Jun_30_1226,Experiment,2021.1.4,359.9737938994562,
images\S5_F_S_02.png,images\S5_F_S_02_scrambled.png,5,sad,-20,female,2,,329,on,2,0.5,0.75,0.5,0.894,3,328,1,1,1,2,2,32,128,162,,,,,,0,62,62,62,,,,,,,,,,,,,,,,,,,,,,,,,,,,,,,,,,,,,,,,,,,,,,,,,,,,,,,,,595.0121911000006,595.5149336000013,595.5149336000013,596.2645951000013,596.2645951000013,596.7701169000011,596.7701169000011,597.6669431000009,597.6669431000009,None,num_4,0.6786353000006784,597.6669431000009,None,happy,1,Sad,598.3528034800008,None,None,598.3528034800008,None,,,,,,,,,,,,,,,,,,,,,,,,,,,,,,,,,,,,,,,,,,,,,,,,,,,,,1,001,male,24,500,400,2022_Jun_30_1226,Experiment,2021.1.4,359.9737938994562,
images\S5_F_S_03.png,images\S5_F_S_03_scrambled.png,5,sad,-30,female,1,,210,on,2,0.5,0.75,0.5,0.784,3,209,2,2,1,2,2,32,128,161,,,,,,0,63,63,63,,,,,,,,,,,,,,,,,,,,,,,,,,,,,,,,,,,,,,,,,,,,,,,,,,,,,,,,,598.4000199000002,598.8998854000001,598.8998854000001,599.6496769000005,599.6496769000005,600.149511900001,600.149511900001,600.9354929000001,600.9354929000001,None,num_4,0.4181767999998556,600.9354929000001,None,happy,1,Sad,601.3629576800001,None,None,601.3629576800001,None,,,,,,,,,,,,,,,,,,,,,,,,,,,,,,,,,,,,,,,,,,,,,,,,,,,,,1,001,male,24,500,400,2022_Jun_30_1226,Experiment,2021.1.4,359.9737938994562,
images\S3_F_S_01.png,images\S3_F_S_01_scrambled.png,3,sad,-10,female,3,,496,off,1,0.5,0.75,0.5,0.844,3,495,1,1,1,0,0,0,0,3,,,,,,0,64,64,64,,,,,,,,,,,,,,,,,,,,,,,,,,,,,,,,,,,,,,,,,,,,,,,,,,,,,,,,,601.4712919000012,601.9711484,601.9711484,602.7237041000008,602.7237041000008,603.2235694999999,603.2235694999999,604.0705512000004,604.0705512000004,None,num_6,0.5075073999996675,604.0705512000004,None,sad,1,Sad,604.5925467600006,None,None,604.5925467600006,None,,,,,,,,,,,,,,,,,,,,,,,,,,,,,,,,,,,,,,,,,,,,,,,,,,,,,1,001,male,24,500,400,2022_Jun_30_1226,Experiment,2021.1.4,359.9737938994562,
images\S8_M_H_01.png,images\S8_M_H_01_scrambled.png,8,happy,10,male,4,,103,on,2,0.5,0.75,0.5,0.78,3,102,1,1,1,2,2,32,128,164,,,,,,0,65,65,65,,,,,,,,,,,,,,,,,,,,,,,,,,,,,,,,,,,,,,,,,,,,,,,,,,,,,,,,,604.6397562000002,605.1396354999997,605.1396354999997,605.8893981000001,605.8893981000001,606.3892419000003,606.3892419000003,607.1723200000015,607.1723200000015,None,num_4,1.3335262999989936,607.1723200000015,None,happy,1,Happy,608.5302898200017,None,None,608.5302898200017,None,,,,,,,,,,,,,,,,,,,,,,,,,,,,,,,,,,,,,,,,,,,,,,,,,,,,,1,001,male,24,500,400,2022_Jun_30_1226,Experiment,2021.1.4,359.9737938994562,
images\S6_M_H_03.png,images\S6_M_H_03_scrambled.png,6,happy,30,male,6,,333,on,2,0.5,0.75,0.5,0.937,3,332,2,1,1,2,2,32,128,166,,,,,,0,66,66,66,,,,,,,,,,,,,,,,,,,,,,,,,,,,,,,,,,,,,,,,,,,,,,,,,,,,,,,,,608.6385174000006,609.1411838000004,609.1411838000004,609.8937400000013,609.8937400000013,610.3935724000003,610.3935724000003,611.3350408000006,611.3350408000006,None,num_4,0.9306105999985448,611.3350408000006,None,happy,1,Happy,612.2790326600003,None,None,612.2790326600003,None,,,,,,,,,,,,,,,,,,,,,,,,,,,,,,,,,,,,,,,,,,,,,,,,,,,,,1,001,male,24,500,400,2022_Jun_30_1226,Experiment,2021.1.4,359.9737938994562,
images\S4_M_S_02.png,images\S4_M_S_02_scrambled.png,4,sad,-20,male,2,,323,on,2,0.5,0.75,0.5,0.911,3,322,3,1,1,2,2,32,128,162,,,,,,0,67,67,67,,,,,,,,,,,,,,,,,,,,,,,,,,,,,,,,,,,,,,,,,,,,,,,,,,,,,,,,,612.3262611000009,612.8316910000012,612.8316910000012,613.5842528000012,613.5842528000012,614.0840798000008,614.0840798000008,615.0005090000013,615.0005090000013,None,num_4,1.0893812000012986,615.0005090000013,None,happy,1,Sad,616.0973103800013,None,None,616.0973103800013,None,,,,,,,,,,,,,,,,,,,,,,,,,,,,,,,,,,,,,,,,,,,,,,,,,,,,,1,001,male,24,500,400,2022_Jun_30_1226,Experiment,2021.1.4,359.9737938994562,
images\S5_F_S_01.png,images\S5_F_S_01_scrambled.png,5,sad,-10,female,3,,568,on,2,0.5,0.75,0.5,0.801,3,567,4,1,1,2,2,32,128,163,,,,,,0,68,68,68,,,,,,,,,,,,,,,,,,,,,,,,,,,,,,,,,,,,,,,,,,,,,,,,,,,,,,,,,616.2056207000005,616.7110565000003,616.7110565000003,617.4636045000007,617.4636045000007,617.9634510000014,617.9634510000014,618.7687556000001,618.7687556000001,None,num_4,0.9364450000011857,618.7687556000001,None,happy,1,Sad,619.7100969800001,None,None,619.7100969800001,None,,,,,,,,,,,,,,,,,,,,,,,,,,,,,,,,,,,,,,,,,,,,,,,,,,,,,1,001,male,24,500,400,2022_Jun_30_1226,Experiment,2021.1.4,359.9737938994562,
images\S1_F_H_01.png,images\S1_F_H_01_scrambled.png,1,happy,10,female,4,,301,on,2,0.5,0.75,0.5,0.925,3,300,5,1,1,2,2,32,128,164,,,,,,0,69,69,69,,,,,,,,,,,,,,,,,,,,,,,,,,,,,,,,,,,,,,,,,,,,,,,,,,,,,,,,,619.7572973000006,620.2599427000005,620.2599427000005,621.0152562000003,621.0152562000003,621.5207009000005,621.5207009000005,622.4509502000001,622.4509502000001,None,num_6,0.44662400000015623,622.4509502000001,None,sad,1,Happy,622.9035718800012,None,None,622.9035718800012,None,,,,,,,,,,,,,,,,,,,,,,,,,,,,,,,,,,,,,,,,,,,,,,,,,,,,,1,001,male,24,500,400,2022_Jun_30_1226,Experiment,2021.1.4,359.9737938994562,
images\S9_F_H_02.png,images\S9_F_H_02_scrambled.png,9,happy,20,female,5,,410,off,1,0.5,0.75,0.5,0.753,3,409,1,1,1,0,0,0,0,5,,,,,,0,70,70,70,,,,,,,,,,,,,,,,,,,,,,,,,,,,,,,,,,,,,,,,,,,,,,,,,,,,,,,,,622.9507568000008,623.4561966000001,623.4561966000001,624.2087391000005,624.2087391000005,624.7085459999998,624.7085459999998,625.4610917000009,625.4610917000009,None,num_4,0.8287032000007457,625.4610917000009,None,happy,1,Happy,626.2998470600011,None,None,626.2998470600011,None,,,,,,,,,,,,,,,,,,,,,,,,,,,,,,,,,,,,,,,,,,,,,,,,,,,,,1,001,male,24,500,400,2022_Jun_30_1226,Experiment,2021.1.4,359.9737938994562,
images\S2_M_S_02.png,images\S2_M_S_02_scrambled.png,2,sad,-20,male,2,,71,on,2,0.5,0.75,0.5,0.757,3,70,1,1,1,2,2,32,128,162,,,,,,0,71,71,71,,,,,,,,,,,,,,,,,,,,,,,,,,,,,,,,,,,,,,,,,,,,,,,,,,,,,,,,,626.3469247000012,626.8467611000015,626.8467611000015,627.5993445000004,627.5993445000004,628.0991872000013,628.0991872000013,628.8601748000001,628.8601748000001,None,num_6,0.5976616999996622,628.8601748000001,None,sad,1,Sad,629.4793902200009,None,None,629.4793902200009,None,,,,,,,,,,,,,,,,,,,,,,,,,,,,,,,,,,,,,,,,,,,,,,,,,,,,,1,001,male,24,500,400,2022_Jun_30_1226,Experiment,2021.1.4,359.9737938994562,
images\S7_F_S_02.png,images\S7_F_S_02_scrambled.png,7,sad,-20,female,2,,221,on,2,0.5,0.75,0.5,0.787,3,220,2,1,2,2,2,32,128,162,,,,,,0,72,72,72,,,,,,,,,,,,,,,,,,,,,,,,,,,,,,,,,,,,,,,,,,,,,,,,,,,,,,,,,629.5875859000007,630.0903618000011,630.0903618000011,630.8455873000003,630.8455873000003,631.3482174000001,631.3482174000001,632.1423702000011,632.1423702000011,None,num_4,0.587675599999784,632.1423702000011,None,happy,1,Sad,632.7366991800016,None,None,632.7366991800016,None,,,,,,,,,,,,,,,,,,,,,,,,,,,,,,,,,,,,,,,,,,,,,,,,,,,,,1,001,male,24,500,400,2022_Jun_30_1226,Experiment,2021.1.4,359.9737938994562,
images\S10_M_H_03.png,images\S10_M_H_03_scrambled.png,10,happy,30,male,6,,417,off,1,0.5,0.75,0.5,0.88,3,416,1,1,1,0,0,0,0,6,,,,,,0,73,73,73,,,,,,,,,,,,,,,,,,,,,,,,,,,,,,,,,,,,,,,,,,,,,,,,,,,,,,,,,632.7921513000001,633.2948902000007,633.2948902000007,634.0445794000007,634.0445794000007,634.5500732,634.5500732,635.4358179999999,635.4358179999999,None,num_4,1.053569100000459,635.4358179999999,None,happy,1,Happy,636.4993802600017,None,None,636.4993802600017,None,,,,,,,,,,,,,,,,,,,,,,,,,,,,,,,,,,,,,,,,,,,,,,,,,,,,,1,001,male,24,500,400,2022_Jun_30_1226,Experiment,2021.1.4,359.9737938994562,
images\S4_M_H_03.png,images\S4_M_H_03_scrambled.png,4,happy,30,male,6,,21,off,1,0.5,0.75,0.5,0.832,3,20,2,1,2,0,0,0,0,6,,,,,,0,74,74,74,,,,,,,,,,,,,,,,,,,,,,,,,,,,,,,,,,,,,,,,,,,,,,,,,,,,,,,,,636.5465453000015,637.046389000001,637.046389000001,637.7989797000009,637.7989797000009,638.3043652000015,638.3043652000015,639.1402791,639.1402791,None,num_4,0.5569073999995453,639.1402791,None,happy,1,Happy,639.7122378600012,None,None,639.7122378600012,None,,,,,,,,,,,,,,,,,,,,,,,,,,,,,,,,,,,,,,,,,,,,,,,,,,,,,1,001,male,24,500,400,2022_Jun_30_1226,Experiment,2021.1.4,359.9737938994562,
images\S9_F_H_02.png,images\S9_F_H_02_scrambled.png,9,happy,20,female,5,,350,on,2,0.5,0.75,0.5,0.948,3,349,1,1,1,2,2,32,128,165,,,,,,0,75,75,75,,,,,,,,,,,,,,,,,,,,,,,,,,,,,,,,,,,,,,,,,,,,,,,,,,,,,,,,,639.7649357999999,640.2704513000008,640.2704513000008,641.0229983999998,641.0229983999998,641.5255703000003,641.5255703000003,642.4753419000008,642.4753419000008,None,num_4,0.9658455000007962,642.4753419000008,None,happy,1,Happy,643.4555347600013,None,None,643.4555347600013,None,,,,,,,,,,,,,,,,,,,,,,,,,,,,,,,,,,,,,,,,,,,,,,,,,,,,,1,001,male,24,500,400,2022_Jun_30_1226,Experiment,2021.1.4,359.9737938994562,
images\S9_F_S_02.png,images\S9_F_S_02_scrambled.png,9,sad,-20,female,2,,233,on,2,0.5,0.75,0.5,0.853,3,232,2,2,1,2,2,32,128,162,,,,,,0,76,76,76,,,,,,,,,,,,,,,,,,,,,,,,,,,,,,,,,,,,,,,,,,,,,,,,,,,,,,,,,643.5610529000005,644.0664686,644.0664686,644.8217897000013,644.8217897000013,645.3216491000003,645.3216491000003,646.1769248,646.1769248,None,num_6,0.8566028000004735,646.1769248,None,sad,1,Sad,647.04882736,None,None,647.04882736,None,,,,,,,,,,,,,,,,,,,,,,,,,,,,,,,,,,,,,,,,,,,,,,,,,,,,,1,001,male,24,500,400,2022_Jun_30_1226,Experiment,2021.1.4,359.9737938994562,
images\S2_M_S_02.png,images\S2_M_S_02_scrambled.png,2,sad,-20,male,2,,131,off,1,0.5,0.75,0.5,0.932,3,130,1,1,2,0,0,0,0,2,,,,,,0,77,77,77,,,,,,,,,,,,,,,,,,,,,,,,,,,,,,,,,,,,,,,,,,,,,,,,,,,,,,,,,647.0960747999998,647.6014925,647.6014925,648.3512385000013,648.3512385000013,648.8511115000001,648.8511115000001,649.7869191000009,649.7869191000009,None,num_4,0.1344480999996449,649.7869191000009,None,happy,1,Sad,649.9284836800005,None,None,649.9284836800005,None,,,,,,,,,,,,,,,,,,,,,,,,,,,,,,,,,,,,,,,,,,,,,,,,,,,,,1,001,male,24,500,400,2022_Jun_30_1226,Experiment,2021.1.4,359.9737938994562,
images\S1_F_S_03.png,images\S1_F_S_03_scrambled.png,1,sad,-30,female,1,,306,on,2,0.5,0.75,0.5,0.785,3,305,1,1,1,2,2,32,128,161,,,,,,0,78,78,78,,,,,,,,,,,,,,,,,,,,,,,,,,,,,,,,,,,,,,,,,,,,,,,,,,,,,,,,,649.9951634999998,650.500614300001,650.500614300001,651.2503666000011,651.2503666000011,651.7501905000008,651.7501905000008,652.5388636000007,652.5388636000007,None,num_4,1.118690000001152,652.5388636000007,None,happy,1,Sad,653.6635091800006,None,None,653.6635091800006,None,,,,,,,,,,,,,,,,,,,,,,,,,,,,,,,,,,,,,,,,,,,,,,,,,,,,,1,001,male,24,500,400,2022_Jun_30_1226,Experiment,2021.1.4,359.9737938994562,
images\S2_M_S_01.png,images\S2_M_S_01_scrambled.png,2,sad,-10,male,3,,70,on,2,0.5,0.75,0.5,0.758,3,69,2,1,1,2,2,32,128,163,,,,,,0,79,79,79,,,,,,,,,,,,,,,,,,,,,,,,,,,,,,,,,,,,,,,,,,,,,,,,,,,,,,,,,653.7495577999998,654.2494272000004,654.2494272000004,655.0019751,655.0019751,655.5046891000002,655.5046891000002,656.2654496000014,656.2654496000014,None,num_6,0.8322270000007848,656.2654496000014,None,sad,1,Sad,657.1124014600006,None,None,657.1124014600006,None,,,,,,,,,,,,,,,,,,,,,,,,,,,,,,,,,,,,,,,,,,,,,,,,,,,,,1,001,male,24,500,400,2022_Jun_30_1226,Experiment,2021.1.4,359.9737938994562,
images\S6_M_H_01.png,images\S6_M_H_01_scrambled.png,6,happy,10,male,4,,331,on,2,0.5,0.75,0.5,0.791,3,330,3,1,1,2,2,32,128,164,,,,,,0,80,80,80,,,,,,,,,,,,,,,,,,,,,,,,,,,,,,,,,,,,,,,,,,,,,,,,,,,,,,,,,657.1596103000011,657.6594545000007,657.6594545000007,658.4092539000012,658.4092539000012,658.9091010000011,658.9091010000011,659.7004825000004,659.7004825000004,None,num_4,0.8292286999985663,659.7004825000004,None,happy,1,Happy,660.544611160001,None,None,660.544611160001,None,,,,,,,,,,,,,,,,,,,,,,,,,,,,,,,,,,,,,,,,,,,,,,,,,,,,,1,001,male,24,500,400,2022_Jun_30_1226,Experiment,2021.1.4,359.9737938994562,
images\S5_F_S_03.png,images\S5_F_S_03_scrambled.png,5,sad,-30,female,1,,270,off,1,0.5,0.75,0.5,0.796,3,269,1,1,1,0,0,0,0,1,,,,,,0,81,81,81,,,,,,,,,,,,,,,,,,,,,,,,,,,,,,,,,,,,,,,,,,,,,,,,,,,,,,,,,660.5918827000005,661.0946455000012,661.0946455000012,661.8470662,661.8470662,662.3498123000008,662.3498123000008,663.1495554000012,663.1495554000012,None,num_6,1.2596942000000126,663.1495554000012,None,sad,1,Sad,664.42402826,None,None,664.42402826,None,,,,,,,,,,,,,,,,,,,,,,,,,,,,,,,,,,,,,,,,,,,,,,,,,,,,,1,001,male,24,500,400,2022_Jun_30_1226,Experiment,2021.1.4,359.9737938994562,
images\S6_M_H_01.png,images\S6_M_H_01_scrambled.png,6,happy,10,male,4,,391,off,1,0.5,0.75,0.5,0.88,3,390,2,1,1,0,0,0,0,4,,,,,,0,82,82,82,,,,,,,,,,,,,,,,,,,,,,,,,,,,,,,,,,,,,,,,,,,,,,,,,,,,,,,,,664.4712433000004,664.9766637000012,664.9766637000012,665.7292080000007,665.7292080000007,666.2347178,666.2347178,667.1204730999998,667.1204730999998,None,num_6,0.8651644999990822,667.1204730999998,None,sad,1,Happy,667.9951075800006,None,None,667.9951075800006,None,,,,,,,,,,,,,,,,,,,,,,,,,,,,,,,,,,,,,,,,,,,,,,,,,,,,,1,001,male,24,500,400,2022_Jun_30_1226,Experiment,2021.1.4,359.9737938994562,
images\S8_M_S_02.png,images\S8_M_S_02_scrambled.png,8,sad,-20,male,2,,287,off,1,0.5,0.75,0.5,0.854,3,286,3,1,1,0,0,0,0,2,,,,,,0,83,83,83,,,,,,,,,,,,,,,,,,,,,,,,,,,,,,,,,,,,,,,,,,,,,,,,,,,,,,,,,668.0423592000006,668.5451161000001,668.5451161000001,669.3003587000003,669.3003587000003,669.8029769000004,669.8029769000004,670.6582303000014,670.6582303000014,None,num_6,0.5591263999995135,670.6582303000014,None,sad,1,Sad,671.2302439600004,None,None,671.2302439600004,None,,,,,,,,,,,,,,,,,,,,,,,,,,,,,,,,,,,,,,,,,,,,,,,,,,,,,1,001,male,24,500,400,2022_Jun_30_1226,Experiment,2021.1.4,359.9737938994562,
images\S1_F_H_03.png,images\S1_F_H_03_scrambled.png,1,happy,30,female,6,,423,on,2,0.5,0.75,0.5,0.882,3,422,1,1,1,2,2,32,128,166,,,,,,0,84,84,84,,,,,,,,,,,,,,,,,,,,,,,,,,,,,,,,,,,,,,,,,,,,,,,,,,,,,,,,,671.2774663,671.7802069000008,671.7802069000008,672.5354700000007,672.5354700000007,673.038070300001,673.038070300001,673.9210922000002,673.9210922000002,None,num_4,0.4888790999993944,673.9210922000002,None,happy,1,Happy,674.4349205200007,None,None,674.4349205200007,None,,,,,,,,,,,,,,,,,,,,,,,,,,,,,,,,,,,,,,,,,,,,,,,,,,,,,1,001,male,24,500,400,2022_Jun_30_1226,Experiment,2021.1.4,359.9737938994562,
images\S5_F_H_01.png,images\S5_F_H_01_scrambled.png,5,happy,10,female,4,,385,off,1,0.5,0.75,0.5,0.851,3,384,1,1,1,0,0,0,0,4,,,,,,0,85,85,85,,,,,,,,,,,,,,,,,,,,,,,,,,,,,,,,,,,,,,,,,,,,,,,,,,,,,,,,,674.5403440000009,675.0457860000006,675.0457860000006,675.7983290000011,675.7983290000011,676.2981892000007,676.2981892000007,677.1562376000002,677.1562376000002,None,num_4,0.6851545999998052,677.1562376000002,None,happy,1,Happy,677.8532147600014,None,None,677.8532147600014,None,,,,,,,,,,,,,,,,,,,,,,,,,,,,,,,,,,,,,,,,,,,,,,,,,,,,,1,001,male,24,500,400,2022_Jun_30_1226,Experiment,2021.1.4,359.9737938994562,
images\S4_M_S_01.png,images\S4_M_S_01_scrambled.png,4,sad,-10,male,3,,142,off,1,0.5,0.75,0.5,0.885,3,141,2,1,1,0,0,0,0,3,,,,,,0,86,86,86,,,,,,,,,,,,,,,,,,,,,,,,,,,,,,,,,,,,,,,,,,,,,,,,,,,,,,,,,677.900415600001,678.4058494000001,678.4058494000001,679.1611754000005,679.1611754000005,679.6638952000012,679.6638952000012,680.5552414000013,680.5552414000013,None,num_6,0.41456339999967895,680.5552414000013,None,sad,1,Sad,680.9800975600007,None,None,680.9800975600007,None,,,,,,,,,,,,,,,,,,,,,,,,,,,,,,,,,,,,,,,,,,,,,,,,,,,,,1,001,male,24,500,400,2022_Jun_30_1226,Experiment,2021.1.4,359.9737938994562,
images\S10_M_H_01.png,images\S10_M_H_01_scrambled.png,10,happy,10,male,4,,55,off,1,0.5,0.75,0.5,0.833,3,54,3,1,1,0,0,0,0,4,,,,,,0,87,87,87,,,,,,,,,,,,,,,,,,,,,,,,,,,,,,,,,,,,,,,,,,,,,,,,,,,,,,,,,681.0272299000007,681.5299816000006,681.5299816000006,682.2796438000005,682.2796438000005,682.7794849000002,682.7794849000002,683.6153680000007,683.6153680000007,None,num_4,0.4982591999996657,683.6153680000007,None,happy,1,Happy,684.1262628600012,None,None,684.1262628600012,None,,,,,,,,,,,,,,,,,,,,,,,,,,,,,,,,,,,,,,,,,,,,,,,,,,,,,1,001,male,24,500,400,2022_Jun_30_1226,Experiment,2021.1.4,359.9737938994562,
images\S1_F_H_03.png,images\S1_F_H_03_scrambled.png,1,happy,30,female,6,,123,off,1,0.5,0.75,0.5,0.78,3,122,4,1,1,0,0,0,0,6,,,,,,0,88,88,88,,,,,,,,,,,,,,,,,,,,,,,,,,,,,,,,,,,,,,,,,,,,,,,,,,,,,,,,,684.1706955999998,684.6761328000011,684.6761328000011,685.4286824999999,685.4286824999999,685.9284689000015,685.9284689000015,686.7116060000008,686.7116060000008,None,num_4,0.5537027000009402,686.7116060000008,None,happy,1,Happy,687.2780617600016,None,None,687.2780617600016,None,,,,,,,,,,,,,,,,,,,,,,,,,,,,,,,,,,,,,,,,,,,,,,,,,,,,,1,001,male,24,500,400,2022_Jun_30_1226,Experiment,2021.1.4,359.9737938994562,
images\S3_F_S_01.png,images\S3_F_S_01_scrambled.png,3,sad,-10,female,3,,196,on,2,0.5,0.75,0.5,0.876,3,195,1,1,1,2,2,32,128,163,,,,,,0,89,89,89,,,,,,,,,,,,,,,,,,,,,,,,,,,,,,,,,,,,,,,,,,,,,,,,,,,,,,,,,687.3252876000006,687.8307076000001,687.8307076000001,688.5832332000009,688.5832332000009,689.0830682000014,689.0830682000014,689.9661598000002,689.9661598000002,None,num_6,0.46720769999956246,689.9661598000002,None,sad,1,Sad,690.4521335300003,None,None,690.4521335300003,None,,,,,,,,,,,,,,,,,,,,,,,,,,,,,,,,,,,,,,,,,,,,,,,,,,,,,1,001,male,24,500,400,2022_Jun_30_1226,Experiment,2021.1.4,359.9737938994562,
images\S9_F_H_02.png,images\S9_F_H_02_scrambled.png,9,happy,20,female,5,,470,on,2,0.5,0.75,0.5,0.942,3,469,2,1,1,2,2,32,128,165,,,,,,0,90,90,90,,,,,,,,,,,,,,,,,,,,,,,,,,,,,,,,,,,,,,,,,,,,,,,,,,,,,,,,,690.5076213000011,691.0102833000001,691.0102833000001,691.7656215000006,691.7656215000006,692.2682365000001,692.2682365000001,693.215220600001,693.215220600001,None,num_4,2.9220421000009082,693.215220600001,None,happy,1,Happy,696.1475874600015,None,None,696.1475874600015,None,,,,,,,,,,,,,,,,,,,,,,,,,,,,,,,,,,,,,,,,,,,,,,,,,,,,,1,001,male,24,500,400,2022_Jun_30_1226,Experiment,2021.1.4,359.9737938994562,
images\S10_M_S_02.png,images\S10_M_S_02_scrambled.png,10,sad,-20,male,2,,59,off,1,0.5,0.75,0.5,0.81,3,58,1,1,1,0,0,0,0,2,,,,,,0,91,91,91,,,,,,,,,,,,,,,,,,,,,,,,,,,,,,,,,,,,,,,,,,,,,,,,,,,,,,,,,696.1947517999997,696.7002269000004,696.7002269000004,697.4555311000004,697.4555311000004,697.9581405999998,697.9581405999998,698.7717494000008,698.7717494000008,None,num_4,0.8377641000006406,698.7717494000008,None,happy,1,Sad,699.6186578800014,None,None,699.6186578800014,None,,,,,,,,,,,,,,,,,,,,,,,,,,,,,,,,,,,,,,,,,,,,,,,,,,,,,1,001,male,24,500,400,2022_Jun_30_1226,Experiment,2021.1.4,359.9737938994562,
images\blank.jpg,images\blank.jpg,none,none,none,none,0,,602,on,2,0.5,0.75,0.5,0.843,0,601,1,1,1,3,3,48,192,240,,,,,,0,92,92,92,,,,,,,,,,,,,,,,,,,,,,,,,,,,,,,,,,,,,,,,,,,,,,,,,,,,,,,,,699.7021685,700.2018429,700.2018429,700.9571855000013,700.9571855000013,701.4599288000009,701.4599288000009,702.3040202000011,702.3040202000011,702.3040202000011,None,,702.3040202000011,None,miss,1,,705.3058255899999,None,None,705.3058255899999,None,,,,,,,,,,,,,,,,,,,,,,,,,,,,,,,,,,,,,,,,,,,,,,,,,,,,,1,001,male,24,500,400,2022_Jun_30_1226,Experiment,2021.1.4,359.9737938994562,
images\S7_F_H_03.png,images\S7_F_H_03_scrambled.png,7,happy,30,female,6,,219,on,2,0.5,0.75,0.5,0.931,3,218,2,1,1,2,2,32,128,166,,,,,,0,93,93,93,,,,,,,,,,,,,,,,,,,,,,,,,,,,,,,,,,,,,,,,,,,,,,,,,,,,,,,,,705.4197565000013,705.9223074000001,705.9223074000001,706.6749754000011,706.6749754000011,707.1802788000005,707.1802788000005,708.1161036000012,708.1161036000012,None,num_4,0.4451625999990938,708.1161036000012,705.4197565000013,happy,1,Happy,708.5825371300004,None,None,708.5825371300004,None,,,,,,,,,,,,,,,,,,,,,,,,,,,,,,,,,,,,,,,,,,,,,,,,,,,,,1,001,male,24,500,400,2022_Jun_30_1226,Experiment,2021.1.4,359.9737938994562,
images\S10_M_H_01.png,images\S10_M_H_01_scrambled.png,10,happy,10,male,4,,295,off,1,0.5,0.75,0.5,0.856,3,294,1,1,1,0,0,0,0,4,,,,,,0,94,94,94,,,,,,,,,,,,,,,,,,,,,,,,,,,,,,,,,,,,,,,,,,,,,,,,,,,,,,,,,708.638124000001,709.1407816999999,709.1407816999999,709.8904892999999,709.8904892999999,710.3959541000004,710.3959541000004,711.2540088000005,711.2540088000005,None,num_4,0.7792491000000155,711.2540088000005,None,happy,1,Happy,712.0481803600011,None,None,712.0481803600011,None,,,,,,,,,,,,,,,,,,,,,,,,,,,,,,,,,,,,,,,,,,,,,,,,,,,,,1,001,male,24,500,400,2022_Jun_30_1226,Experiment,2021.1.4,359.9737938994562,
images\S6_M_S_03.png,images\S6_M_S_03_scrambled.png,6,sad,-30,male,1,,396,off,1,0.5,0.75,0.5,0.866,3,395,2,1,1,0,0,0,0,1,,,,,,0,95,95,95,,,,,,,,,,,,,,,,,,,,,,,,,,,,,,,,,,,,,,,,,,,,,,,,,,,,,,,,,712.0953826000004,712.6008232000004,712.6008232000004,713.3533702000004,713.3533702000004,713.8532179000013,713.8532179000013,714.7251805000014,714.7251805000014,None,num_6,0.8440695999997843,714.7251805000014,None,sad,1,Sad,715.5804239600017,None,None,715.5804239600017,None,,,,,,,,,,,,,,,,,,,,,,,,,,,,,,,,,,,,,,,,,,,,,,,,,,,,,1,001,male,24,500,400,2022_Jun_30_1226,Experiment,2021.1.4,359.9737938994562,
images\S2_M_H_02.png,images\S2_M_H_02_scrambled.png,2,happy,20,male,5,,368,off,1,0.5,0.75,0.5,0.775,3,367,3,1,1,0,0,0,0,5,,,,,,0,96,96,96,,,,,,,,,,,,,,,,,,,,,,,,,,,,,,,,,,,,,,,,,,,,,,,,,,,,,,,,,715.6859457999999,716.1913648999998,716.1913648999998,716.9439225000006,716.9439225000006,717.4494042000006,717.4494042000006,718.2268392000005,718.2268392000005,None,num_4,0.5986964000003354,718.2268392000005,None,happy,1,Happy,718.8488219300004,None,None,718.8488219300004,None,,,,,,,,,,,,,,,,,,,,,,,,,,,,,,,,,,,,,,,,,,,,,,,,,,,,,1,001,male,24,500,400,2022_Jun_30_1226,Experiment,2021.1.4,359.9737938994562,
images\S3_F_S_02.png,images\S3_F_S_02_scrambled.png,3,sad,-20,female,2,,17,off,1,0.5,0.75,0.5,0.917,3,16,4,1,1,0,0,0,0,2,,,,,,0,97,97,97,,,,,,,,,,,,,,,,,,,,,,,,,,,,,,,,,,,,,,,,,,,,,,,,,,,,,,,,,718.9377279,719.4403961000007,719.4403961000007,720.1929341000014,720.1929341000014,720.695542200001,720.695542200001,721.6148086000012,721.6148086000012,None,num_6,0.7224442000006093,721.6148086000012,None,sad,1,Sad,722.3478045600001,None,None,722.3478045600001,None,,,,,,,,,,,,,,,,,,,,,,,,,,,,,,,,,,,,,,,,,,,,,,,,,,,,,1,001,male,24,500,400,2022_Jun_30_1226,Experiment,2021.1.4,359.9737938994562,
images\blank.jpg,images\blank.jpg,none,none,none,none,0,,629,on,2,0.5,0.75,0.5,0.906,0,628,1,1,1,3,3,48,192,240,,,,,,0,98,98,98,,,,,,,,,,,,,,,,,,,,,,,,,,,,,,,,,,,,,,,,,,,,,,,,,,,,,,,,,722.4285509000001,722.930959700001,722.930959700001,723.6835062999999,723.6835062999999,724.1833594,724.1833594,725.0885873000007,725.0885873000007,725.0885873000007,None,,725.0885873000007,None,miss,1,,728.0904458900008,None,None,728.0904458900008,None,,,,,,,,,,,,,,,,,,,,,,,,,,,,,,,,,,,,,,,,,,,,,,,,,,,,,1,001,male,24,500,400,2022_Jun_30_1226,Experiment,2021.1.4,359.9737938994562,
images\blank.jpg,images\blank.jpg,none,none,none,none,0,,638,on,2,0.5,0.75,0.5,0.824,0,637,2,2,2,3,3,48,192,240,,,,,,0,99,99,99,,,,,,,,,,,,,,,,,,,,,,,,,,,,,,,,,,,,,,,,,,,,,,,,,,,,,,,,,728.1126646000012,728.6153309000001,728.6153309000001,729.3706583000003,729.3706583000003,729.873270600001,729.873270600001,730.6979693000012,730.6979693000012,730.6979693000012,None,,730.6979693000012,728.1126646000012,miss,1,,733.6998288899998,None,None,733.6998288899998,None,,,,,,,,,,,,,,,,,,,,,,,,,,,,,,,,,,,,,,,,,,,,,,,,,,,,,1,001,male,24,500,400,2022_Jun_30_1226,Experiment,2021.1.4,359.9737938994562,
images\blank.jpg,images\blank.jpg,none,none,none,none,0,,636,on,2,0.5,0.75,0.5,0.804,0,635,3,3,3,3,3,48,192,240,,,,,,0,100,100,100,,,,,,,,,,,,,,,,,,,,,,,,,,,,,,,,,,,,,,,,,,,,,,,,,,,,,,,,,733.7247982999997,734.2302604000015,734.2302604000015,734.9827865000007,734.9827865000007,735.4853971000011,735.4853971000011,736.290676300001,736.290676300001,736.290676300001,None,,736.290676300001,733.7247982999997,miss,1,,739.2954224800003,None,None,739.2954224800003,None,,,,,,,,,,,,,,,,,,,,,,,,,,,,,,,,,,,,,,,,,,,,,,,,,,,,,1,001,male,24,500,400,2022_Jun_30_1226,Experiment,2021.1.4,359.9737938994562,
images\S9_F_S_03.png,images\S9_F_S_03_scrambled.png,9,sad,-30,female,1,,414,off,1,0.5,0.75,0.5,0.81,3,413,1,1,1,0,0,0,0,1,,,,,,0,101,101,101,,,,,,,,,,,,,,,,,,,,,,,,,,,,,,,,,,,,,,,,,,,,,,,,,,,,,,,,,739.4175726000012,739.9201717000014,739.9201717000014,740.6698749000007,740.6698749000007,741.1697417000014,741.1697417000014,741.9833928000007,741.9833928000007,None,num_4,0.7619611000009172,741.9833928000007,739.4175726000012,happy,1,Sad,742.7525386800014,None,None,742.7525386800014,None,,,,,,,,,,,,,,,,,,,,,,,,,,,,,,,,,,,,,,,,,,,,,,,,,,,,,1,001,male,24,500,400,2022_Jun_30_1226,Experiment,2021.1.4,359.9737938994562,
images\S8_M_S_01.png,images\S8_M_S_01_scrambled.png,8,sad,-10,male,3,,586,on,2,0.5,0.75,0.5,0.788,3,585,1,1,1,2,2,32,128,163,,,,,,0,102,102,102,,,,,,,,,,,,,,,,,,,,,,,,,,,,,,,,,,,,,,,,,,,,,,,,,,,,,,,,,742.7997852000008,743.3052189000009,743.3052189000009,744.0577333000001,744.0577333000001,744.5603725000001,744.5603725000001,745.3517740000007,745.3517740000007,None,num_4,0.393576700000267,745.3517740000007,None,happy,1,Sad,745.75438508,None,None,745.75438508,None,,,,,,,,,,,,,,,,,,,,,,,,,,,,,,,,,,,,,,,,,,,,,,,,,,,,,1,001,male,24,500,400,2022_Jun_30_1226,Experiment,2021.1.4,359.9737938994562,
images\S5_F_S_02.png,images\S5_F_S_02_scrambled.png,5,sad,-20,female,2,,29,off,1,0.5,0.75,0.5,0.904,3,28,1,1,1,0,0,0,0,2,,,,,,0,103,103,103,,,,,,,,,,,,,,,,,,,,,,,,,,,,,,,,,,,,,,,,,,,,,,,,,,,,,,,,,745.8016174000004,746.3042731000005,746.3042731000005,747.0568058999997,747.0568058999997,747.5595532000007,747.5595532000007,748.4702932,748.4702932,None,num_4,0.5312116999994032,748.4702932,None,happy,1,Sad,749.0062821800009,None,None,749.0062821800009,None,,,,,,,,,,,,,,,,,,,,,,,,,,,,,,,,,,,,,,,,,,,,,,,,,,,,,1,001,male,24,500,400,2022_Jun_30_1226,Experiment,2021.1.4,359.9737938994562,
images\S4_M_H_02.png,images\S4_M_H_02_scrambled.png,4,happy,20,male,5,,440,on,2,0.5,0.75,0.5,0.851,3,439,1,1,1,2,2,32,128,165,,,,,,0,104,104,104,,,,,,,,,,,,,,,,,,,,,,,,,,,,,,,,,,,,,,,,,,,,,,,,,,,,,,,,,749.0533943999999,749.5560294000006,749.5560294000006,750.3086008999999,750.3086008999999,750.8084481000005,750.8084481000005,751.6637319000001,751.6637319000001,None,num_6,0.4018424000005325,751.6637319000001,None,sad,1,Happy,752.071983980001,None,None,752.071983980001,None,,,,,,,,,,,,,,,,,,,,,,,,,,,,,,,,,,,,,,,,,,,,,,,,,,,,,1,001,male,24,500,400,2022_Jun_30_1226,Experiment,2021.1.4,359.9737938994562,
images\S1_F_H_01.png,images\S1_F_H_01_scrambled.png,1,happy,10,female,4,,61,on,2,0.5,0.75,0.5,0.779,3,60,2,1,1,2,2,32,128,164,,,,,,0,105,105,105,,,,,,,,,,,,,,,,,,,,,,,,,,,,,,,,,,,,,,,,,,,,,,,,,,,,,,,,,752.1219856000007,752.6245598000005,752.6245598000005,753.3770718000014,753.3770718000014,753.8798005999997,753.8798005999997,754.6655814000005,754.6655814000005,None,num_6,0.8956961000003503,754.6655814000005,None,sad,1,Happy,755.5708111800002,None,None,755.5708111800002,None,,,,,,,,,,,,,,,,,,,,,,,,,,,,,,,,,,,,,,,,,,,,,,,,,,,,,1,001,male,24,500,400,2022_Jun_30_1226,Experiment,2021.1.4,359.9737938994562,
images\S3_F_H_03.png,images\S3_F_H_03_scrambled.png,3,happy,30,female,6,,495,off,1,0.5,0.75,0.5,0.792,3,494,1,1,1,0,0,0,0,6,,,,,,0,106,106,106,,,,,,,,,,,,,,,,,,,,,,,,,,,,,,,,,,,,,,,,,,,,,,,,,,,,,,,,,755.620891300001,756.1262274000001,756.1262274000001,756.878772600001,756.878772600001,757.3813993000003,757.3813993000003,758.1756056000013,758.1756056000013,None,num_4,0.5297105999998166,758.1756056000013,None,happy,1,Happy,758.7198160600016,None,None,758.7198160600016,None,,,,,,,,,,,,,,,,,,,,,,,,,,,,,,,,,,,,,,,,,,,,,,,,,,,,,1,001,male,24,500,400,2022_Jun_30_1226,Experiment,2021.1.4,359.9737938994562,
images\S10_M_H_02.png,images\S10_M_H_02_scrambled.png,10,happy,20,male,5,,236,on,2,0.5,0.75,0.5,0.858,3,235,1,1,1,2,2,32,128,165,,,,,,0,107,107,107,,,,,,,,,,,,,,,,,,,,,,,,,,,,,,,,,,,,,,,,,,,,,,,,,,,,,,,,,758.7642764000011,759.2641164000015,759.2641164000015,760.0138867000005,760.0138867000005,760.5165276000007,760.5165276000007,761.380166500001,761.380166500001,None,num_6,1.5969908999995823,761.380166500001,None,sad,1,Happy,762.9823765799999,None,None,762.9823765799999,None,,,,,,,,,,,,,,,,,,,,,,,,,,,,,,,,,,,,,,,,,,,,,,,,,,,,,1,001,male,24,500,400,2022_Jun_30_1226,Experiment,2021.1.4,359.9737938994562,
images\S7_F_H_03.png,images\S7_F_H_03_scrambled.png,7,happy,30,female,6,,579,on,2,0.5,0.75,0.5,0.814,3,578,2,1,1,2,2,32,128,166,,,,,,0,108,108,108,,,,,,,,,,,,,,,,,,,,,,,,,,,,,,,,,,,,,,,,,,,,,,,,,,,,,,,,,763.0296214999998,763.5350577999998,763.5350577999998,764.2904029000001,764.2904029000001,764.7930194,764.7930194,765.6095012000005,765.6095012000005,None,num_4,1.5435378000001947,765.6095012000005,None,happy,1,Happy,767.1644657600006,None,None,767.1644657600006,None,,,,,,,,,,,,,,,,,,,,,,,,,,,,,,,,,,,,,,,,,,,,,,,,,,,,,1,001,male,24,500,400,2022_Jun_30_1226,Experiment,2021.1.4,359.9737938994562,
images\S10_M_H_02.png,images\S10_M_H_02_scrambled.png,10,happy,20,male,5,,596,on,2,0.5,0.75,0.5,0.94,3,595,3,1,1,2,2,32,128,165,,,,,,0,109,109,109,,,,,,,,,,,,,,,,,,,,,,,,,,,,,,,,,,,,,,,,,,,,,,,,,,,,,,,,,767.2116575,767.7170806000013,767.7170806000013,768.4723926000006,768.4723926000006,768.9750691999998,768.9750691999998,769.9193002000011,769.9193002000011,None,None,,769.9193002000011,None,miss,1,Happy,772.9266387800005,None,None,772.9266387800005,None,,,,,,,,,,,,,,,,,,,,,,,,,,,,,,,,,,,,,,,,,,,,,,,,,,,,,1,001,male,24,500,400,2022_Jun_30_1226,Experiment,2021.1.4,359.9737938994562,
images\S7_F_S_03.png,images\S7_F_S_03_scrambled.png,7,sad,-30,female,1,,162,off,1,0.5,0.75,0.5,0.813,3,161,1,1,1,0,0,0,0,1,,,,,,0,110,110,110,,,,,,,,,,,,,,,,,,,,,,,,,,,,,,,,,,,,,,,,,,,,,,,,,,,,,,,,,772.9904164,773.4902773000013,773.4902773000013,774.2428606000012,774.2428606000012,774.7454865,774.7454865,775.5618680000007,775.5618680000007,772.9904164,num_6,0.33521440000004077,775.5618680000007,772.9904164,sad,1,Sad,775.9117183600007,None,None,775.9117183600007,None,,,,,,,,,,,,,,,,,,,,,,,,,,,,,,,,,,,,,,,,,,,,,,,,,,,,,1,001,male,24,500,400,2022_Jun_30_1226,Experiment,2021.1.4,359.9737938994562,
images\S8_M_H_01.png,images\S8_M_H_01_scrambled.png,8,happy,10,male,4,,163,off,1,0.5,0.75,0.5,0.94,3,162,2,1,1,0,0,0,0,4,,,,,,0,111,111,111,,,,,,,,,,,,,,,,,,,,,,,,,,,,,,,,,,,,,,,,,,,,,,,,,,,,,,,,,775.9728374000006,776.4755171000015,776.4755171000015,777.2308220000014,777.2308220000014,777.7306468000006,777.7306468000006,778.6775628000014,778.6775628000014,None,num_6,0.7960065999996004,778.6775628000014,None,sad,1,Happy,779.4828252800005,None,None,779.4828252800005,None,,,,,,,,,,,,,,,,,,,,,,,,,,,,,,,,,,,,,,,,,,,,,,,,,,,,,1,001,male,24,500,400,2022_Jun_30_1226,Experiment,2021.1.4,359.9737938994562,
images\S9_F_S_01.png,images\S9_F_S_01_scrambled.png,9,sad,-10,female,3,,472,on,2,0.5,0.75,0.5,0.949,3,471,1,1,1,2,2,32,128,163,,,,,,0,112,112,112,,,,,,,,,,,,,,,,,,,,,,,,,,,,,,,,,,,,,,,,,,,,,,,,,,,,,,,,,779.5272913999997,780.0300208000008,780.0300208000008,780.7852981000015,780.7852981000015,781.2906754000014,781.2906754000014,782.2431569,782.2431569,None,num_4,1.9498755000004167,782.2431569,None,happy,1,Sad,784.1980862799999,None,None,784.1980862799999,None,,,,,,,,,,,,,,,,,,,,,,,,,,,,,,,,,,,,,,,,,,,,,,,,,,,,,1,001,male,24,500,400,2022_Jun_30_1226,Experiment,2021.1.4,359.9737938994562,
images\S8_M_S_02.png,images\S8_M_S_02_scrambled.png,8,sad,-20,male,2,,47,off,1,0.5,0.75,0.5,0.884,3,46,1,1,1,0,0,0,0,2,,,,,,0,113,113,113,,,,,,,,,,,,,,,,,,,,,,,,,,,,,,,,,,,,,,,,,,,,,,,,,,,,,,,,,784.2452740999997,784.7507242000011,784.7507242000011,785.5004523000007,785.5004523000007,786.0031134000001,786.0031134000001,786.8889383000005,786.8889383000005,None,num_6,1.2086110999989614,786.8889383000005,None,sad,1,Sad,788.119147740001,None,None,788.119147740001,None,,,,,,,,,,,,,,,,,,,,,,,,,,,,,,,,,,,,,,,,,,,,,,,,,,,,,1,001,male,24,500,400,2022_Jun_30_1226,Experiment,2021.1.4,359.9737938994562,
images\S6_M_H_03.png,images\S6_M_H_03_scrambled.png,6,happy,30,male,6,,513,off,1,0.5,0.75,0.5,0.845,3,512,2,1,1,0,0,0,0,6,,,,,,0,114,114,114,,,,,,,,,,,,,,,,,,,,,,,,,,,,,,,,,,,,,,,,,,,,,,,,,,,,,,,,,788.1690670000007,788.6689096000009,788.6689096000009,789.4186973000014,789.4186973000014,789.9213248000015,789.9213248000015,790.7683001000005,790.7683001000005,None,num_6,0.41672509999989416,790.7683001000005,None,sad,1,Happy,791.1931028800016,None,None,791.1931028800016,None,,,,,,,,,,,,,,,,,,,,,,,,,,,,,,,,,,,,,,,,,,,,,,,,,,,,,1,001,male,24,500,400,2022_Jun_30_1226,Experiment,2021.1.4,359.9737938994562,
images\S10_M_H_03.png,images\S10_M_H_03_scrambled.png,10,happy,30,male,6,,357,on,2,0.5,0.75,0.5,0.835,3,356,1,1,2,2,2,32,128,166,,,,,,0,115,115,115,,,,,,,,,,,,,,,,,,,,,,,,,,,,,,,,,,,,,,,,,,,,,,,,,,,,,,,,,791.2542199,791.7540602000008,791.7540602000008,792.5038522000013,792.5038522000013,793.0064751999998,793.0064751999998,793.8451259000012,793.8451259000012,None,num_4,1.1002769999995508,793.8451259000012,None,happy,1,Happy,794.9586070600013,None,None,794.9586070600013,None,,,,,,,,,,,,,,,,,,,,,,,,,,,,,,,,,,,,,,,,,,,,,,,,,,,,,1,001,male,24,500,400,2022_Jun_30_1226,Experiment,2021.1.4,359.9737938994562,
images\S3_F_S_01.png,images\S3_F_S_01_scrambled.png,3,sad,-10,female,3,,256,off,1,0.5,0.75,0.5,0.909,3,255,1,1,1,0,0,0,0,3,,,,,,0,116,116,116,,,,,,,,,,,,,,,,,,,,,,,,,,,,,,,,,,,,,,,,,,,,,,,,,,,,,,,,,795.0058377000005,795.5112655000012,795.5112655000012,796.2610058999999,796.2610058999999,796.7608870000004,796.7608870000004,797.6716944,797.6716944,None,num_6,0.9295591000009154,797.6716944,None,sad,1,Sad,798.6157701600001,None,None,798.6157701600001,None,,,,,,,,,,,,,,,,,,,,,,,,,,,,,,,,,,,,,,,,,,,,,,,,,,,,,1,001,male,24,500,400,2022_Jun_30_1226,Experiment,2021.1.4,359.9737938994562,
images\S3_F_H_03.png,images\S3_F_H_03_scrambled.png,3,happy,30,female,6,,435,on,2,0.5,0.75,0.5,0.814,3,434,1,2,1,2,2,32,128,166,,,,,,0,117,117,117,,,,,,,,,,,,,,,,,,,,,,,,,,,,,,,,,,,,,,,,,,,,,,,,,,,,,,,,,798.6797028000001,799.1851523000005,799.1851523000005,799.9404714000011,799.9404714000011,800.4430962000006,800.4430962000006,801.2595730000012,801.2595730000012,None,num_4,0.5574004999998579,801.2595730000012,None,happy,1,Happy,801.8315605500011,None,None,801.8315605500011,None,,,,,,,,,,,,,,,,,,,,,,,,,,,,,,,,,,,,,,,,,,,,,,,,,,,,,1,001,male,24,500,400,2022_Jun_30_1226,Experiment,2021.1.4,359.9737938994562,
images\S5_F_H_02.png,images\S5_F_H_02_scrambled.png,5,happy,20,female,5,,326,on,2,0.5,0.75,0.5,0.894,3,325,2,1,1,2,2,32,128,165,,,,,,0,118,118,118,,,,,,,,,,,,,,,,,,,,,,,,,,,,,,,,,,,,,,,,,,,,,,,,,,,,,,,,,801.9175891000014,802.4202714000003,802.4202714000003,803.1755684,803.1755684,803.6754126000014,803.6754126000014,804.5751527000011,804.5751527000011,None,num_4,1.41007990000071,804.5751527000011,None,happy,1,Happy,805.9996556600014,None,None,805.9996556600014,None,,,,,,,,,,,,,,,,,,,,,,,,,,,,,,,,,,,,,,,,,,,,,,,,,,,,,1,001,male,24,500,400,2022_Jun_30_1226,Experiment,2021.1.4,359.9737938994562,
images\S2_M_S_02.png,images\S2_M_S_02_scrambled.png,2,sad,-20,male,2,,551,on,2,0.5,0.75,0.5,0.773,3,550,3,1,1,2,2,32,128,162,,,,,,0,119,119,119,,,,,,,,,,,,,,,,,,,,,,,,,,,,,,,,,,,,,,,,,,,,,,,,,,,,,,,,,806.0468600000004,806.5496258000003,806.5496258000003,807.2992902000005,807.2992902000005,807.799121600001,807.799121600001,808.5766488999998,808.5766488999998,None,num_6,0.8008522000000085,808.5766488999998,None,sad,1,Sad,809.3986918400009,None,None,809.3986918400009,None,,,,,,,,,,,,,,,,,,,,,,,,,,,,,,,,,,,,,,,,,,,,,,,,,,,,,1,001,male,24,500,400,2022_Jun_30_1226,Experiment,2021.1.4,359.9737938994562,
images\S4_M_H_03.png,images\S4_M_H_03_scrambled.png,4,happy,30,male,6,,561,on,2,0.5,0.75,0.5,0.82,3,560,4,1,1,2,2,32,128,166,,,,,,0,120,120,120,,,,,,,,,,,,,,,,,,,,,,,,,,,,,,,,,,,,,,,,,,,,,,,,,,,,,,,,,809.4513633000006,809.9540224000011,809.9540224000011,810.7037884000001,810.7037884000001,811.2036376000015,811.2036376000015,812.0256066000002,812.0256066000002,None,num_4,0.3353179999994609,812.0256066000002,None,happy,1,Happy,812.3726773600007,None,None,812.3726773600007,None,,,,,,,,,,,,,,,,,,,,,,,,,,,,,,,,,,,,,,,,,,,,,,,,,,,,,1,001,male,24,500,400,2022_Jun_30_1226,Experiment,2021.1.4,359.9737938994562,
images\S2_M_S_01.png,images\S2_M_S_01_scrambled.png,2,sad,-10,male,3,,370,off,1,0.5,0.75,0.5,0.948,3,369,1,1,1,0,0,0,0,3,,,,,,0,121,121,121,,,,,,,,,,,,,,,,,,,,,,,,,,,,,,,,,,,,,,,,,,,,,,,,,,,,,,,,,812.4198917000012,812.9253377000005,812.9253377000005,813.6778896000014,813.6778896000014,814.1777351000001,814.1777351000001,815.130200900001,815.130200900001,None,num_4,0.5673071999990498,815.130200900001,None,happy,1,Sad,815.7078626800001,None,None,815.7078626800001,None,,,,,,,,,,,,,,,,,,,,,,,,,,,,,,,,,,,,,,,,,,,,,,,,,,,,,1,001,male,24,500,400,2022_Jun_30_1226,Experiment,2021.1.4,359.9737938994562,
images\S7_F_H_03.png,images\S7_F_H_03_scrambled.png,7,happy,30,female,6,,399,off,1,0.5,0.75,0.5,0.875,3,398,2,1,1,0,0,0,0,6,,,,,,0,122,122,122,,,,,,,,,,,,,,,,,,,,,,,,,,,,,,,,,,,,,,,,,,,,,,,,,,,,,,,,,815.7633224000001,816.2659543000009,816.2659543000009,817.0185085000012,817.0185085000012,817.5183171999997,817.5183171999997,818.3958168999998,818.3958168999998,None,num_4,0.4052585999997973,818.3958168999998,None,happy,1,Happy,818.812431760001,None,None,818.812431760001,None,,,,,,,,,,,,,,,,,,,,,,,,,,,,,,,,,,,,,,,,,,,,,,,,,,,,,1,001,male,24,500,400,2022_Jun_30_1226,Experiment,2021.1.4,359.9737938994562,
images\S5_F_H_02.png,images\S5_F_H_02_scrambled.png,5,happy,20,female,5,,266,off,1,0.5,0.75,0.5,0.828,3,265,3,1,1,0,0,0,0,5,,,,,,0,123,123,123,,,,,,,,,,,,,,,,,,,,,,,,,,,,,,,,,,,,,,,,,,,,,,,,,,,,,,,,,818.8567882000007,819.3595353000001,819.3595353000001,820.1148150999998,820.1148150999998,820.6145821000009,820.6145821000009,821.4449353,821.4449353,None,num_4,0.4040155999991839,821.4449353,None,happy,1,Happy,821.8641871600008,None,None,821.8641871600008,None,,,,,,,,,,,,,,,,,,,,,,,,,,,,,,,,,,,,,,,,,,,,,,,,,,,,,1,001,male,24,500,400,2022_Jun_30_1226,Experiment,2021.1.4,359.9737938994562,
images\S3_F_H_01.png,images\S3_F_H_01_scrambled.png,3,happy,10,female,4,,13,off,1,0.5,0.75,0.5,0.759,3,12,4,1,1,0,0,0,0,4,,,,,,0,124,124,124,,,,,,,,,,,,,,,,,,,,,,,,,,,,,,,,,,,,,,,,,,,,,,,,,,,,,,,,,821.9475018000012,822.4501949000005,822.4501949000005,823.2054821000002,823.2054821000002,823.7081233000008,823.7081233000008,824.4661714000013,824.4661714000013,None,num_4,0.3265272999997251,824.4661714000013,None,happy,1,Happy,824.8076911600016,None,None,824.8076911600016,None,,,,,,,,,,,,,,,,,,,,,,,,,,,,,,,,,,,,,,,,,,,,,,,,,,,,,1,001,male,24,500,400,2022_Jun_30_1226,Experiment,2021.1.4,359.9737938994562,
images\S10_M_H_01.png,images\S10_M_H_01_scrambled.png,10,happy,10,male,4,,175,off,1,0.5,0.75,0.5,0.916,3,174,5,1,2,0,0,0,0,4,,,,,,0,125,125,125,,,,,,,,,,,,,,,,,,,,,,,,,,,,,,,,,,,,,,,,,,,,,,,,,,,,,,,,,824.8549282000004,825.3603815000006,825.3603815000006,826.1129227000001,826.1129227000001,826.612770400001,826.612770400001,827.5347378000006,827.5347378000006,None,num_4,0.49057920000086597,827.5347378000006,None,happy,1,Happy,828.0400554600016,None,None,828.0400554600016,None,,,,,,,,,,,,,,,,,,,,,,,,,,,,,,,,,,,,,,,,,,,,,,,,,,,,,1,001,male,24,500,400,2022_Jun_30_1226,Experiment,2021.1.4,359.9737938994562,
images\S7_F_H_01.png,images\S7_F_H_01_scrambled.png,7,happy,10,female,4,,37,off,1,0.5,0.75,0.5,0.851,3,36,6,1,3,0,0,0,0,4,,,,,,0,126,126,126,,,,,,,,,,,,,,,,,,,,,,,,,,,,,,,,,,,,,,,,,,,,,,,,,,,,,,,,,828.1455815999998,828.6510147999998,828.6510147999998,829.4007505000009,829.4007505000009,829.9034093000009,829.9034093000009,830.7586869000006,830.7586869000006,None,num_4,0.5545454000002792,830.7586869000006,None,happy,1,Happy,831.3279256600014,None,None,831.3279256600014,None,,,,,,,,,,,,,,,,,,,,,,,,,,,,,,,,,,,,,,,,,,,,,,,,,,,,,1,001,male,24,500,400,2022_Jun_30_1226,Experiment,2021.1.4,359.9737938994562,
images\blank.jpg,images\blank.jpg,none,none,none,none,0,,643,on,2,0.5,0.75,0.5,0.929,0,642,1,1,1,3,3,48,192,240,,,,,,0,127,127,127,,,,,,,,,,,,,,,,,,,,,,,,,,,,,,,,,,,,,,,,,,,,,,,,,,,,,,,,,831.411490800001,831.9166589000015,831.9166589000015,832.6692993000015,832.6692993000015,833.1690514000002,833.1690514000002,834.1048891999999,834.1048891999999,834.1048891999999,None,,834.1048891999999,None,miss,1,,837.1096041799999,None,None,837.1096041799999,None,,,,,,,,,,,,,,,,,,,,,,,,,,,,,,,,,,,,,,,,,,,,,,,,,,,,,1,001,male,24,500,400,2022_Jun_30_1226,Experiment,2021.1.4,359.9737938994562,
images\S1_F_S_02.png,images\S1_F_S_02_scrambled.png,1,sad,-20,female,2,,5,off,1,0.5,0.75,0.5,0.779,3,4,1,1,1,0,0,0,0,2,,,,,,0,128,128,128,,,,,,,,,,,,,,,,,,,,,,,,,,,,,,,,,,,,,,,,,,,,,,,,,,,,,,,,,837.2373934000007,837.7398868,837.7398868,838.4952095000008,838.4952095000008,839.0005877000003,839.0005877000003,839.7836696000013,839.7836696000013,None,num_6,0.7450941000006424,839.7836696000013,837.2373934000007,sad,1,Sad,840.5389902600015,None,None,840.5389902600015,None,,,,,,,,,,,,,,,,,,,,,,,,,,,,,,,,,,,,,,,,,,,,,,,,,,,,,1,001,male,24,500,400,2022_Jun_30_1226,Experiment,2021.1.4,359.9737938994562,
images\S3_F_S_02.png,images\S3_F_S_02_scrambled.png,3,sad,-20,female,2,,197,on,2,0.5,0.75,0.5,0.913,3,196,1,1,2,2,2,32,128,162,,,,,,0,129,129,129,,,,,,,,,,,,,,,,,,,,,,,,,,,,,,,,,,,,,,,,,,,,,,,,,,,,,,,,,840.5861734999999,841.0888255999998,841.0888255999998,841.8386076000006,841.8386076000006,842.3384454000006,842.3384454000006,843.2520255,843.2520255,None,num_6,1.0529756999985693,843.2520255,None,sad,1,Sad,844.3183558600009,None,None,844.3183558600009,None,,,,,,,,,,,,,,,,,,,,,,,,,,,,,,,,,,,,,,,,,,,,,,,,,,,,,1,001,male,24,500,400,2022_Jun_30_1226,Experiment,2021.1.4,359.9737938994562,
images\S8_M_S_03.png,images\S8_M_S_03_scrambled.png,8,sad,-30,male,1,,228,on,2,0.5,0.75,0.5,0.751,3,227,2,1,1,2,2,32,128,161,,,,,,0,130,130,130,,,,,,,,,,,,,,,,,,,,,,,,,,,,,,,,,,,,,,,,,,,,,,,,,,,,,,,,,844.3655717000001,844.868187600001,844.868187600001,845.6180013000012,845.6180013000012,846.1178470000013,846.1178470000013,846.8731532000002,846.8731532000002,None,num_6,0.7836993000000803,846.8731532000002,None,sad,1,Sad,847.6757381000007,None,space,847.6757381000007,None,122.540246999999,,,,,,,,,,,,,,,,,,,,,,,,,,,,,,,,,,,,,,,,,,,,,,,,,,,,1,001,male,24,500,400,2022_Jun_30_1226,Experiment,2021.1.4,359.9737938994562,
images\S5_F_H_03.png,images\S5_F_H_03_scrambled.png,5,happy,30,female,6,,447,on,2,0.5,0.75,0.5,0.787,3,446,3,1,1,2,2,32,128,166,,,,,,0,131,131,131,,,,,,,,,,,,,,,,,,,,,,,,,,,,,,,,,,,,,,,,,,,,,,,,,,,,,,,,,970.2793068999999,970.7848099000003,970.7848099000003,971.5373157000013,971.5373157000013,972.0372072999999,972.0372072999999,972.8287102000013,972.8287102000013,None,num_4,0.683993399999963,972.8287102000013,None,happy,1,Happy,973.5340290200012,None,None,973.5340290200012,None,,,,,,,,,,,,,,,,,,,,,,,,,,,,,,,,,,,,,,,,,,,,,,,,,,,,,1,001,male,24,500,400,2022_Jun_30_1226,Experiment,2021.1.4,359.9737938994562,
images\S2_M_S_03.png,images\S2_M_S_03_scrambled.png,2,sad,-30,male,1,,12,off,1,0.5,0.75,0.5,0.776,3,11,1,1,1,0,0,0,0,1,,,,,,0,132,132,132,,,,,,,,,,,,,,,,,,,,,,,,,,,,,,,,,,,,,,,,,,,,,,,,,,,,,,,,,973.5866752000002,974.0893063000003,974.0893063000003,974.8446768000013,974.8446768000013,975.3444780999998,975.3444780999998,976.1247891000003,976.1247891000003,None,num_6,0.6757769000014378,976.1247891000003,None,sad,1,Sad,976.8162052600015,None,None,976.8162052600015,None,,,,,,,,,,,,,,,,,,,,,,,,,,,,,,,,,,,,,,,,,,,,,,,,,,,,,1,001,male,24,500,400,2022_Jun_30_1226,Experiment,2021.1.4,359.9737938994562,
images\S10_M_H_02.png,images\S10_M_H_02_scrambled.png,10,happy,20,male,5,,416,off,1,0.5,0.75,0.5,0.827,3,415,2,1,1,0,0,0,0,5,,,,,,0,133,133,133,,,,,,,,,,,,,,,,,,,,,,,,,,,,,,,,,,,,,,,,,,,,,,,,,,,,,,,,,976.8634399000002,977.3633183000002,977.3633183000002,978.113055400001,978.113055400001,978.6129373000003,978.6129373000003,979.4432362000007,979.4432362000007,None,num_4,0.5094341999993048,979.4432362000007,None,happy,1,Happy,979.9680225600001,None,None,979.9680225600001,None,,,,,,,,,,,,,,,,,,,,,,,,,,,,,,,,,,,,,,,,,,,,,,,,,,,,,1,001,male,24,500,400,2022_Jun_30_1226,Experiment,2021.1.4,359.9737938994562,
images\S5_F_H_03.png,images\S5_F_H_03_scrambled.png,5,happy,30,female,6,,207,on,2,0.5,0.75,0.5,0.801,3,206,1,1,1,2,2,32,128,166,,,,,,0,134,134,134,,,,,,,,,,,,,,,,,,,,,,,,,,,,,,,,,,,,,,,,,,,,,,,,,,,,,,,,,980.0124639000005,980.5123182000007,980.5123182000007,981.2648946999998,981.2648946999998,981.7647015000002,981.7647015000002,982.5700149000004,982.5700149000004,None,num_4,0.5106042999996134,982.5700149000004,None,happy,1,Happy,983.0920513600009,None,None,983.0920513600009,None,,,,,,,,,,,,,,,,,,,,,,,,,,,,,,,,,,,,,,,,,,,,,,,,,,,,,1,001,male,24,500,400,2022_Jun_30_1226,Experiment,2021.1.4,359.9737938994562,
images\S5_F_S_02.png,images\S5_F_S_02_scrambled.png,5,sad,-20,female,2,,569,on,2,0.5,0.75,0.5,0.903,3,568,2,2,1,2,2,32,128,162,,,,,,0,135,135,135,,,,,,,,,,,,,,,,,,,,,,,,,,,,,,,,,,,,,,,,,,,,,,,,,,,,,,,,,983.1392754000008,983.6447237000011,983.6447237000011,984.3972718000005,984.3972718000005,984.8998796000014,984.8998796000014,985.8051551999997,985.8051551999997,None,num_4,0.49993630000062694,985.8051551999997,None,happy,1,Sad,986.3105802800007,None,None,986.3105802800007,None,,,,,,,,,,,,,,,,,,,,,,,,,,,,,,,,,,,,,,,,,,,,,,,,,,,,,1,001,male,24,500,400,2022_Jun_30_1226,Experiment,2021.1.4,359.9737938994562,
images\S6_M_S_03.png,images\S6_M_S_03_scrambled.png,6,sad,-30,male,1,,576,on,2,0.5,0.75,0.5,0.783,3,575,3,1,1,2,2,32,128,161,,,,,,0,136,136,136,,,,,,,,,,,,,,,,,,,,,,,,,,,,,,,,,,,,,,,,,,,,,,,,,,,,,,,,,986.3577287000007,986.8603779000005,986.8603779000005,987.6129335000005,987.6129335000005,988.1127618999999,988.1127618999999,988.8987228000005,988.8987228000005,None,num_6,0.30993780000062543,988.8987228000005,None,sad,1,Sad,989.2234703600003,None,None,989.2234703600003,None,,,,,,,,,,,,,,,,,,,,,,,,,,,,,,,,,,,,,,,,,,,,,,,,,,,,,1,001,male,24,500,400,2022_Jun_30_1226,Experiment,2021.1.4,359.9737938994562,
images\S7_F_H_02.png,images\S7_F_H_02_scrambled.png,7,happy,20,female,5,,518,off,1,0.5,0.75,0.5,0.906,3,517,1,1,1,0,0,0,0,5,,,,,,0,137,137,137,,,,,,,,,,,,,,,,,,,,,,,,,,,,,,,,,,,,,,,,,,,,,,,,,,,,,,,,,989.3068144999997,989.8094775999998,989.8094775999998,990.5647946000008,990.5647946000008,991.0701896999999,991.0701896999999,991.9809987000008,991.9809987000008,None,num_4,0.5236836000003677,991.9809987000008,None,happy,1,Happy,992.51967286,None,None,992.51967286,None,,,,,,,,,,,,,,,,,,,,,,,,,,,,,,,,,,,,,,,,,,,,,,,,,,,,,1,001,male,24,500,400,2022_Jun_30_1226,Experiment,2021.1.4,359.9737938994562,
images\S1_F_H_03.png,images\S1_F_H_03_scrambled.png,1,happy,30,female,6,,63,on,2,0.5,0.75,0.5,0.78,3,62,1,1,1,2,2,32,128,166,,,,,,0,138,138,138,,,,,,,,,,,,,,,,,,,,,,,,,,,,,,,,,,,,,,,,,,,,,,,,,,,,,,,,,992.5835733000004,993.0834173000003,993.0834173000003,993.8332310000005,993.8332310000005,994.3330732000013,994.3330732000013,995.1161439000007,995.1161439000007,None,num_4,1.044721500000378,995.1161439000007,None,happy,1,Happy,996.1825585400005,None,None,996.1825585400005,None,,,,,,,,,,,,,,,,,,,,,,,,,,,,,,,,,,,,,,,,,,,,,,,,,,,,,1,001,male,24,500,400,2022_Jun_30_1226,Experiment,2021.1.4,359.9737938994562,
images\S2_M_H_01.png,images\S2_M_H_01_scrambled.png,2,happy,10,male,4,,67,on,2,0.5,0.75,0.5,0.762,3,66,2,1,1,2,2,32,128,164,,,,,,0,139,139,139,,,,,,,,,,,,,,,,,,,,,,,,,,,,,,,,,,,,,,,,,,,,,,,,,,,,,,,,,996.2324433000013,996.7322732000011,996.7322732000011,997.4820703000005,997.4820703000005,997.9847447000011,997.9847447000011,998.7511341999998,998.7511341999998,None,num_6,0.577512800000477,998.7511341999998,None,sad,1,Happy,999.3370709800008,None,None,999.3370709800008,None,,,,,,,,,,,,,,,,,,,,,,,,,,,,,,,,,,,,,,,,,,,,,,,,,,,,,1,001,male,24,500,400,2022_Jun_30_1226,Experiment,2021.1.4,359.9737938994562,
