image_face,image_scram,avatar,emo,emotion,sex,trigeeg,dac,trial_no,NMES,stimtime,baseline,iti,face,scr_face,resp_time,index,count_NMES,count_avatar,count_emotion,dac1,dac2,dac1_output,dac2_output,trigs_out,nmes,practice_trials.thisRepN,practice_trials.thisTrialN,practice_trials.thisN,practice_trials.thisIndex,real_trials.thisRepN,real_trials.thisTrialN,real_trials.thisN,real_trials.thisIndex,trials.thisRepN,trials.thisTrialN,trials.thisN,trials.thisIndex,position,Welcome.started,Welcome.stopped,Welcome_resp.keys,Welcome_resp.rt,text_2.started,text_2.stopped,form_2.index,form_2.itemText,form_2.type,form_2.response,form_2.rt,key_resp_4.keys,key_resp_4.rt,key_resp_4.started,key_resp_4.stopped,instructions.started,instructions.stopped,end_instr.keys,end_instr.rt,instructions_2.started,instructions_2.stopped,end_instr_2.keys,end_instr_2.rt,end_instr_2.started,end_instr_2.stopped,instruct_keypress.started,instruct_keypress.stopped,end_instruct_keypress.keys,end_instruct_keypress.rt,start_practice.started,start_practice.stopped,start_practice_resp.keys,start_practice_resp.rt,prac_baseline.started,prac_baseline.stopped,prac_iti.started,prac_iti.stopped,prac_stimulus.started,prac_stimulus.stopped,prac_scram_stim.started,prac_scram_stim.stopped,prac_stimulus_resp.started,prac_stimulus_resp.stopped,prac_resp.keys,prac_resp.rt,prac_resp.started,prac_resp.stopped,transition_to_real.started,transition_to_real.stopped,end_transition_to_real.keys,end_transition_to_real.rt,fixation_cross.started,fixation_cross.stopped,tr_iti.started,tr_iti.stopped,stimulus.started,stimulus.stopped,scram_stim.started,scram_stim.stopped,response_txt.started,response_txt.stopped,response.keys,response.rt,response.started,response.stopped,participant_Resp,grouping,corAnswer,break_msg.started,break_msg.stopped,end_break.keys,end_break.started,end_break.stopped,end_break.rt,text.started,text.stopped,key_resp_3.keys,key_resp_3.rt,key_resp_3.started,key_resp_3.stopped,fix_cross_comf.started,fix_cross_comf.stopped,stimulation_comf.started,stimulation_comf.stopped,rate_instr.started,rate_instr.stopped,comfort_rating.response,comfort_rating.rt,comfort_rating.started,comfort_rating.stopped,resp_form.keys,resp_form.rt,resp_form.started,resp_form.stopped,survey_instructions.started,survey_instructions.stopped,key_resp_2.keys,key_resp_2.rt,key_resp_2.started,key_resp_2.stopped,form.index,form.itemText,form.type,form.response,form.rt,key_resp.keys,key_resp.rt,key_resp.started,key_resp.stopped,text_3.started,text_3.stopped,rate_smile.response,rate_smile.rt,rate_smile.started,rate_smile.stopped,key_resp_5.keys,key_resp_5.rt,key_resp_5.started,key_resp_5.stopped,end_msg.started,end_msg.stopped,end_resp.keys,end_resp.rt,end_resp.started,end_resp.stopped,participant,session,gender,age,LEFT,RIGHT,date,expName,psychopyVersion,frameRate,
,,,,,,,,,,,,,,,,,,,,,,,,,,,,,,,,,,,,,,S-H,23.462278299997706,None,num_add,11.079900999997335,,,,,,,,,,,,,,,,,,,,,,,,,,,,,,,,,,,,,,,,,,,,,,,,,,,,,,,,,,,,,,,,,,,,,,,,,,,,,,,,,,,,,,,,,,,,,,,,,,,,,,,,,,,,,,,,,,,,,,,,,,20,001,1,21,400,400,2022_Oct_11_1433,Experiment,2021.1.4,360.3993224481004,
,,,,,,,,,,,,,,,,,,,,,,,,,,,,,,,,,,,,,,,,,,,34.54914689999714,36.58186569999816,1,"This scale consistes of a number of words that describe different feelings and emotion. Read each item and then list the number from the scale below each word. Indicate (by clicking) to what extend you feel this way RIGHT NOW, that is, AT THE PRESENT MOMENT.",description,,,,,,,,,,,,,,,,,,,,,,,,,,,,,,,,,,,,,,,,,,,,,,,,,,,,,,,,,,,,,,,,,,,,,,,,,,,,,,,,,,,,,,,,,,,,,,,,,,,,,,,,,,,,,,,,,,,,,20,001,1,21,400,400,2022_Oct_11_1433,Experiment,2021.1.4,360.3993224481004,
,,,,,,,,,,,,,,,,,,,,,,,,,,,,,,,,,,,,,,,,,,,,,2,Interested,rating,3.0,22.062674299999344,,,,,,,,,,,,,,,,,,,,,,,,,,,,,,,,,,,,,,,,,,,,,,,,,,,,,,,,,,,,,,,,,,,,,,,,,,,,,,,,,,,,,,,,,,,,,,,,,,,,,,,,,,,,,,,,,,,20,001,1,21,400,400,2022_Oct_11_1433,Experiment,2021.1.4,360.3993224481004,
,,,,,,,,,,,,,,,,,,,,,,,,,,,,,,,,,,,,,,,,,,,,,3,Distressed,rating,1.0,26.082428199999413,,,,,,,,,,,,,,,,,,,,,,,,,,,,,,,,,,,,,,,,,,,,,,,,,,,,,,,,,,,,,,,,,,,,,,,,,,,,,,,,,,,,,,,,,,,,,,,,,,,,,,,,,,,,,,,,,,,20,001,1,21,400,400,2022_Oct_11_1433,Experiment,2021.1.4,360.3993224481004,
,,,,,,,,,,,,,,,,,,,,,,,,,,,,,,,,,,,,,,,,,,,,,4,Excited,rating,3.0,29.078271399997902,,,,,,,,,,,,,,,,,,,,,,,,,,,,,,,,,,,,,,,,,,,,,,,,,,,,,,,,,,,,,,,,,,,,,,,,,,,,,,,,,,,,,,,,,,,,,,,,,,,,,,,,,,,,,,,,,,,20,001,1,21,400,400,2022_Oct_11_1433,Experiment,2021.1.4,360.3993224481004,
,,,,,,,,,,,,,,,,,,,,,,,,,,,,,,,,,,,,,,,,,,,,,5,Upset,rating,1.0,34.86911180000243,,,,,,,,,,,,,,,,,,,,,,,,,,,,,,,,,,,,,,,,,,,,,,,,,,,,,,,,,,,,,,,,,,,,,,,,,,,,,,,,,,,,,,,,,,,,,,,,,,,,,,,,,,,,,,,,,,,20,001,1,21,400,400,2022_Oct_11_1433,Experiment,2021.1.4,360.3993224481004,
,,,,,,,,,,,,,,,,,,,,,,,,,,,,,,,,,,,,,,,,,,,,,6,Strong,rating,3.0,37.43927449999683,,,,,,,,,,,,,,,,,,,,,,,,,,,,,,,,,,,,,,,,,,,,,,,,,,,,,,,,,,,,,,,,,,,,,,,,,,,,,,,,,,,,,,,,,,,,,,,,,,,,,,,,,,,,,,,,,,,20,001,1,21,400,400,2022_Oct_11_1433,Experiment,2021.1.4,360.3993224481004,
,,,,,,,,,,,,,,,,,,,,,,,,,,,,,,,,,,,,,,,,,,,,,7,Guilty,rating,1.0,7.96973010000147,,,,,,,,,,,,,,,,,,,,,,,,,,,,,,,,,,,,,,,,,,,,,,,,,,,,,,,,,,,,,,,,,,,,,,,,,,,,,,,,,,,,,,,,,,,,,,,,,,,,,,,,,,,,,,,,,,,20,001,1,21,400,400,2022_Oct_11_1433,Experiment,2021.1.4,360.3993224481004,
,,,,,,,,,,,,,,,,,,,,,,,,,,,,,,,,,,,,,,,,,,,,,8,Scared,rating,1.0,9.450551099998847,,,,,,,,,,,,,,,,,,,,,,,,,,,,,,,,,,,,,,,,,,,,,,,,,,,,,,,,,,,,,,,,,,,,,,,,,,,,,,,,,,,,,,,,,,,,,,,,,,,,,,,,,,,,,,,,,,,20,001,1,21,400,400,2022_Oct_11_1433,Experiment,2021.1.4,360.3993224481004,
,,,,,,,,,,,,,,,,,,,,,,,,,,,,,,,,,,,,,,,,,,,,,9,Hostile,rating,1.0,11.086404600002425,,,,,,,,,,,,,,,,,,,,,,,,,,,,,,,,,,,,,,,,,,,,,,,,,,,,,,,,,,,,,,,,,,,,,,,,,,,,,,,,,,,,,,,,,,,,,,,,,,,,,,,,,,,,,,,,,,,20,001,1,21,400,400,2022_Oct_11_1433,Experiment,2021.1.4,360.3993224481004,
,,,,,,,,,,,,,,,,,,,,,,,,,,,,,,,,,,,,,,,,,,,,,10,Enthusiastic,rating,3.0,7.638473700000759,,,,,,,,,,,,,,,,,,,,,,,,,,,,,,,,,,,,,,,,,,,,,,,,,,,,,,,,,,,,,,,,,,,,,,,,,,,,,,,,,,,,,,,,,,,,,,,,,,,,,,,,,,,,,,,,,,,20,001,1,21,400,400,2022_Oct_11_1433,Experiment,2021.1.4,360.3993224481004,
,,,,,,,,,,,,,,,,,,,,,,,,,,,,,,,,,,,,,,,,,,,,,11,Proud,rating,1.0,10.0613357000002,,,,,,,,,,,,,,,,,,,,,,,,,,,,,,,,,,,,,,,,,,,,,,,,,,,,,,,,,,,,,,,,,,,,,,,,,,,,,,,,,,,,,,,,,,,,,,,,,,,,,,,,,,,,,,,,,,,20,001,1,21,400,400,2022_Oct_11_1433,Experiment,2021.1.4,360.3993224481004,
,,,,,,,,,,,,,,,,,,,,,,,,,,,,,,,,,,,,,,,,,,,,,12,Irritable,rating,2.0,11.624253699999826,,,,,,,,,,,,,,,,,,,,,,,,,,,,,,,,,,,,,,,,,,,,,,,,,,,,,,,,,,,,,,,,,,,,,,,,,,,,,,,,,,,,,,,,,,,,,,,,,,,,,,,,,,,,,,,,,,,20,001,1,21,400,400,2022_Oct_11_1433,Experiment,2021.1.4,360.3993224481004,
,,,,,,,,,,,,,,,,,,,,,,,,,,,,,,,,,,,,,,,,,,,,,13,Alert,rating,4.0,49.583783300000505,,,,,,,,,,,,,,,,,,,,,,,,,,,,,,,,,,,,,,,,,,,,,,,,,,,,,,,,,,,,,,,,,,,,,,,,,,,,,,,,,,,,,,,,,,,,,,,,,,,,,,,,,,,,,,,,,,,20,001,1,21,400,400,2022_Oct_11_1433,Experiment,2021.1.4,360.3993224481004,
,,,,,,,,,,,,,,,,,,,,,,,,,,,,,,,,,,,,,,,,,,,,,14,Ashamed,rating,1.0,11.853735199998482,,,,,,,,,,,,,,,,,,,,,,,,,,,,,,,,,,,,,,,,,,,,,,,,,,,,,,,,,,,,,,,,,,,,,,,,,,,,,,,,,,,,,,,,,,,,,,,,,,,,,,,,,,,,,,,,,,,20,001,1,21,400,400,2022_Oct_11_1433,Experiment,2021.1.4,360.3993224481004,
,,,,,,,,,,,,,,,,,,,,,,,,,,,,,,,,,,,,,,,,,,,,,15,Inspired,rating,1.0,11.309815600001457,,,,,,,,,,,,,,,,,,,,,,,,,,,,,,,,,,,,,,,,,,,,,,,,,,,,,,,,,,,,,,,,,,,,,,,,,,,,,,,,,,,,,,,,,,,,,,,,,,,,,,,,,,,,,,,,,,,20,001,1,21,400,400,2022_Oct_11_1433,Experiment,2021.1.4,360.3993224481004,
,,,,,,,,,,,,,,,,,,,,,,,,,,,,,,,,,,,,,,,,,,,,,16,Nervous,rating,1.0,10.860209999998915,,,,,,,,,,,,,,,,,,,,,,,,,,,,,,,,,,,,,,,,,,,,,,,,,,,,,,,,,,,,,,,,,,,,,,,,,,,,,,,,,,,,,,,,,,,,,,,,,,,,,,,,,,,,,,,,,,,20,001,1,21,400,400,2022_Oct_11_1433,Experiment,2021.1.4,360.3993224481004,
,,,,,,,,,,,,,,,,,,,,,,,,,,,,,,,,,,,,,,,,,,,,,17,Determined,rating,4.0,10.108259500000713,,,,,,,,,,,,,,,,,,,,,,,,,,,,,,,,,,,,,,,,,,,,,,,,,,,,,,,,,,,,,,,,,,,,,,,,,,,,,,,,,,,,,,,,,,,,,,,,,,,,,,,,,,,,,,,,,,,20,001,1,21,400,400,2022_Oct_11_1433,Experiment,2021.1.4,360.3993224481004,
,,,,,,,,,,,,,,,,,,,,,,,,,,,,,,,,,,,,,,,,,,,,,18,Attentive,rating,4.0,25.962276099999144,,,,,,,,,,,,,,,,,,,,,,,,,,,,,,,,,,,,,,,,,,,,,,,,,,,,,,,,,,,,,,,,,,,,,,,,,,,,,,,,,,,,,,,,,,,,,,,,,,,,,,,,,,,,,,,,,,,20,001,1,21,400,400,2022_Oct_11_1433,Experiment,2021.1.4,360.3993224481004,
,,,,,,,,,,,,,,,,,,,,,,,,,,,,,,,,,,,,,,,,,,,,,19,Jittery,rating,1.0,15.23922390000007,,,,,,,,,,,,,,,,,,,,,,,,,,,,,,,,,,,,,,,,,,,,,,,,,,,,,,,,,,,,,,,,,,,,,,,,,,,,,,,,,,,,,,,,,,,,,,,,,,,,,,,,,,,,,,,,,,,20,001,1,21,400,400,2022_Oct_11_1433,Experiment,2021.1.4,360.3993224481004,
,,,,,,,,,,,,,,,,,,,,,,,,,,,,,,,,,,,,,,,,,,,,,20,Active,rating,4.0,7.1879056000034325,,,,,,,,,,,,,,,,,,,,,,,,,,,,,,,,,,,,,,,,,,,,,,,,,,,,,,,,,,,,,,,,,,,,,,,,,,,,,,,,,,,,,,,,,,,,,,,,,,,,,,,,,,,,,,,,,,,20,001,1,21,400,400,2022_Oct_11_1433,Experiment,2021.1.4,360.3993224481004,
,,,,,,,,,,,,,,,,,,,,,,,,,,,,,,,,,,,,,,,,,,,,,21,Afraid,rating,1.0,13.235975399999006,,,,,,,,,,,,,,,,,,,,,,,,,,,,,,,,,,,,,,,,,,,,,,,,,,,,,,,,,,,,,,,,,,,,,,,,,,,,,,,,,,,,,,,,,,,,,,,,,,,,,,,,,,,,,,,,,,,20,001,1,21,400,400,2022_Oct_11_1433,Experiment,2021.1.4,360.3993224481004,
,,,,,,,,,,,,,,,,,,,,,,,,,,,,,,,,,,,,,,,,,,,,,22,Press the + button to submit your answers,description,,,,,,,,,,,,,,,,,,,,,,,,,,,,,,,,,,,,,,,,,,,,,,,,,,,,,,,,,,,,,,,,,,,,,,,,,,,,,,,,,,,,,,,,,,,,,,,,,,,,,,,,,,,,,,,,,,,,,20,001,1,21,400,400,2022_Oct_11_1433,Experiment,2021.1.4,360.3993224481004,
,,,,,,,,,,,,,,,,,,,,,,,,,,,,,,,,,,,,,,,,,,,,,,,,,,num_add,95.36024710000129,44.57382949999737,None,,,,,,,,,,,,,,,,,,,,,,,,,,,,,,,,,,,,,,,,,,,,,,,,,,,,,,,,,,,,,,,,,,,,,,,,,,,,,,,,,,,,,,,,,,,,,,,,,,,,,,,,,,,,,,,20,001,1,21,400,400,2022_Oct_11_1433,Experiment,2021.1.4,360.3993224481004,
,,,,,,,,,,,,,,,,,,,,,,,,,,,,,,,,,,,,,,,,,,,,,,,,,,,,,,139.95559449999928,None,num_add,14.458483799997339,,,,,,,,,,,,,,,,,,,,,,,,,,,,,,,,,,,,,,,,,,,,,,,,,,,,,,,,,,,,,,,,,,,,,,,,,,,,,,,,,,,,,,,,,,,,,,,,,,,,,,,,,,,20,001,1,21,400,400,2022_Oct_11_1433,Experiment,2021.1.4,360.3993224481004,
,,,,,,,,,,,,,,,,,,,,,,,,,,,,,,,,,,,,,,,,,,,,,,,,,,,,,,,,,,154.42602559999796,None,num_add,9.220042199998716,154.42602559999796,None,,,,,,,,,,,,,,,,,,,,,,,,,,,,,,,,,,,,,,,,,,,,,,,,,,,,,,,,,,,,,,,,,,,,,,,,,,,,,,,,,,,,,,,,,,,,,,,,,,,,,20,001,1,21,400,400,2022_Oct_11_1433,Experiment,2021.1.4,360.3993224481004,
,,,,,,,,,,,,,,,,,,,,,,,,,,,,,,,,,,,,,,,,,,,,,,,,,,,,,,,,,,,,,,,,163.66483320000043,None,num_add,5.4530708999991475,,,,,,,,,,,,,,,,,,,,,,,,,,,,,,,,,,,,,,,,,,,,,,,,,,,,,,,,,,,,,,,,,,,,,,,,,,,,,,,,,,,,,,,,,,,,,,,,,20,001,1,21,400,400,2022_Oct_11_1433,Experiment,2021.1.4,360.3993224481004,
,,,,,,,,,,,,,,,,,,,,,,,,,,,,,,,,,,,,,,,,,,,,,,,,,,,,,,,,,,,,,,,,,,,,169.1270375999993,None,space,47.91884819999905,,,,,,,,,,,,,,,,,,,,,,,,,,,,,,,,,,,,,,,,,,,,,,,,,,,,,,,,,,,,,,,,,,,,,,,,,,,,,,,,,,,,,,,,,,,,,20,001,1,21,400,400,2022_Oct_11_1433,Experiment,2021.1.4,360.3993224481004,
images\S21_F_H_01.png,images\S21_F_H_01_scrambled.png,21,Happy,-0.1,F,0,0,practice,off,1,0.5,0.75,0.5,0.853,3,,,,,,,,,,,0,0,0,0,,,,,,,,,,,,,,,,,,,,,,,,,,,,,,,,,,,,,,,,,,,217.17886129999897,217.68433709999954,217.68433709999954,218.43962939999983,218.43962939999983,218.9449988999986,218.9449988999986,219.79748379999728,219.79748379999728,None,num_6,1.1930426999970223,219.79748379999728,None,,,,,,,,,,,,,,,,,,,,,,,,,,,,,,,,,,,,,,,,,,,,,,,,,,,,,,,,,,,,,,,,,,,,,,,,,,,,,,,20,001,1,21,400,400,2022_Oct_11_1433,Experiment,2021.1.4,360.3993224481004,
images\S22_M_S_02.png,images\S22_M_S_02_scrambled.png,22,Sad,0.2,M,0,0,practice,off,1,0.5,0.75,0.5,0.751,3,,,,,,,,,,,0,1,1,3,,,,,,,,,,,,,,,,,,,,,,,,,,,,,,,,,,,,,,,,,,,221.049882299998,221.55529749999914,221.55529749999914,222.3106224999974,222.3106224999974,222.8133620999979,222.8133620999979,223.56854569999996,223.56854569999996,None,num_6,0.813797999999224,223.56854569999996,None,,,,,,,,,,,,,,,,,,,,,,,,,,,,,,,,,,,,,,,,,,,,,,,,,,,,,,,,,,,,,,,,,,,,,,,,,,,,,,,20,001,1,21,400,400,2022_Oct_11_1433,Experiment,2021.1.4,360.3993224481004,
images\S22_M_S_03.png,images\S22_M_S_03_scrambled.png,22,Sad,0.3,M,0,0,practice,on,2,0.5,0.75,0.5,0.87,3,,,,,,,,,,,0,2,2,4,,,,,,,,,,,,,,,,,,,,,,,,,,,,,,,,,,,,,,,,,,,224.43494680000003,224.940376999999,224.940376999999,225.6956930999986,225.6956930999986,226.198427299998,226.198427299998,227.0702799999999,227.0702799999999,None,num_6,0.7840289000014309,227.0702799999999,None,,,,,,,,,,,,,,,,,,,,,,,,,,,,,,,,,,,,,,,,,,,,,,,,,,,,,,,,,,,,,,,,,,,,,,,,,,,,,,,20,001,1,21,400,400,2022_Oct_11_1433,Experiment,2021.1.4,360.3993224481004,
images\S21_F_H_02.png,images\S21_F_H_02_scrambled.png,21,Happy,-0.2,F,0,0,practice,off,1,0.5,0.75,0.5,0.91,3,,,,,,,,,,,0,3,3,1,,,,,,,,,,,,,,,,,,,,,,,,,,,,,,,,,,,,,,,,,,,227.90609549999863,228.4115079000003,228.4115079000003,229.1640683000005,229.1640683000005,229.6666766999988,229.6666766999988,230.5802737999984,230.5802737999984,None,num_6,0.7700646999983292,230.5802737999984,None,,,,,,,,,,,,,,,,,,,,,,,,,,,,,,,,,,,,,,,,,,,,,,,,,,,,,,,,,,,,,,,,,,,,,,,,,,,,,,,20,001,1,21,400,400,2022_Oct_11_1433,Experiment,2021.1.4,360.3993224481004,
images\S22_M_S_03.png,images\S22_M_S_03_scrambled.png,22,Sad,0.3,M,0,0,practice,on,2,0.5,0.75,0.5,0.794,3,,,,,,,,,,,0,4,4,7,,,,,,,,,,,,,,,,,,,,,,,,,,,,,,,,,,,,,,,,,,,231.40501539999968,231.9076322999972,231.9076322999972,232.65746579999904,232.65746579999904,233.1600636999974,233.1600636999974,233.95699989999775,233.95699989999775,None,num_4,0.5616173000016715,233.95699989999775,None,,,,,,,,,,,,,,,,,,,,,,,,,,,,,,,,,,,,,,,,,,,,,,,,,,,,,,,,,,,,,,,,,,,,,,,,,,,,,,,20,001,1,21,400,400,2022_Oct_11_1433,Experiment,2021.1.4,360.3993224481004,
images\S22_M_S_01.png,images\S22_M_S_01_scrambled.png,22,Sad,0.1,M,0,0,practice,on,2,0.5,0.75,0.5,0.867,3,,,,,,,,,,,0,5,5,5,,,,,,,,,,,,,,,,,,,,,,,,,,,,,,,,,,,,,,,,,,,234.5929178999977,235.09556789999988,235.09556789999988,235.85088339999857,235.85088339999857,236.35347940000065,236.35347940000065,237.22270089999802,237.22270089999802,None,num_6,0.7917897000006633,237.22270089999802,None,,,,,,,,,,,,,,,,,,,,,,,,,,,,,,,,,,,,,,,,,,,,,,,,,,,,,,,,,,,,,,,,,,,,,,,,,,,,,,,20,001,1,21,400,400,2022_Oct_11_1433,Experiment,2021.1.4,360.3993224481004,
images\S22_M_S_02.png,images\S22_M_S_02_scrambled.png,22,Sad,0.2,M,0,0,practice,on,2,0.5,0.75,0.5,0.783,3,,,,,,,,,,,0,6,6,6,,,,,,,,,,,,,,,,,,,,,,,,,,,,,,,,,,,,,,,,,,,238.06684529999984,238.56949259999965,238.56949259999965,239.32202459999826,239.32202459999826,239.82468739999968,239.82468739999968,240.61054700000022,240.61054700000022,None,num_4,0.3641538000010769,240.61054700000022,None,,,,,,,,,,,,,,,,,,,,,,,,,,,,,,,,,,,,,,,,,,,,,,,,,,,,,,,,,,,,,,,,,,,,,,,,,,,,,,,20,001,1,21,400,400,2022_Oct_11_1433,Experiment,2021.1.4,360.3993224481004,
images\S22_M_H_02.png,images\S22_M_H_02_scrambled.png,22,Happy,-0.2,M,0,0,practice,off,1,0.5,0.75,0.5,0.883,3,,,,,,,,,,,0,7,7,2,,,,,,,,,,,,,,,,,,,,,,,,,,,,,,,,,,,,,,,,,,,241.02704439999798,241.5297099999989,241.5297099999989,242.28502829999707,242.28502829999707,242.78765460000068,242.78765460000068,243.67344159999993,243.67344159999993,None,num_6,0.46895109999968554,243.67344159999993,None,,,,,,,,,,,,,,,,,,,,,,,,,,,,,,,,,,,,,,,,,,,,,,,,,,,,,,,,,,,,,,,,,,,,,,,,,,,,,,,20,001,1,21,400,400,2022_Oct_11_1433,Experiment,2021.1.4,360.3993224481004,
,,,,,,,,,,,,,,,,,,,,,,,,,,,,,,,,,,,,,,,,,,,,,,,,,,,,,,,,,,,,,,,,,,,,,,,,,,,,,,,,,,,,,,244.17329869999958,None,space,33.216263099999196,,,,,,,,,,,,,,,,,,,,,,,,,,,,,,,,,,,,,,,,,,,,,,,,,,,,,,,,,,,,,,,,,,,,,,,,,,,20,001,1,21,400,400,2022_Oct_11_1433,Experiment,2021.1.4,360.3993224481004,
images\S10_M_S_02.png,images\S10_M_S_02_scrambled.png,10,sad,-20,male,2,,119,on,2,0.5,0.75,0.5,0.901,3,118,1,1,1,2,2,32,128,162,,,,,,0,0,0,0,,,,,,,,,,,,,,,,,,,,,,,,,,,,,,,,,,,,,,,,,,,,,,,,,,,,,,,,,277.8823286000006,278.3849845000004,278.3849845000004,279.1402640999986,279.1402640999986,279.6456986999983,279.6456986999983,280.55097340000066,280.55097340000066,None,num_4,0.3112693000002764,280.55097340000066,None,sad,0,Sad,280.87862569999925,None,None,280.87862569999925,None,,,,,,,,,,,,,,,,,,,,,,,,,,,,,,,,,,,,,,,,,,,,,,,,,,,,,20,001,1,21,400,400,2022_Oct_11_1433,Experiment,2021.1.4,360.3993224481004,
images\S1_F_S_03.png,images\S1_F_S_03_scrambled.png,1,sad,-30,female,1,,66,on,2,0.5,0.75,0.5,0.802,3,65,2,1,1,2,2,32,128,161,,,,,,0,1,1,1,,,,,,,,,,,,,,,,,,,,,,,,,,,,,,,,,,,,,,,,,,,,,,,,,,,,,,,,,280.92584929999794,281.43124819999866,281.43124819999866,282.18656399999963,282.18656399999963,282.6892685999992,282.6892685999992,283.4972607999989,283.4972607999989,None,num_4,0.37276399999973364,283.4972607999989,None,sad,0,Sad,283.88604940000005,None,None,283.88604940000005,None,,,,,,,,,,,,,,,,,,,,,,,,,,,,,,,,,,,,,,,,,,,,,,,,,,,,,20,001,1,21,400,400,2022_Oct_11_1433,Experiment,2021.1.4,360.3993224481004,
images\S5_F_H_01.png,images\S5_F_H_01_scrambled.png,5,happy,10,female,4,,385,off,1,0.5,0.75,0.5,0.851,3,384,1,1,1,0,0,0,0,4,,,,,,0,2,2,2,,,,,,,,,,,,,,,,,,,,,,,,,,,,,,,,,,,,,,,,,,,,,,,,,,,,,,,,,283.9332312000006,284.43587489999845,284.43587489999845,285.19119619999765,285.19119619999765,285.69381149999754,285.69381149999754,286.5491775999981,286.5491775999981,None,num_6,0.36112340000181575,286.5491775999981,None,happy,0,Happy,286.9267568399984,None,None,286.9267568399984,None,,,,,,,,,,,,,,,,,,,,,,,,,,,,,,,,,,,,,,,,,,,,,,,,,,,,,20,001,1,21,400,400,2022_Oct_11_1433,Experiment,2021.1.4,360.3993224481004,
images\S7_F_H_01.png,images\S7_F_H_01_scrambled.png,7,happy,10,female,4,,577,on,2,0.5,0.75,0.5,0.858,3,576,1,1,2,2,2,32,128,164,,,,,,0,3,3,3,,,,,,,,,,,,,,,,,,,,,,,,,,,,,,,,,,,,,,,,,,,,,,,,,,,,,,,,,286.97673829999985,287.4793645999998,287.4793645999998,288.2347082999986,288.2347082999986,288.7373090999972,288.7373090999972,289.5981728000006,289.5981728000006,None,num_6,0.6642618000005314,289.5981728000006,None,happy,0,Happy,290.27571753999945,None,None,290.27571753999945,None,,,,,,,,,,,,,,,,,,,,,,,,,,,,,,,,,,,,,,,,,,,,,,,,,,,,,20,001,1,21,400,400,2022_Oct_11_1433,Experiment,2021.1.4,360.3993224481004,
images\S9_F_H_01.png,images\S9_F_H_01_scrambled.png,9,happy,10,female,4,,169,off,1,0.5,0.75,0.5,0.856,3,168,1,1,3,0,0,0,0,4,,,,,,0,4,4,4,,,,,,,,,,,,,,,,,,,,,,,,,,,,,,,,,,,,,,,,,,,,,,,,,,,,,,,,,290.32292289999896,290.8227721000003,290.8227721000003,291.57255429999714,291.57255429999714,292.07519879999745,292.07519879999745,292.93602909999754,292.93602909999754,None,num_6,0.4542070000024978,292.93602909999754,None,happy,0,Happy,293.4053176400004,None,None,293.4053176400004,None,,,,,,,,,,,,,,,,,,,,,,,,,,,,,,,,,,,,,,,,,,,,,,,,,,,,,20,001,1,21,400,400,2022_Oct_11_1433,Experiment,2021.1.4,360.3993224481004,
images\S8_M_H_03.png,images\S8_M_H_03_scrambled.png,8,happy,30,male,6,,345,on,2,0.5,0.75,0.5,0.787,3,344,1,1,1,2,2,32,128,166,,,,,,0,5,5,5,,,,,,,,,,,,,,,,,,,,,,,,,,,,,,,,,,,,,,,,,,,,,,,,,,,,,,,,,293.4525135999975,293.95517859999745,293.95517859999745,294.7077212999975,294.7077212999975,295.21033239999815,295.21033239999815,296.0045567999987,296.0045567999987,None,num_6,0.24987440000040806,296.0045567999987,None,happy,0,Happy,296.26827813999915,None,None,296.26827813999915,None,,,,,,,,,,,,,,,,,,,,,,,,,,,,,,,,,,,,,,,,,,,,,,,,,,,,,20,001,1,21,400,400,2022_Oct_11_1433,Experiment,2021.1.4,360.3993224481004,
images\S1_F_H_02.png,images\S1_F_H_02_scrambled.png,1,happy,20,female,5,,122,off,1,0.5,0.75,0.5,0.751,3,121,1,1,1,0,0,0,0,5,,,,,,0,6,6,6,,,,,,,,,,,,,,,,,,,,,,,,,,,,,,,,,,,,,,,,,,,,,,,,,,,,,,,,,296.31551949999994,296.8182893999983,296.8182893999983,297.57358530000056,297.57358530000056,298.0761144999997,298.0761144999997,298.8342856999989,298.8342856999989,None,num_6,0.3640522999994573,298.8342856999989,None,happy,0,Happy,299.2257443400005,None,None,299.2257443400005,None,,,,,,,,,,,,,,,,,,,,,,,,,,,,,,,,,,,,,,,,,,,,,,,,,,,,,20,001,1,21,400,400,2022_Oct_11_1433,Experiment,2021.1.4,360.3993224481004,
images\blank.jpg,images\blank.jpg,none,none,none,none,0,,612,on,2,0.5,0.75,0.5,0.766,0,611,1,1,1,3,3,48,192,240,,,,,,0,7,7,7,,,,,,,,,,,,,,,,,,,,,,,,,,,,,,,,,,,,,,,,,,,,,,,,,,,,,,,,,299.3177577999995,299.82003189999887,299.82003189999887,300.57533969999713,300.57533969999713,301.0807419999983,301.0807419999983,301.8471688999998,301.8471688999998,301.8471688999998,None,,301.8471688999998,None,miss,0,,304.85183631999973,None,None,304.85183631999973,None,,,,,,,,,,,,,,,,,,,,,,,,,,,,,,,,,,,,,,,,,,,,,,,,,,,,,20,001,1,21,400,400,2022_Oct_11_1433,Experiment,2021.1.4,360.3993224481004,
images\S9_F_H_03.png,images\S9_F_H_03_scrambled.png,9,happy,30,female,6,,111,on,2,0.5,0.75,0.5,0.864,3,110,2,1,1,2,2,32,128,166,,,,,,0,8,8,8,,,,,,,,,,,,,,,,,,,,,,,,,,,,,,,,,,,,,,,,,,,,,,,,,,,,,,,,,304.9714234999992,305.4738240000006,305.4738240000006,306.2263630999987,306.2263630999987,306.7290963999985,306.7290963999985,307.5953907999974,307.5953907999974,None,num_6,0.24275959999795305,307.5953907999974,304.9714234999992,happy,0,Happy,307.8480832399975,None,None,307.8480832399975,None,,,,,,,,,,,,,,,,,,,,,,,,,,,,,,,,,,,,,,,,,,,,,,,,,,,,,20,001,1,21,400,400,2022_Oct_11_1433,Experiment,2021.1.4,360.3993224481004,
images\S4_M_S_03.png,images\S4_M_S_03_scrambled.png,4,sad,-30,male,1,,24,off,1,0.5,0.75,0.5,0.872,3,23,1,1,1,0,0,0,0,1,,,,,,0,9,9,9,,,,,,,,,,,,,,,,,,,,,,,,,,,,,,,,,,,,,,,,,,,,,,,,,,,,,,,,,307.8952752999976,308.39511539999876,308.39511539999876,309.1448882000004,309.1448882000004,309.6475059000004,309.6475059000004,310.52224269999715,310.52224269999715,None,num_4,0.30034969999906025,310.52224269999715,None,sad,0,Sad,310.8444785199987,None,None,310.8444785199987,None,,,,,,,,,,,,,,,,,,,,,,,,,,,,,,,,,,,,,,,,,,,,,,,,,,,,,20,001,1,21,400,400,2022_Oct_11_1433,Experiment,2021.1.4,360.3993224481004,
images\blank.jpg,images\blank.jpg,none,none,none,none,0,,621,on,2,0.5,0.75,0.5,0.827,0,620,1,1,1,3,3,48,192,240,,,,,,0,10,10,10,,,,,,,,,,,,,,,,,,,,,,,,,,,,,,,,,,,,,,,,,,,,,,,,,,,,,,,,,310.94457200000033,311.44420829999945,311.44420829999945,312.1939663999983,312.1939663999983,312.6965663999981,312.6965663999981,313.52968669999973,313.52968669999973,313.52968669999973,None,,313.52968669999973,None,miss,0,,316.5315651199977,None,None,316.5315651199977,None,,,,,,,,,,,,,,,,,,,,,,,,,,,,,,,,,,,,,,,,,,,,,,,,,,,,,20,001,1,21,400,400,2022_Oct_11_1433,Experiment,2021.1.4,360.3993224481004,
images\blank.jpg,images\blank.jpg,none,none,none,none,0,,634,on,2,0.5,0.75,0.5,0.782,0,633,2,2,2,3,3,48,192,240,,,,,,0,11,11,11,,,,,,,,,,,,,,,,,,,,,,,,,,,,,,,,,,,,,,,,,,,,,,,,,,,,,,,,,316.5592945999997,317.064699999999,317.064699999999,317.82002179999836,317.82002179999836,318.32263579999926,318.32263579999926,319.1084701,319.1084701,319.1084701,None,,319.1084701,316.5592945999997,miss,0,,322.11316601999863,None,None,322.11316601999863,None,,,,,,,,,,,,,,,,,,,,,,,,,,,,,,,,,,,,,,,,,,,,,,,,,,,,,20,001,1,21,400,400,2022_Oct_11_1433,Experiment,2021.1.4,360.3993224481004,
images\S3_F_S_01.png,images\S3_F_S_01_scrambled.png,3,sad,-10,female,3,,556,on,2,0.5,0.75,0.5,0.909,3,555,3,1,1,2,2,32,128,163,,,,,,0,12,12,12,,,,,,,,,,,,,,,,,,,,,,,,,,,,,,,,,,,,,,,,,,,,,,,,,,,,,,,,,322.23548559999836,322.73791509999865,322.73791509999865,323.49336309999853,323.49336309999853,323.99876799999765,323.99876799999765,324.9095060999971,324.9095060999971,None,num_4,0.2727783999980602,324.9095060999971,322.23548559999836,sad,0,Sad,325.1954890400004,None,None,325.1954890400004,None,,,,,,,,,,,,,,,,,,,,,,,,,,,,,,,,,,,,,,,,,,,,,,,,,,,,,20,001,1,21,400,400,2022_Oct_11_1433,Experiment,2021.1.4,360.3993224481004,
images\S5_F_S_01.png,images\S5_F_S_01_scrambled.png,5,sad,-10,female,3,,388,off,1,0.5,0.75,0.5,0.917,3,387,1,1,2,0,0,0,0,3,,,,,,0,13,13,13,,,,,,,,,,,,,,,,,,,,,,,,,,,,,,,,,,,,,,,,,,,,,,,,,,,,,,,,,325.2426940000005,325.74253939999835,325.74253939999835,326.4923373999991,326.4923373999991,326.99496569999974,326.99496569999974,327.9140980999982,327.9140980999982,None,num_6,0.4521820999980264,327.9140980999982,None,happy,0,Sad,328.37505721999844,None,None,328.37505721999844,None,,,,,,,,,,,,,,,,,,,,,,,,,,,,,,,,,,,,,,,,,,,,,,,,,,,,,20,001,1,21,400,400,2022_Oct_11_1433,Experiment,2021.1.4,360.3993224481004,
images\S1_F_H_01.png,images\S1_F_H_01_scrambled.png,1,happy,10,female,4,,481,off,1,0.5,0.75,0.5,0.855,3,480,2,1,1,0,0,0,0,4,,,,,,0,14,14,14,,,,,,,,,,,,,,,,,,,,,,,,,,,,,,,,,,,,,,,,,,,,,,,,,,,,,,,,,328.42227189999903,328.9248857999992,328.9248857999992,329.67747469999813,329.67747469999813,330.1772867999971,330.1772867999971,331.0353861000003,331.0353861000003,None,num_6,0.2588806999992812,331.0353861000003,None,happy,0,Happy,331.31026413999933,None,None,331.31026413999933,None,,,,,,,,,,,,,,,,,,,,,,,,,,,,,,,,,,,,,,,,,,,,,,,,,,,,,20,001,1,21,400,400,2022_Oct_11_1433,Experiment,2021.1.4,360.3993224481004,
images\S10_M_H_03.png,images\S10_M_H_03_scrambled.png,10,happy,30,male,6,,417,off,1,0.5,0.75,0.5,0.88,3,416,3,1,1,0,0,0,0,6,,,,,,0,15,15,15,,,,,,,,,,,,,,,,,,,,,,,,,,,,,,,,,,,,,,,,,,,,,,,,,,,,,,,,,331.3574693999981,331.8601271000007,331.8601271000007,332.6126747999988,332.6126747999988,333.11811829999715,333.11811829999715,334.00110420000055,334.00110420000055,None,num_6,0.2131305999973847,334.00110420000055,None,happy,0,Happy,334.2399269799993,None,None,334.2399269799993,None,,,,,,,,,,,,,,,,,,,,,,,,,,,,,,,,,,,,,,,,,,,,,,,,,,,,,20,001,1,21,400,400,2022_Oct_11_1433,Experiment,2021.1.4,360.3993224481004,
images\S7_F_S_02.png,images\S7_F_S_02_scrambled.png,7,sad,-20,female,2,,41,off,1,0.5,0.75,0.5,0.841,3,40,4,1,1,0,0,0,0,2,,,,,,0,16,16,16,,,,,,,,,,,,,,,,,,,,,,,,,,,,,,,,,,,,,,,,,,,,,,,,,,,,,,,,,334.3092711999998,334.8147771999975,334.8147771999975,335.57009619999735,335.57009619999735,336.07548339999994,336.07548339999994,336.9196343000003,336.9196343000003,None,num_4,0.2385945999994874,336.9196343000003,None,sad,0,Sad,337.17231543999804,None,None,337.17231543999804,None,,,,,,,,,,,,,,,,,,,,,,,,,,,,,,,,,,,,,,,,,,,,,,,,,,,,,20,001,1,21,400,400,2022_Oct_11_1433,Experiment,2021.1.4,360.3993224481004,
images\S5_F_H_02.png,images\S5_F_H_02_scrambled.png,5,happy,20,female,5,,506,off,1,0.5,0.75,0.5,0.899,3,505,5,1,1,0,0,0,0,5,,,,,,0,17,17,17,,,,,,,,,,,,,,,,,,,,,,,,,,,,,,,,,,,,,,,,,,,,,,,,,,,,,,,,,337.219549999998,337.72217929999897,337.72217929999897,338.47194579999996,338.47194579999996,338.97456109999985,338.97456109999985,339.87988459999906,339.87988459999906,None,num_6,0.2387882000002719,339.87988459999906,None,happy,0,Happy,340.138201020001,None,None,340.138201020001,None,,,,,,,,,,,,,,,,,,,,,,,,,,,,,,,,,,,,,,,,,,,,,,,,,,,,,20,001,1,21,400,400,2022_Oct_11_1433,Experiment,2021.1.4,360.3993224481004,
images\blank.jpg,images\blank.jpg,none,none,none,none,0,,639,on,2,0.5,0.75,0.5,0.867,0,638,1,1,1,3,3,48,192,240,,,,,,0,18,18,18,,,,,,,,,,,,,,,,,,,,,,,,,,,,,,,,,,,,,,,,,,,,,,,,,,,,,,,,,340.2243611999984,340.72402169999987,340.72402169999987,341.4765630999973,341.4765630999973,341.9792739000004,341.9792739000004,342.84558919999836,342.84558919999836,342.84558919999836,None,,342.84558919999836,None,miss,0,,345.8474574199987,None,None,345.8474574199987,None,,,,,,,,,,,,,,,,,,,,,,,,,,,,,,,,,,,,,,,,,,,,,,,,,,,,,20,001,1,21,400,400,2022_Oct_11_1433,Experiment,2021.1.4,360.3993224481004,
images\S3_F_S_03.png,images\S3_F_S_03_scrambled.png,3,sad,-30,female,1,,78,on,2,0.5,0.75,0.5,0.878,3,77,2,1,1,2,2,32,128,161,,,,,,0,19,19,19,,,,,,,,,,,,,,,,,,,,,,,,,,,,,,,,,,,,,,,,,,,,,,,,,,,,,,,,,345.9615393999993,346.4640481999995,346.4640481999995,347.21370009999737,347.21370009999737,347.71916469999996,347.71916469999996,348.59940709999864,348.59940709999864,None,num_4,0.28653879999910714,348.59940709999864,345.9615393999993,sad,0,Sad,348.89651754000005,None,None,348.89651754000005,None,,,,,,,,,,,,,,,,,,,,,,,,,,,,,,,,,,,,,,,,,,,,,,,,,,,,,20,001,1,21,400,400,2022_Oct_11_1433,Experiment,2021.1.4,360.3993224481004,
images\S5_F_S_02.png,images\S5_F_S_02_scrambled.png,5,sad,-20,female,2,,149,off,1,0.5,0.75,0.5,0.924,3,148,1,1,1,0,0,0,0,2,,,,,,0,20,20,20,,,,,,,,,,,,,,,,,,,,,,,,,,,,,,,,,,,,,,,,,,,,,,,,,,,,,,,,,348.94369519999964,349.446323199998,349.446323199998,350.19608979999975,350.19608979999975,350.6987291000005,350.6987291000005,351.6290795999994,351.6290795999994,None,num_6,0.34550300000046263,351.6290795999994,None,happy,0,Sad,351.98449312000014,None,None,351.98449312000014,None,,,,,,,,,,,,,,,,,,,,,,,,,,,,,,,,,,,,,,,,,,,,,,,,,,,,,20,001,1,21,400,400,2022_Oct_11_1433,Experiment,2021.1.4,360.3993224481004,
images\S5_F_H_03.png,images\S5_F_H_03_scrambled.png,5,happy,30,female,6,,87,on,2,0.5,0.75,0.5,0.887,3,86,1,2,1,2,2,32,128,166,,,,,,0,21,21,21,,,,,,,,,,,,,,,,,,,,,,,,,,,,,,,,,,,,,,,,,,,,,,,,,,,,,,,,,352.05106819999855,352.5538452999972,352.5538452999972,353.30625599999985,353.30625599999985,353.8060975999979,353.8060975999979,354.6975179000001,354.6975179000001,None,num_6,0.31741369999872404,354.6975179000001,None,happy,0,Happy,355.03644101999964,None,None,355.03644101999964,None,,,,,,,,,,,,,,,,,,,,,,,,,,,,,,,,,,,,,,,,,,,,,,,,,,,,,20,001,1,21,400,400,2022_Oct_11_1433,Experiment,2021.1.4,360.3993224481004,
images\S6_M_H_03.png,images\S6_M_H_03_scrambled.png,6,happy,30,male,6,,333,on,2,0.5,0.75,0.5,0.937,3,332,2,1,2,2,2,32,128,166,,,,,,0,22,22,22,,,,,,,,,,,,,,,,,,,,,,,,,,,,,,,,,,,,,,,,,,,,,,,,,,,,,,,,,355.0890306000001,355.5916658999995,355.5916658999995,356.3442628999983,356.3442628999983,356.84963399999833,356.84963399999833,357.7938738999983,357.7938738999983,None,num_6,0.24412440000014612,357.7938738999983,None,happy,0,Happy,358.0492529399991,None,None,358.0492529399991,None,,,,,,,,,,,,,,,,,,,,,,,,,,,,,,,,,,,,,,,,,,,,,,,,,,,,,20,001,1,21,400,400,2022_Oct_11_1433,Experiment,2021.1.4,360.3993224481004,
images\S7_F_S_03.png,images\S7_F_S_03_scrambled.png,7,sad,-30,female,1,,162,off,1,0.5,0.75,0.5,0.813,3,161,1,1,1,0,0,0,0,1,,,,,,0,23,23,23,,,,,,,,,,,,,,,,,,,,,,,,,,,,,,,,,,,,,,,,,,,,,,,,,,,,,,,,,358.0992135999986,358.60463679999884,358.60463679999884,359.3544038999971,359.3544038999971,359.8570120999975,359.8570120999975,360.67620859999806,360.67620859999806,None,num_4,0.2899762000015471,360.67620859999806,None,sad,0,Sad,360.9788561399975,None,None,360.9788561399975,None,,,,,,,,,,,,,,,,,,,,,,,,,,,,,,,,,,,,,,,,,,,,,,,,,,,,,20,001,1,21,400,400,2022_Oct_11_1433,Experiment,2021.1.4,360.3993224481004,
images\S2_M_S_01.png,images\S2_M_S_01_scrambled.png,2,sad,-10,male,3,,250,off,1,0.5,0.75,0.5,0.778,3,249,2,1,1,0,0,0,0,3,,,,,,0,24,24,24,,,,,,,,,,,,,,,,,,,,,,,,,,,,,,,,,,,,,,,,,,,,,,,,,,,,,,,,,361.02886269999726,361.5343047999995,361.5343047999995,362.28404229999796,362.28404229999796,362.78947340000013,362.78947340000013,363.5697803000003,363.5697803000003,None,num_4,0.5002711000015552,363.5697803000003,None,sad,0,Sad,364.09455397999994,None,None,364.09455397999994,None,,,,,,,,,,,,,,,,,,,,,,,,,,,,,,,,,,,,,,,,,,,,,,,,,,,,,20,001,1,21,400,400,2022_Oct_11_1433,Experiment,2021.1.4,360.3993224481004,
images\blank.jpg,images\blank.jpg,none,none,none,none,0,,608,on,2,0.5,0.75,0.5,0.944,0,607,1,1,1,3,3,48,192,240,,,,,,0,25,25,25,,,,,,,,,,,,,,,,,,,,,,,,,,,,,,,,,,,,,,,,,,,,,,,,,,,,,,,,,364.1809031999983,364.6860823999996,364.6860823999996,365.4387323999981,365.4387323999981,365.93848069999876,365.93848069999876,366.88263150000057,366.88263150000057,366.88263150000057,None,,366.88263150000057,None,miss,0,,369.88726112000006,None,None,369.88726112000006,None,,,,,,,,,,,,,,,,,,,,,,,,,,,,,,,,,,,,,,,,,,,,,,,,,,,,,20,001,1,21,400,400,2022_Oct_11_1433,Experiment,2021.1.4,360.3993224481004,
images\S4_M_H_03.png,images\S4_M_H_03_scrambled.png,4,happy,30,male,6,,381,off,1,0.5,0.75,0.5,0.757,3,380,1,1,1,0,0,0,0,6,,,,,,0,26,26,26,,,,,,,,,,,,,,,,,,,,,,,,,,,,,,,,,,,,,,,,,,,,,,,,,,,,,,,,,369.99850479999805,370.50094909999825,370.50094909999825,371.25626329999795,371.25626329999795,371.75901109999904,371.75901109999904,372.5225584999971,372.5225584999971,None,num_6,0.267587000002095,372.5225584999971,369.99850479999805,happy,0,Happy,372.8002465399979,None,None,372.8002465399979,None,,,,,,,,,,,,,,,,,,,,,,,,,,,,,,,,,,,,,,,,,,,,,,,,,,,,,20,001,1,21,400,400,2022_Oct_11_1433,Experiment,2021.1.4,360.3993224481004,
images\S10_M_H_02.png,images\S10_M_H_02_scrambled.png,10,happy,20,male,5,,356,on,2,0.5,0.75,0.5,0.855,3,355,1,1,1,2,2,32,128,165,,,,,,0,27,27,27,,,,,,,,,,,,,,,,,,,,,,,,,,,,,,,,,,,,,,,,,,,,,,,,,,,,,,,,,372.84742879999976,373.3500529999983,373.3500529999983,374.1054019999974,374.1054019999974,374.6107921999974,374.6107921999974,375.47163100000034,375.47163100000034,None,num_6,0.22272979999979725,375.47163100000034,None,happy,0,Happy,375.7049030400005,None,None,375.7049030400005,None,,,,,,,,,,,,,,,,,,,,,,,,,,,,,,,,,,,,,,,,,,,,,,,,,,,,,20,001,1,21,400,400,2022_Oct_11_1433,Experiment,2021.1.4,360.3993224481004,
images\S10_M_H_01.png,images\S10_M_H_01_scrambled.png,10,happy,10,male,4,,175,off,1,0.5,0.75,0.5,0.916,3,174,1,2,1,0,0,0,0,4,,,,,,0,28,28,28,,,,,,,,,,,,,,,,,,,,,,,,,,,,,,,,,,,,,,,,,,,,,,,,,,,,,,,,,375.7520893000001,376.25471579999794,376.25471579999794,377.01007709999976,377.01007709999976,377.50991339999746,377.50991339999746,378.4291262000006,378.4291262000006,None,num_6,0.2490044999976817,378.4291262000006,None,happy,0,Happy,378.6928528399978,None,None,378.6928528399978,None,,,,,,,,,,,,,,,,,,,,,,,,,,,,,,,,,,,,,,,,,,,,,,,,,,,,,20,001,1,21,400,400,2022_Oct_11_1433,Experiment,2021.1.4,360.3993224481004,
images\blank.jpg,images\blank.jpg,none,none,none,none,0,,641,on,2,0.5,0.75,0.5,0.903,0,640,1,1,1,3,3,48,192,240,,,,,,0,29,29,29,,,,,,,,,,,,,,,,,,,,,,,,,,,,,,,,,,,,,,,,,,,,,,,,,,,,,,,,,378.77637609999874,379.27891239999735,379.27891239999735,380.0341837999986,380.0341837999986,380.5395434999991,380.5395434999991,381.44204049999826,381.44204049999826,381.44204049999826,None,,381.44204049999826,None,miss,0,,384.4410881599986,None,None,384.4410881599986,None,,,,,,,,,,,,,,,,,,,,,,,,,,,,,,,,,,,,,,,,,,,,,,,,,,,,,20,001,1,21,400,400,2022_Oct_11_1433,Experiment,2021.1.4,360.3993224481004,
images\S2_M_H_02.png,images\S2_M_H_02_scrambled.png,2,happy,20,male,5,,128,off,1,0.5,0.75,0.5,0.928,3,127,1,1,1,0,0,0,0,5,,,,,,0,30,30,30,,,,,,,,,,,,,,,,,,,,,,,,,,,,,,,,,,,,,,,,,,,,,,,,,,,,,,,,,384.5551412999994,385.0575451000004,385.0575451000004,385.8100873000003,385.8100873000003,386.3155182999981,386.3155182999981,387.24578649999967,387.24578649999967,None,num_6,0.28042529999947874,387.24578649999967,384.5551412999994,happy,0,Happy,387.5401507399976,None,None,387.5401507399976,None,,,,,,,,,,,,,,,,,,,,,,,,,,,,,,,,,,,,,,,,,,,,,,,,,,,,,20,001,1,21,400,400,2022_Oct_11_1433,Experiment,2021.1.4,360.3993224481004,
images\S6_M_S_01.png,images\S6_M_S_01_scrambled.png,6,sad,-10,male,3,,94,on,2,0.5,0.75,0.5,0.947,3,93,1,1,1,2,2,32,128,163,,,,,,0,31,31,31,,,,,,,,,,,,,,,,,,,,,,,,,,,,,,,,,,,,,,,,,,,,,,,,,,,,,,,,,387.5873193999978,388.0871748999998,388.0871748999998,388.8369378999996,388.8369378999996,389.3395657999972,389.3395657999972,390.2892935999989,390.2892935999989,None,num_4,0.28495140000086394,390.2892935999989,None,sad,0,Sad,390.5891690399978,None,None,390.5891690399978,None,,,,,,,,,,,,,,,,,,,,,,,,,,,,,,,,,,,,,,,,,,,,,,,,,,,,,20,001,1,21,400,400,2022_Oct_11_1433,Experiment,2021.1.4,360.3993224481004,
images\S8_M_H_02.png,images\S8_M_H_02_scrambled.png,8,happy,20,male,5,,44,off,1,0.5,0.75,0.5,0.949,3,43,1,1,1,0,0,0,0,5,,,,,,0,32,32,32,,,,,,,,,,,,,,,,,,,,,,,,,,,,,,,,,,,,,,,,,,,,,,,,,,,,,,,,,390.6530638000004,391.1528819999985,391.1528819999985,391.90269289999924,391.90269289999924,392.4053064,392.4053064,393.3549829000003,393.3549829000003,None,num_6,0.28405969999948866,393.3549829000003,None,happy,0,Happy,393.66332438000103,None,None,393.66332438000103,None,,,,,,,,,,,,,,,,,,,,,,,,,,,,,,,,,,,,,,,,,,,,,,,,,,,,,20,001,1,21,400,400,2022_Oct_11_1433,Experiment,2021.1.4,360.3993224481004,
images\S2_M_H_03.png,images\S2_M_H_03_scrambled.png,2,happy,30,male,6,,69,on,2,0.5,0.75,0.5,0.846,3,68,1,1,1,2,2,32,128,166,,,,,,0,33,33,33,,,,,,,,,,,,,,,,,,,,,,,,,,,,,,,,,,,,,,,,,,,,,,,,,,,,,,,,,393.71596769999815,394.2213794999989,394.2213794999989,394.9767197999972,394.9767197999972,395.47934890000033,395.47934890000033,396.3291446000003,396.3291446000003,None,num_6,0.3573861999975634,396.3291446000003,None,happy,0,Happy,396.7040574999992,None,None,396.7040574999992,None,,,,,,,,,,,,,,,,,,,,,,,,,,,,,,,,,,,,,,,,,,,,,,,,,,,,,20,001,1,21,400,400,2022_Oct_11_1433,Experiment,2021.1.4,360.3993224481004,
images\blank.jpg,images\blank.jpg,none,none,none,none,0,,633,on,2,0.5,0.75,0.5,0.918,0,632,2,1,1,3,3,48,192,240,,,,,,0,34,34,34,,,,,,,,,,,,,,,,,,,,,,,,,,,,,,,,,,,,,,,,,,,,,,,,,,,,,,,,,396.78752560000066,397.2898834999978,397.2898834999978,398.03964970000015,398.03964970000015,398.54508599999826,398.54508599999826,399.46700769999734,399.46700769999734,399.46700769999734,None,,399.46700769999734,None,miss,0,,402.4660737599996,None,None,402.4660737599996,None,,,,,,,,,,,,,,,,,,,,,,,,,,,,,,,,,,,,,,,,,,,,,,,,,,,,,20,001,1,21,400,400,2022_Oct_11_1433,Experiment,2021.1.4,360.3993224481004,
images\S7_F_S_01.png,images\S7_F_S_01_scrambled.png,7,sad,-10,female,3,,40,off,1,0.5,0.75,0.5,0.802,3,39,1,1,1,0,0,0,0,3,,,,,,0,35,35,35,,,,,,,,,,,,,,,,,,,,,,,,,,,,,,,,,,,,,,,,,,,,,,,,,,,,,,,,,402.58007910000015,403.0853320999995,403.0853320999995,403.8379716999989,403.8379716999989,404.3404754000003,404.3404754000003,405.14579779999985,405.14579779999985,None,num_4,0.22024980000060168,405.14579779999985,402.58007910000015,sad,0,Sad,405.38738431999957,None,None,405.38738431999957,None,,,,,,,,,,,,,,,,,,,,,,,,,,,,,,,,,,,,,,,,,,,,,,,,,,,,,20,001,1,21,400,400,2022_Oct_11_1433,Experiment,2021.1.4,360.3993224481004,
images\S10_M_H_02.png,images\S10_M_H_02_scrambled.png,10,happy,20,male,5,,116,on,2,0.5,0.75,0.5,0.778,3,115,1,1,1,2,2,32,128,165,,,,,,0,36,36,36,,,,,,,,,,,,,,,,,,,,,,,,,,,,,,,,,,,,,,,,,,,,,,,,,,,,,,,,,405.45402119999926,405.9538638999984,405.9538638999984,406.70922959999734,406.70922959999734,407.21463369999765,407.21463369999765,407.99494109999796,407.99494109999796,None,num_6,0.43516210000234423,407.99494109999796,None,happy,0,Happy,408.44200883999946,None,None,408.44200883999946,None,,,,,,,,,,,,,,,,,,,,,,,,,,,,,,,,,,,,,,,,,,,,,,,,,,,,,20,001,1,21,400,400,2022_Oct_11_1433,Experiment,2021.1.4,360.3993224481004,
images\blank.jpg,images\blank.jpg,none,none,none,none,0,,642,on,2,0.5,0.75,0.5,0.919,0,641,2,1,1,3,3,48,192,240,,,,,,0,37,37,37,,,,,,,,,,,,,,,,,,,,,,,,,,,,,,,,,,,,,,,,,,,,,,,,,,,,,,,,,408.52549949999957,409.02804520000063,409.02804520000063,409.7804914999979,409.7804914999979,410.28588189999937,410.28588189999937,411.21060919999945,411.21060919999945,411.21060919999945,None,,411.21060919999945,None,miss,0,,414.21244276,None,None,414.21244276,None,,,,,,,,,,,,,,,,,,,,,,,,,,,,,,,,,,,,,,,,,,,,,,,,,,,,,20,001,1,21,400,400,2022_Oct_11_1433,Experiment,2021.1.4,360.3993224481004,
images\S1_F_H_02.png,images\S1_F_H_02_scrambled.png,1,happy,20,female,5,,542,on,2,0.5,0.75,0.5,0.808,3,541,3,1,1,2,2,32,128,165,,,,,,0,38,38,38,,,,,,,,,,,,,,,,,,,,,,,,,,,,,,,,,,,,,,,,,,,,,,,,,,,,,,,,,414.3265272999997,414.8289901999997,414.8289901999997,415.5842709999997,415.5842709999997,416.0868941999979,416.0868941999979,416.89771420000034,416.89771420000034,None,num_6,0.33228759999838076,416.89771420000034,414.3265272999997,happy,0,Happy,417.2448224399988,None,None,417.2448224399988,None,,,,,,,,,,,,,,,,,,,,,,,,,,,,,,,,,,,,,,,,,,,,,,,,,,,,,20,001,1,21,400,400,2022_Oct_11_1433,Experiment,2021.1.4,360.3993224481004,
images\S6_M_H_03.png,images\S6_M_H_03_scrambled.png,6,happy,30,male,6,,273,off,1,0.5,0.75,0.5,0.913,3,272,1,1,1,0,0,0,0,6,,,,,,0,39,39,39,,,,,,,,,,,,,,,,,,,,,,,,,,,,,,,,,,,,,,,,,,,,,,,,,,,,,,,,,417.2920316999989,417.7947000999993,417.7947000999993,418.54719379999733,418.54719379999733,419.0470404000007,419.0470404000007,419.966225199998,419.966225199998,None,num_6,0.7437981000002765,419.966225199998,None,happy,0,Happy,420.7382226000009,None,None,420.7382226000009,None,,,,,,,,,,,,,,,,,,,,,,,,,,,,,,,,,,,,,,,,,,,,,,,,,,,,,20,001,1,21,400,400,2022_Oct_11_1433,Experiment,2021.1.4,360.3993224481004,
images\S9_F_H_02.png,images\S9_F_H_02_scrambled.png,9,happy,20,female,5,,350,on,2,0.5,0.75,0.5,0.948,3,349,1,1,1,2,2,32,128,165,,,,,,0,40,40,40,,,,,,,,,,,,,,,,,,,,,,,,,,,,,,,,,,,,,,,,,,,,,,,,,,,,,,,,,420.79372689999946,421.29917249999926,421.29917249999926,422.05168799999956,422.05168799999956,422.5543042999998,422.5543042999998,423.50408120000066,423.50408120000066,None,num_6,0.27002550000179326,423.50408120000066,None,happy,0,Happy,423.78724344000074,None,None,423.78724344000074,None,,,,,,,,,,,,,,,,,,,,,,,,,,,,,,,,,,,,,,,,,,,,,,,,,,,,,20,001,1,21,400,400,2022_Oct_11_1433,Experiment,2021.1.4,360.3993224481004,
images\S3_F_H_03.png,images\S3_F_H_03_scrambled.png,3,happy,30,female,6,,75,on,2,0.5,0.75,0.5,0.865,3,74,2,1,1,2,2,32,128,166,,,,,,0,41,41,41,,,,,,,,,,,,,,,,,,,,,,,,,,,,,,,,,,,,,,,,,,,,,,,,,,,,,,,,,423.8344572999995,424.33707850000064,424.33707850000064,425.08966039999723,425.08966039999723,425.59506019999753,425.59506019999753,426.4642677999982,426.4642677999982,None,num_6,0.1897038999995857,426.4642677999982,None,happy,0,Happy,426.66420683999894,None,None,426.66420683999894,None,,,,,,,,,,,,,,,,,,,,,,,,,,,,,,,,,,,,,,,,,,,,,,,,,,,,,20,001,1,21,400,400,2022_Oct_11_1433,Experiment,2021.1.4,360.3993224481004,
images\S10_M_H_03.png,images\S10_M_H_03_scrambled.png,10,happy,30,male,6,,597,on,2,0.5,0.75,0.5,0.855,3,596,3,1,2,2,2,32,128,166,,,,,,0,42,42,42,,,,,,,,,,,,,,,,,,,,,,,,,,,,,,,,,,,,,,,,,,,,,,,,,,,,,,,,,426.7280065999985,427.2306482999993,427.2306482999993,427.98331490000055,427.98331490000055,428.4887001999996,428.4887001999996,429.3494729999984,429.3494729999984,None,num_6,0.3685031000022718,429.3494729999984,None,happy,0,Happy,429.74929619999966,None,None,429.74929619999966,None,,,,,,,,,,,,,,,,,,,,,,,,,,,,,,,,,,,,,,,,,,,,,,,,,,,,,20,001,1,21,400,400,2022_Oct_11_1433,Experiment,2021.1.4,360.3993224481004,
images\S5_F_S_01.png,images\S5_F_S_01_scrambled.png,5,sad,-10,female,3,,148,off,1,0.5,0.75,0.5,0.823,3,147,1,1,1,0,0,0,0,3,,,,,,0,43,43,43,,,,,,,,,,,,,,,,,,,,,,,,,,,,,,,,,,,,,,,,,,,,,,,,,,,,,,,,,429.804831999998,430.3074519999973,430.3074519999973,431.0600266000001,431.0600266000001,431.5598897999989,431.5598897999989,432.3873648999979,432.3873648999979,None,num_4,0.35463399999935064,432.3873648999979,None,sad,0,Sad,432.7566718400005,None,None,432.7566718400005,None,,,,,,,,,,,,,,,,,,,,,,,,,,,,,,,,,,,,,,,,,,,,,,,,,,,,,20,001,1,21,400,400,2022_Oct_11_1433,Experiment,2021.1.4,360.3993224481004,
images\S3_F_S_01.png,images\S3_F_S_01_scrambled.png,3,sad,-10,female,3,,256,off,1,0.5,0.75,0.5,0.909,3,255,2,1,2,0,0,0,0,3,,,,,,0,44,44,44,,,,,,,,,,,,,,,,,,,,,,,,,,,,,,,,,,,,,,,,,,,,,,,,,,,,,,,,,432.80390669999906,433.30935189999946,433.30935189999946,434.0590833999995,434.0590833999995,434.5617545999994,434.5617545999994,435.47532990000036,435.47532990000036,None,num_4,0.23460250000061933,435.47532990000036,None,sad,0,Sad,435.7252293400008,None,None,435.7252293400008,None,,,,,,,,,,,,,,,,,,,,,,,,,,,,,,,,,,,,,,,,,,,,,,,,,,,,,20,001,1,21,400,400,2022_Oct_11_1433,Experiment,2021.1.4,360.3993224481004,
images\S1_F_H_03.png,images\S1_F_H_03_scrambled.png,1,happy,30,female,6,,483,off,1,0.5,0.75,0.5,0.925,3,482,3,1,1,0,0,0,0,6,,,,,,0,45,45,45,,,,,,,,,,,,,,,,,,,,,,,,,,,,,,,,,,,,,,,,,,,,,,,,,,,,,,,,,435.77243219999946,436.27228139999715,436.27228139999715,437.02203609999924,437.02203609999924,437.5218887999981,437.5218887999981,438.4494427999998,438.4494427999998,None,num_6,0.2446036000001186,438.4494427999998,None,happy,0,Happy,438.70487743999837,None,None,438.70487743999837,None,,,,,,,,,,,,,,,,,,,,,,,,,,,,,,,,,,,,,,,,,,,,,,,,,,,,,20,001,1,21,400,400,2022_Oct_11_1433,Experiment,2021.1.4,360.3993224481004,
images\S2_M_H_01.png,images\S2_M_H_01_scrambled.png,2,happy,10,male,4,,487,off,1,0.5,0.75,0.5,0.926,3,486,4,1,1,0,0,0,0,4,,,,,,0,46,46,46,,,,,,,,,,,,,,,,,,,,,,,,,,,,,,,,,,,,,,,,,,,,,,,,,,,,,,,,,438.75206889999754,439.25761240000065,439.25761240000065,440.00726550000036,440.00726550000036,440.50989819999813,440.50989819999813,441.44015229999786,441.44015229999786,None,num_4,0.23787979999906383,441.44015229999786,None,sad,0,Happy,441.68727911999815,None,None,441.68727911999815,None,,,,,,,,,,,,,,,,,,,,,,,,,,,,,,,,,,,,,,,,,,,,,,,,,,,,,20,001,1,21,400,400,2022_Oct_11_1433,Experiment,2021.1.4,360.3993224481004,
images\S9_F_H_02.png,images\S9_F_H_02_scrambled.png,9,happy,20,female,5,,50,off,1,0.5,0.75,0.5,0.945,3,49,5,1,1,0,0,0,0,5,,,,,,0,47,47,47,,,,,,,,,,,,,,,,,,,,,,,,,,,,,,,,,,,,,,,,,,,,,,,,,,,,,,,,,441.73448649999773,442.23991599999863,442.23991599999863,442.99246479999783,442.99246479999783,443.49226869999984,443.49226869999984,444.43924539999716,444.43924539999716,None,num_6,0.24694880000242847,444.43924539999716,None,happy,0,Happy,444.6975003399995,None,None,444.6975003399995,None,,,,,,,,,,,,,,,,,,,,,,,,,,,,,,,,,,,,,,,,,,,,,,,,,,,,,20,001,1,21,400,400,2022_Oct_11_1433,Experiment,2021.1.4,360.3993224481004,
images\S1_F_S_03.png,images\S1_F_S_03_scrambled.png,1,sad,-30,female,1,,186,on,2,0.5,0.75,0.5,0.882,3,185,1,1,1,2,2,32,128,161,,,,,,0,48,48,48,,,,,,,,,,,,,,,,,,,,,,,,,,,,,,,,,,,,,,,,,,,,,,,,,,,,,,,,,444.744632599999,445.2501068999991,445.2501068999991,446.0054098999972,446.0054098999972,446.50814139999784,446.50814139999784,447.39397839999947,447.39397839999947,None,num_4,0.22803470000144443,447.39397839999947,None,sad,0,Sad,447.63265944000085,None,None,447.63265944000085,None,,,,,,,,,,,,,,,,,,,,,,,,,,,,,,,,,,,,,,,,,,,,,,,,,,,,,20,001,1,21,400,400,2022_Oct_11_1433,Experiment,2021.1.4,360.3993224481004,
images\S6_M_H_03.png,images\S6_M_H_03_scrambled.png,6,happy,30,male,6,,513,off,1,0.5,0.75,0.5,0.845,3,512,1,1,1,0,0,0,0,6,,,,,,0,49,49,49,,,,,,,,,,,,,,,,,,,,,,,,,,,,,,,,,,,,,,,,,,,,,,,,,,,,,,,,,447.6798665999995,448.18529599999965,448.18529599999965,448.9406065999974,448.9406065999974,449.4432416999989,449.4432416999989,450.2902099999992,450.2902099999992,None,num_6,0.3001886999991257,450.2902099999992,None,happy,0,Happy,450.612389979999,None,None,450.612389979999,None,,,,,,,,,,,,,,,,,,,,,,,,,,,,,,,,,,,,,,,,,,,,,,,,,,,,,20,001,1,21,400,400,2022_Oct_11_1433,Experiment,2021.1.4,360.3993224481004,
images\S6_M_S_02.png,images\S6_M_S_02_scrambled.png,6,sad,-20,male,2,,155,off,1,0.5,0.75,0.5,0.773,3,154,2,2,1,0,0,0,0,2,,,,,,0,50,50,50,,,,,,,,,,,,,,,,,,,,,,,,,,,,,,,,,,,,,,,,,,,,,,,,,,,,,,,,,450.66784729999927,451.1704862000006,451.1704862000006,451.9257996999986,451.9257996999986,452.4284181000003,452.4284181000003,453.203157699998,453.203157699998,None,num_4,0.26712549999865587,453.203157699998,None,sad,0,Sad,453.4976147799993,None,None,453.4976147799993,None,,,,,,,,,,,,,,,,,,,,,,,,,,,,,,,,,,,,,,,,,,,,,,,,,,,,,20,001,1,21,400,400,2022_Oct_11_1433,Experiment,2021.1.4,360.3993224481004,
images\S7_F_H_01.png,images\S7_F_H_01_scrambled.png,7,happy,10,female,4,,337,on,2,0.5,0.75,0.5,0.939,3,336,1,1,1,2,2,32,128,164,,,,,,0,51,51,51,,,,,,,,,,,,,,,,,,,,,,,,,,,,,,,,,,,,,,,,,,,,,,,,,,,,,,,,,453.5502878999978,454.05011439999726,454.05011439999726,454.7998864000001,454.7998864000001,455.302657799999,455.302657799999,456.24396999999954,456.24396999999954,None,num_4,0.32998959999895305,456.24396999999954,None,sad,0,Happy,456.5826686199995,None,None,456.5826686199995,None,,,,,,,,,,,,,,,,,,,,,,,,,,,,,,,,,,,,,,,,,,,,,,,,,,,,,20,001,1,21,400,400,2022_Oct_11_1433,Experiment,2021.1.4,360.3993224481004,
images\S2_M_H_03.png,images\S2_M_H_03_scrambled.png,2,happy,30,male,6,,369,off,1,0.5,0.75,0.5,0.85,3,368,1,1,1,0,0,0,0,6,,,,,,0,52,52,52,,,,,,,,,,,,,,,,,,,,,,,,,,,,,,,,,,,,,,,,,,,,,,,,,,,,,,,,,456.6298792999987,457.12972499999887,457.12972499999887,457.8822884000001,457.8822884000001,458.38493670000025,458.38493670000025,459.2401757000007,459.2401757000007,None,num_6,0.34193819999927655,459.2401757000007,None,happy,0,Happy,459.59563813999847,None,None,459.59563813999847,None,,,,,,,,,,,,,,,,,,,,,,,,,,,,,,,,,,,,,,,,,,,,,,,,,,,,,20,001,1,21,400,400,2022_Oct_11_1433,Experiment,2021.1.4,360.3993224481004,
images\S9_F_S_01.png,images\S9_F_S_01_scrambled.png,9,sad,-10,female,3,,352,on,2,0.5,0.75,0.5,0.83,3,351,1,1,1,2,2,32,128,163,,,,,,0,53,53,53,,,,,,,,,,,,,,,,,,,,,,,,,,,,,,,,,,,,,,,,,,,,,,,,,,,,,,,,,459.6428376999975,460.1454578999983,460.1454578999983,460.89813180000056,460.89813180000056,461.4035279999989,461.4035279999989,462.2364923999994,462.2364923999994,None,num_4,0.30529789999854984,462.2364923999994,None,sad,0,Sad,462.5558637399983,None,None,462.5558637399983,None,,,,,,,,,,,,,,,,,,,,,,,,,,,,,,,,,,,,,,,,,,,,,,,,,,,,,20,001,1,21,400,400,2022_Oct_11_1433,Experiment,2021.1.4,360.3993224481004,
images\S7_F_S_02.png,images\S7_F_S_02_scrambled.png,7,sad,-20,female,2,,521,off,1,0.5,0.75,0.5,0.814,3,520,1,1,1,0,0,0,0,2,,,,,,0,54,54,54,,,,,,,,,,,,,,,,,,,,,,,,,,,,,,,,,,,,,,,,,,,,,,,,,,,,,,,,,462.603039499998,463.1029028999983,463.1029028999983,463.85542839999835,463.85542839999835,464.35819959999935,464.35819959999935,465.17450669999744,465.17450669999744,None,num_4,0.25530799999978626,465.17450669999744,None,sad,0,Sad,465.4410580399992,None,None,465.4410580399992,None,,,,,,,,,,,,,,,,,,,,,,,,,,,,,,,,,,,,,,,,,,,,,,,,,,,,,20,001,1,21,400,400,2022_Oct_11_1433,Experiment,2021.1.4,360.3993224481004,
images\S10_M_H_01.png,images\S10_M_H_01_scrambled.png,10,happy,10,male,4,,295,off,1,0.5,0.75,0.5,0.856,3,294,2,1,1,0,0,0,0,4,,,,,,0,55,55,55,,,,,,,,,,,,,,,,,,,,,,,,,,,,,,,,,,,,,,,,,,,,,,,,,,,,,,,,,465.48826629999894,465.9908923999974,465.9908923999974,466.74344980000023,466.74344980000023,467.2489714999974,467.2489714999974,468.1097058999985,468.1097058999985,None,num_6,0.12036860000080196,468.1097058999985,None,happy,0,Happy,468.2458335599993,None,None,468.2458335599993,None,,,,,,,,,,,,,,,,,,,,,,,,,,,,,,,,,,,,,,,,,,,,,,,,,,,,,20,001,1,21,400,400,2022_Oct_11_1433,Experiment,2021.1.4,360.3993224481004,
images\S8_M_S_02.png,images\S8_M_S_02_scrambled.png,8,sad,-20,male,2,,227,on,2,0.5,0.75,0.5,0.847,3,226,1,1,1,2,2,32,128,162,,,,,,0,56,56,56,,,,,,,,,,,,,,,,,,,,,,,,,,,,,,,,,,,,,,,,,,,,,,,,,,,,,,,,,468.29849789999935,468.8039987999982,468.8039987999982,469.5592644999997,469.5592644999997,470.0646536999993,470.0646536999993,470.91440180000063,470.91440180000063,None,num_4,0.2195153000029677,470.91440180000063,None,sad,0,Sad,471.1476140400002,None,None,471.1476140400002,None,,,,,,,,,,,,,,,,,,,,,,,,,,,,,,,,,,,,,,,,,,,,,,,,,,,,,20,001,1,21,400,400,2022_Oct_11_1433,Experiment,2021.1.4,360.3993224481004,
images\S3_F_S_03.png,images\S3_F_S_03_scrambled.png,3,sad,-30,female,1,,18,off,1,0.5,0.75,0.5,0.753,3,17,1,1,1,0,0,0,0,1,,,,,,0,57,57,57,,,,,,,,,,,,,,,,,,,,,,,,,,,,,,,,,,,,,,,,,,,,,,,,,,,,,,,,,471.225309999998,471.7280197,471.7280197,472.4777854999993,472.4777854999993,472.9804192999982,472.9804192999982,473.7386033999974,473.7386033999974,None,num_4,0.2753953999999794,473.7386033999974,None,sad,0,Sad,474.02728503999896,None,None,474.02728503999896,None,,,,,,,,,,,,,,,,,,,,,,,,,,,,,,,,,,,,,,,,,,,,,,,,,,,,,20,001,1,21,400,400,2022_Oct_11_1433,Experiment,2021.1.4,360.3993224481004,
images\S4_M_S_01.png,images\S4_M_S_01_scrambled.png,4,sad,-10,male,3,,442,on,2,0.5,0.75,0.5,0.898,3,441,1,1,1,2,2,32,128,163,,,,,,0,58,58,58,,,,,,,,,,,,,,,,,,,,,,,,,,,,,,,,,,,,,,,,,,,,,,,,,,,,,,,,,474.07726769999863,474.57993200000055,474.57993200000055,475.33256529999926,475.33256529999926,475.8350513999976,475.8350513999976,476.74035919999733,476.74035919999733,None,num_4,0.23400320000291686,476.74035919999733,None,sad,0,Sad,476.9874605399993,None,None,476.9874605399993,None,,,,,,,,,,,,,,,,,,,,,,,,,,,,,,,,,,,,,,,,,,,,,,,,,,,,,20,001,1,21,400,400,2022_Oct_11_1433,Experiment,2021.1.4,360.3993224481004,
images\S3_F_H_01.png,images\S3_F_H_01_scrambled.png,3,happy,10,female,4,,193,on,2,0.5,0.75,0.5,0.766,3,192,2,1,1,2,2,32,128,164,,,,,,0,59,59,59,,,,,,,,,,,,,,,,,,,,,,,,,,,,,,,,,,,,,,,,,,,,,,,,,,,,,,,,,477.03746449999744,477.54011320000063,477.54011320000063,478.29276000000027,478.29276000000027,478.7981514999992,478.7981514999992,479.56727730000057,479.56727730000057,None,num_4,0.3750304999994114,479.56727730000057,None,sad,0,Happy,479.95041831999845,None,None,479.95041831999845,None,,,,,,,,,,,,,,,,,,,,,,,,,,,,,,,,,,,,,,,,,,,,,,,,,,,,,20,001,1,21,400,400,2022_Oct_11_1433,Experiment,2021.1.4,360.3993224481004,
images\S6_M_S_01.png,images\S6_M_S_01_scrambled.png,6,sad,-10,male,3,,274,off,1,0.5,0.75,0.5,0.925,3,273,1,1,1,0,0,0,0,3,,,,,,0,60,60,60,,,,,,,,,,,,,,,,,,,,,,,,,,,,,,,,,,,,,,,,,,,,,,,,,,,,,,,,,480.0226578999973,480.5281744999993,480.5281744999993,481.2834889000005,481.2834889000005,481.7860166999999,481.7860166999999,482.71360659999846,482.71360659999846,None,num_4,0.31669119999787654,482.71360659999846,None,sad,0,Sad,483.05793538000074,None,None,483.05793538000074,None,,,,,,,,,,,,,,,,,,,,,,,,,,,,,,,,,,,,,,,,,,,,,,,,,,,,,20,001,1,21,400,400,2022_Oct_11_1433,Experiment,2021.1.4,360.3993224481004,
images\blank.jpg,images\blank.jpg,none,none,none,none,0,,624,on,2,0.5,0.75,0.5,0.784,0,623,1,1,1,3,3,48,192,240,,,,,,0,61,61,61,,,,,,,,,,,,,,,,,,,,,,,,,,,,,,,,,,,,,,,,,,,,,,,,,,,,,,,,,483.14688169999863,483.64931579999757,483.64931579999757,484.4046688999988,484.4046688999988,484.90728239999953,484.90728239999953,485.6932317999999,485.6932317999999,485.6932317999999,None,,485.6932317999999,None,miss,0,,488.6949884600006,None,None,488.6949884600006,None,,,,,,,,,,,,,,,,,,,,,,,,,,,,,,,,,,,,,,,,,,,,,,,,,,,,,20,001,1,21,400,400,2022_Oct_11_1433,Experiment,2021.1.4,360.3993224481004,
images\S8_M_H_03.png,images\S8_M_H_03_scrambled.png,8,happy,30,male,6,,405,off,1,0.5,0.75,0.5,0.788,3,404,1,1,1,0,0,0,0,6,,,,,,0,62,62,62,,,,,,,,,,,,,,,,,,,,,,,,,,,,,,,,,,,,,,,,,,,,,,,,,,,,,,,,,488.8090790999995,489.3114609000004,489.3114609000004,490.06403969999883,490.06403969999883,490.5694380999994,490.5694380999994,491.36371940000026,491.36371940000026,None,num_6,0.22622039999987464,491.36371940000026,488.8090790999995,happy,0,Happy,491.6024417399996,None,None,491.6024417399996,None,,,,,,,,,,,,,,,,,,,,,,,,,,,,,,,,,,,,,,,,,,,,,,,,,,,,,20,001,1,21,400,400,2022_Oct_11_1433,Experiment,2021.1.4,360.3993224481004,
images\S1_F_S_03.png,images\S1_F_S_03_scrambled.png,1,sad,-30,female,1,,486,off,1,0.5,0.75,0.5,0.875,3,485,2,1,1,0,0,0,0,1,,,,,,0,63,63,63,,,,,,,,,,,,,,,,,,,,,,,,,,,,,,,,,,,,,,,,,,,,,,,,,,,,,,,,,491.6496143999975,492.1550406999995,492.1550406999995,492.91036299999905,492.91036299999905,493.4129553999992,493.4129553999992,494.29048519999924,494.29048519999924,None,num_4,0.19573490000038873,494.29048519999924,None,sad,0,Sad,494.50161655999983,None,None,494.50161655999983,None,,,,,,,,,,,,,,,,,,,,,,,,,,,,,,,,,,,,,,,,,,,,,,,,,,,,,20,001,1,21,400,400,2022_Oct_11_1433,Experiment,2021.1.4,360.3993224481004,
images\S2_M_H_01.png,images\S2_M_H_01_scrambled.png,2,happy,10,male,4,,247,off,1,0.5,0.75,0.5,0.79,3,246,3,1,1,0,0,0,0,4,,,,,,0,64,64,64,,,,,,,,,,,,,,,,,,,,,,,,,,,,,,,,,,,,,,,,,,,,,,,,,,,,,,,,,494.55427289999716,495.059717199998,495.059717199998,495.81221469999946,495.81221469999946,496.31207039999936,496.31207039999936,497.1090793999974,497.1090793999974,None,num_4,0.26450929999919026,497.1090793999974,None,sad,0,Happy,497.3839547199983,None,None,497.3839547199983,None,,,,,,,,,,,,,,,,,,,,,,,,,,,,,,,,,,,,,,,,,,,,,,,,,,,,,20,001,1,21,400,400,2022_Oct_11_1433,Experiment,2021.1.4,360.3993224481004,
images\blank.jpg,images\blank.jpg,none,none,none,none,0,,646,on,2,0.5,0.75,0.5,0.802,0,645,1,1,1,3,3,48,192,240,,,,,,0,65,65,65,,,,,,,,,,,,,,,,,,,,,,,,,,,,,,,,,,,,,,,,,,,,,,,,,,,,,,,,,497.46745689999807,497.9671146999972,497.9671146999972,498.7196559999975,498.7196559999975,499.2250897999984,499.2250897999984,500.0275855999971,500.0275855999971,500.0275855999971,None,,500.0275855999971,None,miss,0,,503.02953542000034,None,None,503.02953542000034,None,,,,,,,,,,,,,,,,,,,,,,,,,,,,,,,,,,,,,,,,,,,,,,,,,,,,,20,001,1,21,400,400,2022_Oct_11_1433,Experiment,2021.1.4,360.3993224481004,
images\blank.jpg,images\blank.jpg,none,none,none,none,0,,635,on,2,0.5,0.75,0.5,0.766,0,634,2,2,2,3,3,48,192,240,,,,,,0,66,66,66,,,,,,,,,,,,,,,,,,,,,,,,,,,,,,,,,,,,,,,,,,,,,,,,,,,,,,,,,503.06277950000003,503.5653754999985,503.5653754999985,504.32072459999836,504.32072459999836,504.82611199999883,504.82611199999883,505.5925314999986,505.5925314999986,505.5925314999986,None,,505.5925314999986,503.06277950000003,miss,0,,508.59444651999877,None,None,508.59444651999877,None,,,,,,,,,,,,,,,,,,,,,,,,,,,,,,,,,,,,,,,,,,,,,,,,,,,,,20,001,1,21,400,400,2022_Oct_11_1433,Experiment,2021.1.4,360.3993224481004,
images\S9_F_S_03.png,images\S9_F_S_03_scrambled.png,9,sad,-30,female,1,,54,off,1,0.5,0.75,0.5,0.949,3,53,1,1,1,0,0,0,0,1,,,,,,0,67,67,67,,,,,,,,,,,,,,,,,,,,,,,,,,,,,,,,,,,,,,,,,,,,,,,,,,,,,,,,,508.7168356000002,509.21922939999786,509.21922939999786,509.97174019999875,509.97174019999875,510.4743579999995,510.4743579999995,511.42406859999755,511.42406859999755,None,num_4,0.24600120000104653,511.42406859999755,508.7168356000002,sad,0,Sad,511.68509393999847,None,None,511.68509393999847,None,,,,,,,,,,,,,,,,,,,,,,,,,,,,,,,,,,,,,,,,,,,,,,,,,,,,,20,001,1,21,400,400,2022_Oct_11_1433,Experiment,2021.1.4,360.3993224481004,
images\S7_F_S_03.png,images\S7_F_S_03_scrambled.png,7,sad,-30,female,1,,342,on,2,0.5,0.75,0.5,0.867,3,341,1,1,2,2,2,32,128,161,,,,,,0,68,68,68,,,,,,,,,,,,,,,,,,,,,,,,,,,,,,,,,,,,,,,,,,,,,,,,,,,,,,,,,511.73231509999823,512.2321443000001,512.2321443000001,512.9819112999976,512.9819112999976,513.4845752999972,513.4845752999972,514.3537321999975,514.3537321999975,None,num_4,0.4042001999987406,514.3537321999975,None,sad,0,Sad,514.7730308399979,None,None,514.7730308399979,None,,,,,,,,,,,,,,,,,,,,,,,,,,,,,,,,,,,,,,,,,,,,,,,,,,,,,20,001,1,21,400,400,2022_Oct_11_1433,Experiment,2021.1.4,360.3993224481004,
images\S9_F_H_02.png,images\S9_F_H_02_scrambled.png,9,happy,20,female,5,,230,on,2,0.5,0.75,0.5,0.828,3,229,2,1,1,2,2,32,128,165,,,,,,0,69,69,69,,,,,,,,,,,,,,,,,,,,,,,,,,,,,,,,,,,,,,,,,,,,,,,,,,,,,,,,,514.8202362999982,515.3200775000005,515.3200775000005,516.0726546000005,516.0726546000005,516.5725141999974,516.5725141999974,517.4027662999979,517.4027662999979,None,num_6,0.2114289999990433,517.4027662999979,None,happy,0,Happy,517.6276847399996,None,None,517.6276847399996,None,,,,,,,,,,,,,,,,,,,,,,,,,,,,,,,,,,,,,,,,,,,,,,,,,,,,,20,001,1,21,400,400,2022_Oct_11_1433,Experiment,2021.1.4,360.3993224481004,
images\S5_F_S_03.png,images\S5_F_S_03_scrambled.png,5,sad,-30,female,1,,210,on,2,0.5,0.75,0.5,0.784,3,209,3,1,1,2,2,32,128,161,,,,,,0,70,70,70,,,,,,,,,,,,,,,,,,,,,,,,,,,,,,,,,,,,,,,,,,,,,,,,,,,,,,,,,517.6749113999977,518.1803347999994,518.1803347999994,518.9328815999979,518.9328815999979,519.4355027999991,519.4355027999991,520.2241641999972,520.2241641999972,None,num_4,0.27788190000137547,520.2241641999972,None,sad,0,Sad,520.5129527399978,None,None,520.5129527399978,None,,,,,,,,,,,,,,,,,,,,,,,,,,,,,,,,,,,,,,,,,,,,,,,,,,,,,20,001,1,21,400,400,2022_Oct_11_1433,Experiment,2021.1.4,360.3993224481004,
images\S5_F_H_02.png,images\S5_F_H_02_scrambled.png,5,happy,20,female,5,,26,off,1,0.5,0.75,0.5,0.765,3,25,1,2,1,0,0,0,0,5,,,,,,0,71,71,71,,,,,,,,,,,,,,,,,,,,,,,,,,,,,,,,,,,,,,,,,,,,,,,,,,,,,,,,,520.5768207000001,521.0794542000003,521.0794542000003,521.829189,521.829189,522.3346219999985,522.3346219999985,523.1038880999986,523.1038880999986,None,num_6,0.29378859999997076,523.1038880999986,None,happy,0,Happy,523.4092416399973,None,None,523.4092416399973,None,,,,,,,,,,,,,,,,,,,,,,,,,,,,,,,,,,,,,,,,,,,,,,,,,,,,,20,001,1,21,400,400,2022_Oct_11_1433,Experiment,2021.1.4,360.3993224481004,
images\S4_M_S_01.png,images\S4_M_S_01_scrambled.png,4,sad,-10,male,3,,562,on,2,0.5,0.75,0.5,0.754,3,561,1,1,1,2,2,32,128,163,,,,,,0,72,72,72,,,,,,,,,,,,,,,,,,,,,,,,,,,,,,,,,,,,,,,,,,,,,,,,,,,,,,,,,523.456460999998,523.9590726999995,523.9590726999995,524.7116300999987,524.7116300999987,525.2142779999995,525.2142779999995,525.9695670000001,525.9695670000001,None,num_4,0.3561489999992773,525.9695670000001,None,sad,0,Sad,526.3361515399985,None,None,526.3361515399985,None,,,,,,,,,,,,,,,,,,,,,,,,,,,,,,,,,,,,,,,,,,,,,,,,,,,,,20,001,1,21,400,400,2022_Oct_11_1433,Experiment,2021.1.4,360.3993224481004,
images\blank.jpg,images\blank.jpg,none,none,none,none,0,,620,on,2,0.5,0.75,0.5,0.873,0,619,2,1,1,3,3,48,192,240,,,,,,0,73,73,73,,,,,,,,,,,,,,,,,,,,,,,,,,,,,,,,,,,,,,,,,,,,,,,,,,,,,,,,,526.4196291999979,526.9220499999974,526.9220499999974,527.6746256000006,527.6746256000006,528.1772180999978,528.1772180999978,529.0519944000007,529.0519944000007,529.0519944000007,None,,529.0519944000007,None,miss,0,,532.0566455200001,None,None,532.0566455200001,None,,,,,,,,,,,,,,,,,,,,,,,,,,,,,,,,,,,,,,,,,,,,,,,,,,,,,20,001,1,21,400,400,2022_Oct_11_1433,Experiment,2021.1.4,360.3993224481004,
images\S9_F_S_02.png,images\S9_F_S_02_scrambled.png,9,sad,-20,female,2,,353,on,2,0.5,0.75,0.5,0.907,3,352,3,1,1,2,2,32,128,162,,,,,,0,74,74,74,,,,,,,,,,,,,,,,,,,,,,,,,,,,,,,,,,,,,,,,,,,,,,,,,,,,,,,,,532.1761793999976,532.6786248999997,532.6786248999997,533.4311640999986,533.4311640999986,533.9338553999987,533.9338553999987,534.8446454000004,534.8446454000004,None,num_4,0.32154409999930067,534.8446454000004,532.1761793999976,sad,0,Sad,535.1862791600004,None,None,535.1862791600004,None,,,,,,,,,,,,,,,,,,,,,,,,,,,,,,,,,,,,,,,,,,,,,,,,,,,,,20,001,1,21,400,400,2022_Oct_11_1433,Experiment,2021.1.4,360.3993224481004,
images\S9_F_H_02.png,images\S9_F_H_02_scrambled.png,9,happy,20,female,5,,590,on,2,0.5,0.75,0.5,0.923,3,589,4,2,1,2,2,32,128,165,,,,,,0,75,75,75,,,,,,,,,,,,,,,,,,,,,,,,,,,,,,,,,,,,,,,,,,,,,,,,,,,,,,,,,535.238925499998,535.7443667999978,535.7443667999978,536.4996855999998,536.4996855999998,537.0023172999972,537.0023172999972,537.926977799998,537.926977799998,None,num_6,0.39068960000076913,537.926977799998,None,happy,0,Happy,538.3491176999996,None,None,538.3491176999996,None,,,,,,,,,,,,,,,,,,,,,,,,,,,,,,,,,,,,,,,,,,,,,,,,,,,,,20,001,1,21,400,400,2022_Oct_11_1433,Experiment,2021.1.4,360.3993224481004,
images\S6_M_H_02.png,images\S6_M_H_02_scrambled.png,6,happy,20,male,5,,152,off,1,0.5,0.75,0.5,0.832,3,151,1,1,2,0,0,0,0,5,,,,,,0,76,76,76,,,,,,,,,,,,,,,,,,,,,,,,,,,,,,,,,,,,,,,,,,,,,,,,,,,,,,,,,538.4129470999978,538.9128205999987,538.9128205999987,539.6625542000002,539.6625542000002,540.165176399998,540.165176399998,541.0010545999976,541.0010545999976,None,num_6,0.30077779999919585,541.0010545999976,None,happy,0,Happy,541.317609339999,None,None,541.317609339999,None,,,,,,,,,,,,,,,,,,,,,,,,,,,,,,,,,,,,,,,,,,,,,,,,,,,,,20,001,1,21,400,400,2022_Oct_11_1433,Experiment,2021.1.4,360.3993224481004,
images\S9_F_H_01.png,images\S9_F_H_01_scrambled.png,9,happy,10,female,4,,109,on,2,0.5,0.75,0.5,0.916,3,108,1,1,1,2,2,32,128,164,,,,,,0,77,77,77,,,,,,,,,,,,,,,,,,,,,,,,,,,,,,,,,,,,,,,,,,,,,,,,,,,,,,,,,541.3648165999984,541.8675728999988,541.8675728999988,542.6200060999981,542.6200060999981,543.122754699998,543.122754699998,544.0417729999972,544.0417729999972,None,num_6,0.484491800001706,544.0417729999972,None,happy,0,Happy,544.5528364799997,None,None,544.5528364799997,None,,,,,,,,,,,,,,,,,,,,,,,,,,,,,,,,,,,,,,,,,,,,,,,,,,,,,20,001,1,21,400,400,2022_Oct_11_1433,Experiment,2021.1.4,360.3993224481004,
images\blank.jpg,images\blank.jpg,none,none,none,none,0,,650,on,2,0.5,0.75,0.5,0.941,0,649,2,1,1,3,3,48,192,240,,,,,,0,78,78,78,,,,,,,,,,,,,,,,,,,,,,,,,,,,,,,,,,,,,,,,,,,,,,,,,,,,,,,,,544.6418120999988,545.1442389999975,545.1442389999975,545.8995620999995,545.8995620999995,546.4021928000002,546.4021928000002,547.3491264999975,547.3491264999975,547.3491264999975,None,,547.3491264999975,None,miss,0,,550.3509879200005,None,None,550.3509879200005,None,,,,,,,,,,,,,,,,,,,,,,,,,,,,,,,,,,,,,,,,,,,,,,,,,,,,,20,001,1,21,400,400,2022_Oct_11_1433,Experiment,2021.1.4,360.3993224481004,
images\blank.jpg,images\blank.jpg,none,none,none,none,0,,614,on,2,0.5,0.75,0.5,0.881,0,613,3,2,2,3,3,48,192,240,,,,,,0,79,79,79,,,,,,,,,,,,,,,,,,,,,,,,,,,,,,,,,,,,,,,,,,,,,,,,,,,,,,,,,550.3787121999994,550.8785580999975,550.8785580999975,551.6283043000003,551.6283043000003,552.1337767000005,552.1337767000005,553.0167626999973,553.0167626999973,553.0167626999973,None,,553.0167626999973,550.3787121999994,miss,0,,556.0214622199978,None,None,556.0214622199978,None,,,,,,,,,,,,,,,,,,,,,,,,,,,,,,,,,,,,,,,,,,,,,,,,,,,,,20,001,1,21,400,400,2022_Oct_11_1433,Experiment,2021.1.4,360.3993224481004,
images\S10_M_S_02.png,images\S10_M_S_02_scrambled.png,10,sad,-20,male,2,,359,on,2,0.5,0.75,0.5,0.835,3,358,4,1,1,2,2,32,128,162,,,,,,0,80,80,80,,,,,,,,,,,,,,,,,,,,,,,,,,,,,,,,,,,,,,,,,,,,,,,,,,,,,,,,,556.1411267999974,556.6434517999987,556.6434517999987,557.3988341999975,557.3988341999975,557.9041885000006,557.9041885000006,558.7400105999986,558.7400105999986,None,num_6,0.2258030000011786,558.7400105999986,556.1411267999974,happy,0,Sad,558.9760778799995,None,None,558.9760778799995,None,,,,,,,,,,,,,,,,,,,,,,,,,,,,,,,,,,,,,,,,,,,,,,,,,,,,,20,001,1,21,400,400,2022_Oct_11_1433,Experiment,2021.1.4,360.3993224481004,
images\S5_F_H_03.png,images\S5_F_H_03_scrambled.png,5,happy,30,female,6,,387,off,1,0.5,0.75,0.5,0.925,3,386,1,1,1,0,0,0,0,6,,,,,,0,81,81,81,,,,,,,,,,,,,,,,,,,,,,,,,,,,,,,,,,,,,,,,,,,,,,,,,,,,,,,,,559.0343592999998,559.5397897999974,559.5397897999974,560.2951037999992,560.2951037999992,560.7949207999991,560.7949207999991,561.7224109999988,561.7224109999988,None,num_6,0.2517768999969121,561.7224109999988,None,happy,0,Happy,561.9973894800008,None,None,561.9973894800008,None,,,,,,,,,,,,,,,,,,,,,,,,,,,,,,,,,,,,,,,,,,,,,,,,,,,,,20,001,1,21,400,400,2022_Oct_11_1433,Experiment,2021.1.4,360.3993224481004,
images\S3_F_S_01.png,images\S3_F_S_01_scrambled.png,3,sad,-10,female,3,,16,off,1,0.5,0.75,0.5,0.812,3,15,2,1,1,0,0,0,0,3,,,,,,0,82,82,82,,,,,,,,,,,,,,,,,,,,,,,,,,,,,,,,,,,,,,,,,,,,,,,,,,,,,,,,,562.0500859999993,562.5555084000007,562.5555084000007,563.3080485999999,563.3080485999999,563.8106721999975,563.8106721999975,564.6298841999997,564.6298841999997,None,num_6,0.2639483000020846,564.6298841999997,None,happy,0,Sad,564.8992036199975,None,None,564.8992036199975,None,,,,,,,,,,,,,,,,,,,,,,,,,,,,,,,,,,,,,,,,,,,,,,,,,,,,,20,001,1,21,400,400,2022_Oct_11_1433,Experiment,2021.1.4,360.3993224481004,
images\S9_F_H_02.png,images\S9_F_H_02_scrambled.png,9,happy,20,female,5,,410,off,1,0.5,0.75,0.5,0.753,3,409,3,1,1,0,0,0,0,5,,,,,,0,83,83,83,,,,,,,,,,,,,,,,,,,,,,,,,,,,,,,,,,,,,,,,,,,,,,,,,,,,,,,,,564.9464165999998,565.4490841999977,565.4490841999977,566.2044050000004,566.2044050000004,566.7069888000005,566.7069888000005,567.4623188000005,567.4623188000005,None,num_6,0.31951150000168127,567.4623188000005,None,happy,0,Happy,567.7955415399985,None,None,567.7955415399985,None,,,,,,,,,,,,,,,,,,,,,,,,,,,,,,,,,,,,,,,,,,,,,,,,,,,,,20,001,1,21,400,400,2022_Oct_11_1433,Experiment,2021.1.4,360.3993224481004,
images\S5_F_S_03.png,images\S5_F_S_03_scrambled.png,5,sad,-30,female,1,,450,on,2,0.5,0.75,0.5,0.779,3,449,1,1,1,2,2,32,128,161,,,,,,0,84,84,84,,,,,,,,,,,,,,,,,,,,,,,,,,,,,,,,,,,,,,,,,,,,,,,,,,,,,,,,,567.8427493999989,568.3453950000003,568.3453950000003,569.0980426999995,569.0980426999995,569.6034483000003,569.6034483000003,570.3891876999987,570.3891876999987,None,num_4,0.3125603000007686,570.3891876999987,None,sad,0,Sad,570.7224167199979,None,None,570.7224167199979,None,,,,,,,,,,,,,,,,,,,,,,,,,,,,,,,,,,,,,,,,,,,,,,,,,,,,,20,001,1,21,400,400,2022_Oct_11_1433,Experiment,2021.1.4,360.3993224481004,
images\S10_M_S_01.png,images\S10_M_S_01_scrambled.png,10,sad,-10,male,3,,538,off,1,0.5,0.75,0.5,0.823,3,537,1,1,1,0,0,0,0,3,,,,,,0,85,85,85,,,,,,,,,,,,,,,,,,,,,,,,,,,,,,,,,,,,,,,,,,,,,,,,,,,,,,,,,570.7751715999984,571.275016399999,571.275016399999,572.0247825999977,572.0247825999977,572.5302135999991,572.5302135999991,573.3549693999994,573.3549693999994,None,num_6,0.2114041000022553,573.3549693999994,None,happy,0,Sad,573.5744183199981,None,None,573.5744183199981,None,,,,,,,,,,,,,,,,,,,,,,,,,,,,,,,,,,,,,,,,,,,,,,,,,,,,,20,001,1,21,400,400,2022_Oct_11_1433,Experiment,2021.1.4,360.3993224481004,
images\S4_M_S_01.png,images\S4_M_S_01_scrambled.png,4,sad,-10,male,3,,202,on,2,0.5,0.75,0.5,0.907,3,201,1,1,2,2,2,32,128,163,,,,,,0,86,86,86,,,,,,,,,,,,,,,,,,,,,,,,,,,,,,,,,,,,,,,,,,,,,,,,,,,,,,,,,573.6326367000001,574.1352719999995,574.1352719999995,574.8879424000006,574.8879424000006,575.3904373999976,575.3904373999976,576.3012380999971,576.3012380999971,None,num_4,0.26472149999972316,576.3012380999971,None,sad,0,Sad,576.5873975800008,None,None,576.5873975800008,None,,,,,,,,,,,,,,,,,,,,,,,,,,,,,,,,,,,,,,,,,,,,,,,,,,,,,20,001,1,21,400,400,2022_Oct_11_1433,Experiment,2021.1.4,360.3993224481004,
images\S10_M_S_03.png,images\S10_M_S_03_scrambled.png,10,sad,-30,male,1,,300,off,1,0.5,0.75,0.5,0.874,3,299,1,1,1,0,0,0,0,1,,,,,,0,87,87,87,,,,,,,,,,,,,,,,,,,,,,,,,,,,,,,,,,,,,,,,,,,,,,,,,,,,,,,,,576.6400326999974,577.1398673000003,577.1398673000003,577.8896378999998,577.8896378999998,578.3923021999981,578.3923021999981,579.2698143999987,579.2698143999987,None,num_4,0.24002719999771216,579.2698143999987,None,sad,0,Sad,579.5252476399975,None,None,579.5252476399975,None,,,,,,,,,,,,,,,,,,,,,,,,,,,,,,,,,,,,,,,,,,,,,,,,,,,,,20,001,1,21,400,400,2022_Oct_11_1433,Experiment,2021.1.4,360.3993224481004,
images\S4_M_H_01.png,images\S4_M_H_01_scrambled.png,4,happy,10,male,4,,199,on,2,0.5,0.75,0.5,0.893,3,198,1,1,1,2,2,32,128,164,,,,,,0,88,88,88,,,,,,,,,,,,,,,,,,,,,,,,,,,,,,,,,,,,,,,,,,,,,,,,,,,,,,,,,579.5724553,580.0751117,580.0751117,580.8304181999993,580.8304181999993,581.3330158999997,581.3330158999997,582.2299934000002,582.2299934000002,None,num_4,0.30376280000200495,582.2299934000002,None,sad,0,Happy,582.5382523200001,None,None,582.5382523200001,None,,,,,,,,,,,,,,,,,,,,,,,,,,,,,,,,,,,,,,,,,,,,,,,,,,,,,20,001,1,21,400,400,2022_Oct_11_1433,Experiment,2021.1.4,360.3993224481004,
images\S6_M_S_03.png,images\S6_M_S_03_scrambled.png,6,sad,-30,male,1,,276,off,1,0.5,0.75,0.5,0.826,3,275,1,1,1,0,0,0,0,1,,,,,,0,89,89,89,,,,,,,,,,,,,,,,,,,,,,,,,,,,,,,,,,,,,,,,,,,,,,,,,,,,,,,,,582.6020759999992,583.1047216999978,583.1047216999978,583.8600425999975,583.8600425999975,584.3654375999977,584.3654375999977,585.1957323999995,585.1957323999995,None,num_4,0.3059880000000703,585.1957323999995,None,sad,0,Sad,585.51231234,None,None,585.51231234,None,,,,,,,,,,,,,,,,,,,,,,,,,,,,,,,,,,,,,,,,,,,,,,,,,,,,,20,001,1,21,400,400,2022_Oct_11_1433,Experiment,2021.1.4,360.3993224481004,
images\S7_F_S_02.png,images\S7_F_S_02_scrambled.png,7,sad,-20,female,2,,401,off,1,0.5,0.75,0.5,0.874,3,400,2,1,1,0,0,0,0,2,,,,,,0,90,90,90,,,,,,,,,,,,,,,,,,,,,,,,,,,,,,,,,,,,,,,,,,,,,,,,,,,,,,,,,585.5594940999981,586.0649266999972,586.0649266999972,586.820209999998,586.820209999998,587.3229514999985,587.3229514999985,588.2003693999977,588.2003693999977,None,num_4,0.26152229999934207,588.2003693999977,None,sad,0,Sad,588.4724993400006,None,None,588.4724993400006,None,,,,,,,,,,,,,,,,,,,,,,,,,,,,,,,,,,,,,,,,,,,,,,,,,,,,,20,001,1,21,400,400,2022_Oct_11_1433,Experiment,2021.1.4,360.3993224481004,
images\S4_M_S_03.png,images\S4_M_S_03_scrambled.png,4,sad,-30,male,1,,204,on,2,0.5,0.75,0.5,0.846,3,203,1,1,1,2,2,32,128,161,,,,,,0,91,91,91,,,,,,,,,,,,,,,,,,,,,,,,,,,,,,,,,,,,,,,,,,,,,,,,,,,,,,,,,588.5196901999989,589.0251071999992,589.0251071999992,589.7804290999993,589.7804290999993,590.2831623999991,590.2831623999991,591.1299868999995,591.1299868999995,None,num_4,0.37963719999970635,591.1299868999995,None,sad,0,Sad,591.5243234399996,None,None,591.5243234399996,None,,,,,,,,,,,,,,,,,,,,,,,,,,,,,,,,,,,,,,,,,,,,,,,,,,,,,20,001,1,21,400,400,2022_Oct_11_1433,Experiment,2021.1.4,360.3993224481004,
images\S8_M_H_01.png,images\S8_M_H_01_scrambled.png,8,happy,10,male,4,,283,off,1,0.5,0.75,0.5,0.885,3,282,1,1,1,0,0,0,0,4,,,,,,0,92,92,92,,,,,,,,,,,,,,,,,,,,,,,,,,,,,,,,,,,,,,,,,,,,,,,,,,,,,,,,,591.5715242999977,592.0741751999994,592.0741751999994,592.8267515999978,592.8267515999978,593.3293553000003,593.3293553000003,594.2180544999974,594.2180544999974,None,num_6,0.23555219999980181,594.2180544999974,None,happy,0,Happy,594.4678164399985,None,None,594.4678164399985,None,,,,,,,,,,,,,,,,,,,,,,,,,,,,,,,,,,,,,,,,,,,,,,,,,,,,,20,001,1,21,400,400,2022_Oct_11_1433,Experiment,2021.1.4,360.3993224481004,
images\S3_F_H_02.png,images\S3_F_H_02_scrambled.png,3,happy,20,female,5,,194,on,2,0.5,0.75,0.5,0.879,3,193,1,1,1,2,2,32,128,165,,,,,,0,93,93,93,,,,,,,,,,,,,,,,,,,,,,,,,,,,,,,,,,,,,,,,,,,,,,,,,,,,,,,,,594.5178298999999,595.0204545999986,595.0204545999986,595.7730310000006,595.7730310000006,596.2785178999984,596.2785178999984,597.1642769999999,597.1642769999999,None,num_6,0.31355989999792655,597.1642769999999,None,happy,0,Happy,597.4919184399979,None,None,597.4919184399979,None,,,,,,,,,,,,,,,,,,,,,,,,,,,,,,,,,,,,,,,,,,,,,,,,,,,,,20,001,1,21,400,400,2022_Oct_11_1433,Experiment,2021.1.4,360.3993224481004,
images\S8_M_S_01.png,images\S8_M_S_01_scrambled.png,8,sad,-10,male,3,,46,off,1,0.5,0.75,0.5,0.798,3,45,1,1,1,0,0,0,0,3,,,,,,0,94,94,94,,,,,,,,,,,,,,,,,,,,,,,,,,,,,,,,,,,,,,,,,,,,,,,,,,,,,,,,,597.5391251999972,598.0417506999984,598.0417506999984,598.7943434999979,598.7943434999979,599.2997290999992,599.2997290999992,600.1022206999987,600.1022206999987,None,num_4,0.2395699999979115,600.1022206999987,None,sad,0,Sad,600.3633805800004,None,None,600.3633805800004,None,,,,,,,,,,,,,,,,,,,,,,,,,,,,,,,,,,,,,,,,,,,,,,,,,,,,,20,001,1,21,400,400,2022_Oct_11_1433,Experiment,2021.1.4,360.3993224481004,
images\S6_M_H_02.png,images\S6_M_H_02_scrambled.png,6,happy,20,male,5,,92,on,2,0.5,0.75,0.5,0.808,3,91,1,1,1,2,2,32,128,165,,,,,,0,95,95,95,,,,,,,,,,,,,,,,,,,,,,,,,,,,,,,,,,,,,,,,,,,,,,,,,,,,,,,,,600.4160128000003,600.9187700999973,600.9187700999973,601.6684003999981,601.6684003999981,602.1738704999989,602.1738704999989,602.9818835999977,602.9818835999977,None,num_6,0.27980770000067423,602.9818835999977,None,happy,0,Happy,603.2762147399982,None,None,603.2762147399982,None,,,,,,,,,,,,,,,,,,,,,,,,,,,,,,,,,,,,,,,,,,,,,,,,,,,,,20,001,1,21,400,400,2022_Oct_11_1433,Experiment,2021.1.4,360.3993224481004,
images\S7_F_H_02.png,images\S7_F_H_02_scrambled.png,7,happy,20,female,5,,458,on,2,0.5,0.75,0.5,0.846,3,457,2,1,2,2,2,32,128,165,,,,,,0,96,96,96,,,,,,,,,,,,,,,,,,,,,,,,,,,,,,,,,,,,,,,,,,,,,,,,,,,,,,,,,603.3234484999994,603.8288933000003,603.8288933000003,604.5814436000001,604.5814436000001,605.0840134999999,605.0840134999999,605.9337902999978,605.9337902999978,None,num_6,0.31184379999831435,605.9337902999978,None,happy,0,Happy,606.2586310399994,None,None,606.2586310399994,None,,,,,,,,,,,,,,,,,,,,,,,,,,,,,,,,,,,,,,,,,,,,,,,,,,,,,20,001,1,21,400,400,2022_Oct_11_1433,Experiment,2021.1.4,360.3993224481004,
images\S5_F_H_03.png,images\S5_F_H_03_scrambled.png,5,happy,30,female,6,,207,on,2,0.5,0.75,0.5,0.801,3,206,3,1,1,2,2,32,128,166,,,,,,0,97,97,97,,,,,,,,,,,,,,,,,,,,,,,,,,,,,,,,,,,,,,,,,,,,,,,,,,,,,,,,,606.3087712999986,606.8140786999975,606.8140786999975,607.5638015000004,607.5638015000004,608.0636450999991,608.0636450999991,608.8690091999997,608.8690091999997,None,num_6,0.3767140999989351,608.8690091999997,None,happy,0,Happy,609.2689197799976,None,None,609.2689197799976,None,,,,,,,,,,,,,,,,,,,,,,,,,,,,,,,,,,,,,,,,,,,,,,,,,,,,,20,001,1,21,400,400,2022_Oct_11_1433,Experiment,2021.1.4,360.3993224481004,
images\S7_F_H_01.png,images\S7_F_H_01_scrambled.png,7,happy,10,female,4,,397,off,1,0.5,0.75,0.5,0.769,3,396,1,1,1,0,0,0,0,4,,,,,,0,98,98,98,,,,,,,,,,,,,,,,,,,,,,,,,,,,,,,,,,,,,,,,,,,,,,,,,,,,,,,,,609.321594699999,609.8242281999992,609.8242281999992,610.5739938999977,610.5739938999977,611.0766516999975,611.0766516999975,611.8486994999985,611.8486994999985,None,num_6,0.36521949999951175,611.8486994999985,None,happy,0,Happy,612.23733872,None,None,612.23733872,None,,,,,,,,,,,,,,,,,,,,,,,,,,,,,,,,,,,,,,,,,,,,,,,,,,,,,20,001,1,21,400,400,2022_Oct_11_1433,Experiment,2021.1.4,360.3993224481004,
images\S4_M_H_02.png,images\S4_M_H_02_scrambled.png,4,happy,20,male,5,,20,off,1,0.5,0.75,0.5,0.756,3,19,2,1,1,0,0,0,0,5,,,,,,0,99,99,99,,,,,,,,,,,,,,,,,,,,,,,,,,,,,,,,,,,,,,,,,,,,,,,,,,,,,,,,,612.2901272999989,612.7928854999991,612.7928854999991,613.545320199999,613.545320199999,614.0480322999974,614.0480322999974,614.8088285999984,614.8088285999984,None,num_6,0.4290887000024668,614.8088285999984,None,happy,0,Happy,615.264223479999,None,None,615.264223479999,None,,,,,,,,,,,,,,,,,,,,,,,,,,,,,,,,,,,,,,,,,,,,,,,,,,,,,20,001,1,21,400,400,2022_Oct_11_1433,Experiment,2021.1.4,360.3993224481004,
images\S5_F_S_01.png,images\S5_F_S_01_scrambled.png,5,sad,-10,female,3,,28,off,1,0.5,0.75,0.5,0.861,3,27,3,1,1,0,0,0,0,3,,,,,,0,100,100,100,,,,,,,,,,,,,,,,,,,,,,,,,,,,,,,,,,,,,,,,,,,,,,,,,,,,,,,,,615.314187,615.8195844999973,615.8195844999973,616.5721386999976,616.5721386999976,617.0776492999976,617.0776492999976,617.9439724999975,617.9439724999975,None,num_6,0.2376245999985258,617.9439724999975,None,happy,0,Sad,618.1910975800005,None,None,618.1910975800005,None,,,,,,,,,,,,,,,,,,,,,,,,,,,,,,,,,,,,,,,,,,,,,,,,,,,,,20,001,1,21,400,400,2022_Oct_11_1433,Experiment,2021.1.4,360.3993224481004,
images\S8_M_S_02.png,images\S8_M_S_02_scrambled.png,8,sad,-20,male,2,,407,off,1,0.5,0.75,0.5,0.838,3,406,4,1,1,0,0,0,0,2,,,,,,0,101,101,101,,,,,,,,,,,,,,,,,,,,,,,,,,,,,,,,,,,,,,,,,,,,,,,,,,,,,,,,,618.2493936999999,618.7548182999999,618.7548182999999,619.5101073999977,619.5101073999977,620.0128519999998,620.0128519999998,620.8541466999995,620.8541466999995,None,num_4,0.2717585999998846,620.8541466999995,None,sad,0,Sad,621.1401662399977,None,None,621.1401662399977,None,,,,,,,,,,,,,,,,,,,,,,,,,,,,,,,,,,,,,,,,,,,,,,,,,,,,,20,001,1,21,400,400,2022_Oct_11_1433,Experiment,2021.1.4,360.3993224481004,
images\S4_M_S_01.png,images\S4_M_S_01_scrambled.png,4,sad,-10,male,3,,22,off,1,0.5,0.75,0.5,0.79,3,21,5,1,1,0,0,0,0,3,,,,,,0,102,102,102,,,,,,,,,,,,,,,,,,,,,,,,,,,,,,,,,,,,,,,,,,,,,,,,,,,,,,,,,621.1873764999982,621.6872187999979,621.6872187999979,622.4369821999971,622.4369821999971,622.9368417000005,622.9368417000005,623.7338558999982,623.7338558999982,None,num_4,0.255915300000197,623.7338558999982,None,sad,0,Sad,624.0143227399996,None,None,624.0143227399996,None,,,,,,,,,,,,,,,,,,,,,,,,,,,,,,,,,,,,,,,,,,,,,,,,,,,,,20,001,1,21,400,400,2022_Oct_11_1433,Experiment,2021.1.4,360.3993224481004,
images\S2_M_H_01.png,images\S2_M_H_01_scrambled.png,2,happy,10,male,4,,187,on,2,0.5,0.75,0.5,0.927,3,186,1,1,1,2,2,32,128,164,,,,,,0,103,103,103,,,,,,,,,,,,,,,,,,,,,,,,,,,,,,,,,,,,,,,,,,,,,,,,,,,,,,,,,624.0698177999984,624.5752275999985,624.5752275999985,625.3305603999979,625.3305603999979,625.8332778000004,625.8332778000004,626.7662203999971,626.7662203999971,None,num_4,0.35159180000118795,626.7662203999971,None,sad,0,Happy,627.1299858199977,None,None,627.1299858199977,None,,,,,,,,,,,,,,,,,,,,,,,,,,,,,,,,,,,,,,,,,,,,,,,,,,,,,20,001,1,21,400,400,2022_Oct_11_1433,Experiment,2021.1.4,360.3993224481004,
images\S4_M_H_01.png,images\S4_M_H_01_scrambled.png,4,happy,10,male,4,,439,on,2,0.5,0.75,0.5,0.913,3,438,2,1,2,2,2,32,128,164,,,,,,0,104,104,104,,,,,,,,,,,,,,,,,,,,,,,,,,,,,,,,,,,,,,,,,,,,,,,,,,,,,,,,,627.1771907000002,627.6798400999978,627.6798400999978,628.4351685999973,628.4351685999973,628.9405541999986,628.9405541999986,629.8597230999985,629.8597230999985,None,num_4,0.2977328999986639,629.8597230999985,None,sad,0,Happy,630.1623853199976,None,None,630.1623853199976,None,,,,,,,,,,,,,,,,,,,,,,,,,,,,,,,,,,,,,,,,,,,,,,,,,,,,,20,001,1,21,400,400,2022_Oct_11_1433,Experiment,2021.1.4,360.3993224481004,
images\S7_F_H_01.png,images\S7_F_H_01_scrambled.png,7,happy,10,female,4,,277,off,1,0.5,0.75,0.5,0.868,3,276,1,1,3,0,0,0,0,4,,,,,,0,105,105,105,,,,,,,,,,,,,,,,,,,,,,,,,,,,,,,,,,,,,,,,,,,,,,,,,,,,,,,,,630.2095881999994,630.7150005000003,630.7150005000003,631.4703248999976,631.4703248999976,631.9757274000003,631.9757274000003,632.8476558000002,632.8476558000002,None,num_6,0.2381760000025679,632.8476558000002,None,happy,0,Happy,633.1003683400005,None,None,633.1003683400005,None,,,,,,,,,,,,,,,,,,,,,,,,,,,,,,,,,,,,,,,,,,,,,,,,,,,,,20,001,1,21,400,400,2022_Oct_11_1433,Experiment,2021.1.4,360.3993224481004,
images\S9_F_H_03.png,images\S9_F_H_03_scrambled.png,9,happy,30,female,6,,531,off,1,0.5,0.75,0.5,0.868,3,530,2,1,1,0,0,0,0,6,,,,,,0,106,106,106,,,,,,,,,,,,,,,,,,,,,,,,,,,,,,,,,,,,,,,,,,,,,,,,,,,,,,,,,633.1558375999994,633.6586093999977,633.6586093999977,634.408316099998,634.408316099998,634.9137625999974,634.9137625999974,635.7856573999998,635.7856573999998,None,num_6,0.2600583000021288,635.7856573999998,None,happy,0,Happy,636.0605655399987,None,None,636.0605655399987,None,,,,,,,,,,,,,,,,,,,,,,,,,,,,,,,,,,,,,,,,,,,,,,,,,,,,,20,001,1,21,400,400,2022_Oct_11_1433,Experiment,2021.1.4,360.3993224481004,
images\S6_M_S_03.png,images\S6_M_S_03_scrambled.png,6,sad,-30,male,1,,216,on,2,0.5,0.75,0.5,0.934,3,215,1,1,1,2,2,32,128,161,,,,,,0,107,107,107,,,,,,,,,,,,,,,,,,,,,,,,,,,,,,,,,,,,,,,,,,,,,,,,,,,,,,,,,636.1077643999997,636.613217099999,636.613217099999,637.3629484999983,637.3629484999983,637.8684651999974,637.8684651999974,638.8041969000005,638.8041969000005,None,num_4,0.2495539000010467,638.8041969000005,None,sad,0,Sad,639.079078879999,None,None,639.079078879999,None,,,,,,,,,,,,,,,,,,,,,,,,,,,,,,,,,,,,,,,,,,,,,,,,,,,,,20,001,1,21,400,400,2022_Oct_11_1433,Experiment,2021.1.4,360.3993224481004,
images\S10_M_H_03.png,images\S10_M_H_03_scrambled.png,10,happy,30,male,6,,477,on,2,0.5,0.75,0.5,0.773,3,476,2,1,1,2,2,32,128,166,,,,,,0,108,108,108,,,,,,,,,,,,,,,,,,,,,,,,,,,,,,,,,,,,,,,,,,,,,,,,,,,,,,,,,639.1318326999972,639.6344444999995,639.6344444999995,640.3842275999996,640.3842275999996,640.889658,640.889658,641.6644190999978,641.6644190999978,None,num_6,0.38937439999790513,641.6644190999978,None,happy,0,Happy,642.0670490399999,None,None,642.0670490399999,None,,,,,,,,,,,,,,,,,,,,,,,,,,,,,,,,,,,,,,,,,,,,,,,,,,,,,20,001,1,21,400,400,2022_Oct_11_1433,Experiment,2021.1.4,360.3993224481004,
images\S9_F_S_02.png,images\S9_F_S_02_scrambled.png,9,sad,-20,female,2,,293,off,1,0.5,0.75,0.5,0.855,3,292,1,1,1,0,0,0,0,2,,,,,,0,109,109,109,,,,,,,,,,,,,,,,,,,,,,,,,,,,,,,,,,,,,,,,,,,,,,,,,,,,,,,,,642.1170261000007,642.6196466000001,642.6196466000001,643.3722237000002,643.3722237000002,643.8777034999985,643.8777034999985,644.7385222999983,644.7385222999983,None,num_6,0.3237005999981193,644.7385222999983,None,happy,0,Sad,645.0745197799973,None,None,645.0745197799973,None,,,,,,,,,,,,,,,,,,,,,,,,,,,,,,,,,,,,,,,,,,,,,,,,,,,,,20,001,1,21,400,400,2022_Oct_11_1433,Experiment,2021.1.4,360.3993224481004,
images\S2_M_S_01.png,images\S2_M_S_01_scrambled.png,2,sad,-10,male,3,,370,off,1,0.5,0.75,0.5,0.948,3,369,2,1,1,0,0,0,0,3,,,,,,0,110,110,110,,,,,,,,,,,,,,,,,,,,,,,,,,,,,,,,,,,,,,,,,,,,,,,,,,,,,,,,,645.1383088999974,645.6437597000004,645.6437597000004,646.3934950000003,646.3934950000003,646.8989185999999,646.8989185999999,647.8541796999998,647.8541796999998,None,num_6,0.271590100001049,647.8541796999998,None,happy,0,Sad,648.1346020199976,None,None,648.1346020199976,None,,,,,,,,,,,,,,,,,,,,,,,,,,,,,,,,,,,,,,,,,,,,,,,,,,,,,20,001,1,21,400,400,2022_Oct_11_1433,Experiment,2021.1.4,360.3993224481004,
images\S9_F_S_02.png,images\S9_F_S_02_scrambled.png,9,sad,-20,female,2,,53,off,1,0.5,0.75,0.5,0.871,3,52,3,1,1,0,0,0,0,2,,,,,,0,111,111,111,,,,,,,,,,,,,,,,,,,,,,,,,,,,,,,,,,,,,,,,,,,,,,,,,,,,,,,,,648.1818141000003,648.6844326999999,648.6844326999999,649.4369818999985,649.4369818999985,649.9396419999975,649.9396419999975,650.814373199999,650.814373199999,None,num_6,0.31973089999883086,650.814373199999,None,happy,0,Sad,651.1421198800002,None,None,651.1421198800002,None,,,,,,,,,,,,,,,,,,,,,,,,,,,,,,,,,,,,,,,,,,,,,,,,,,,,,20,001,1,21,400,400,2022_Oct_11_1433,Experiment,2021.1.4,360.3993224481004,
images\S5_F_S_02.png,images\S5_F_S_02_scrambled.png,5,sad,-20,female,2,,329,on,2,0.5,0.75,0.5,0.894,3,328,1,1,2,2,2,32,128,162,,,,,,0,112,112,112,,,,,,,,,,,,,,,,,,,,,,,,,,,,,,,,,,,,,,,,,,,,,,,,,,,,,,,,,651.2004256,651.7057432999973,651.7057432999973,652.4610580999979,652.4610580999979,652.9637436999983,652.9637436999983,653.8635044999974,653.8635044999974,None,num_6,0.2701755000016419,653.8635044999974,None,happy,0,Sad,654.1438555199979,None,None,654.1438555199979,None,,,,,,,,,,,,,,,,,,,,,,,,,,,,,,,,,,,,,,,,,,,,,,,,,,,,,20,001,1,21,400,400,2022_Oct_11_1433,Experiment,2021.1.4,360.3993224481004,
images\S10_M_S_03.png,images\S10_M_S_03_scrambled.png,10,sad,-30,male,1,,60,off,1,0.5,0.75,0.5,0.794,3,59,1,1,1,0,0,0,0,1,,,,,,0,113,113,113,,,,,,,,,,,,,,,,,,,,,,,,,,,,,,,,,,,,,,,,,,,,,,,,,,,,,,,,,654.2077413999978,654.7103891999977,654.7103891999977,655.4628928999991,655.4628928999991,655.9627402000006,655.9627402000006,656.759743999999,656.759743999999,None,num_4,0.2390138000009756,656.759743999999,None,sad,0,Sad,657.0264427799979,None,None,657.0264427799979,None,,,,,,,,,,,,,,,,,,,,,,,,,,,,,,,,,,,,,,,,,,,,,,,,,,,,,20,001,1,21,400,400,2022_Oct_11_1433,Experiment,2021.1.4,360.3993224481004,
images\S1_F_S_03.png,images\S1_F_S_03_scrambled.png,1,sad,-30,female,1,,366,off,1,0.5,0.75,0.5,0.802,3,365,2,1,2,0,0,0,0,1,,,,,,0,114,114,114,,,,,,,,,,,,,,,,,,,,,,,,,,,,,,,,,,,,,,,,,,,,,,,,,,,,,,,,,657.0790634000005,657.5789125999981,657.5789125999981,658.3286737999988,658.3286737999988,658.8341294999991,658.8341294999991,659.6366027999975,659.6366027999975,None,num_4,0.2657111000007717,659.6366027999975,None,sad,0,Sad,659.9199527600001,None,None,659.9199527600001,None,,,,,,,,,,,,,,,,,,,,,,,,,,,,,,,,,,,,,,,,,,,,,,,,,,,,,20,001,1,21,400,400,2022_Oct_11_1433,Experiment,2021.1.4,360.3993224481004,
images\S6_M_H_02.png,images\S6_M_H_02_scrambled.png,6,happy,20,male,5,,332,on,2,0.5,0.75,0.5,0.776,3,331,1,1,1,2,2,32,128,165,,,,,,0,115,115,115,,,,,,,,,,,,,,,,,,,,,,,,,,,,,,,,,,,,,,,,,,,,,,,,,,,,,,,,,659.972613599999,660.4724862000003,660.4724862000003,661.2222287999975,661.2222287999975,661.7277398999977,661.7277398999977,662.5080563999982,662.5080563999982,None,num_6,0.4020596000009391,662.5080563999982,None,happy,0,Happy,662.9301614599979,None,None,662.9301614599979,None,,,,,,,,,,,,,,,,,,,,,,,,,,,,,,,,,,,,,,,,,,,,,,,,,,,,,20,001,1,21,400,400,2022_Oct_11_1433,Experiment,2021.1.4,360.3993224481004,
images\S7_F_S_03.png,images\S7_F_S_03_scrambled.png,7,sad,-30,female,1,,282,off,1,0.5,0.75,0.5,0.852,3,281,1,1,1,0,0,0,0,1,,,,,,0,116,116,116,,,,,,,,,,,,,,,,,,,,,,,,,,,,,,,,,,,,,,,,,,,,,,,,,,,,,,,,,662.9827953999993,663.4826385999986,663.4826385999986,664.2324458999974,664.2324458999974,664.7322922999992,664.7322922999992,665.5876745999994,665.5876745999994,None,num_6,0.34619770000063,665.5876745999994,None,happy,0,Sad,665.9403137799985,None,None,665.9403137799985,None,,,,,,,,,,,,,,,,,,,,,,,,,,,,,,,,,,,,,,,,,,,,,,,,,,,,,20,001,1,21,400,400,2022_Oct_11_1433,Experiment,2021.1.4,360.3993224481004,
images\S5_F_H_01.png,images\S5_F_H_01_scrambled.png,5,happy,10,female,4,,505,off,1,0.5,0.75,0.5,0.815,3,504,2,1,1,0,0,0,0,4,,,,,,0,117,117,117,,,,,,,,,,,,,,,,,,,,,,,,,,,,,,,,,,,,,,,,,,,,,,,,,,,,,,,,,665.9929830999972,666.4984392999977,666.4984392999977,667.2537698999986,667.2537698999986,667.7535406999996,667.7535406999996,668.5728715000005,668.5728715000005,None,num_6,0.280635600000096,668.5728715000005,None,happy,0,Happy,668.8670913399975,None,None,668.8670913399975,None,,,,,,,,,,,,,,,,,,,,,,,,,,,,,,,,,,,,,,,,,,,,,,,,,,,,,20,001,1,21,400,400,2022_Oct_11_1433,Experiment,2021.1.4,360.3993224481004,
images\S8_M_S_01.png,images\S8_M_S_01_scrambled.png,8,sad,-10,male,3,,106,on,2,0.5,0.75,0.5,0.857,3,105,1,1,1,2,2,32,128,163,,,,,,0,118,118,118,,,,,,,,,,,,,,,,,,,,,,,,,,,,,,,,,,,,,,,,,,,,,,,,,,,,,,,,,668.914299,669.4197406999992,669.4197406999992,670.1750457999988,670.1750457999988,670.6748597000005,670.6748597000005,671.5357063999982,671.5357063999982,None,num_4,0.28610570000091684,671.5357063999982,None,sad,0,Sad,671.8329175399987,None,None,671.8329175399987,None,,,,,,,,,,,,,,,,,,,,,,,,,,,,,,,,,,,,,,,,,,,,,,,,,,,,,20,001,1,21,400,400,2022_Oct_11_1433,Experiment,2021.1.4,360.3993224481004,
images\S3_F_S_03.png,images\S3_F_S_03_scrambled.png,3,sad,-30,female,1,,558,on,2,0.5,0.75,0.5,0.775,3,557,2,1,1,2,2,32,128,161,,,,,,0,119,119,119,,,,,,,,,,,,,,,,,,,,,,,,,,,,,,,,,,,,,,,,,,,,,,,,,,,,,,,,,671.8994832999997,672.4049019999984,672.4049019999984,673.1546457000004,673.1546457000004,673.6600798999971,673.6600798999971,674.4377258999994,674.4377258999994,None,num_4,0.42384579999998095,674.4377258999994,None,sad,0,Sad,674.8763490400007,None,None,674.8763490400007,None,,,,,,,,,,,,,,,,,,,,,,,,,,,,,,,,,,,,,,,,,,,,,,,,,,,,,20,001,1,21,400,400,2022_Oct_11_1433,Experiment,2021.1.4,360.3993224481004,
images\S3_F_H_03.png,images\S3_F_H_03_scrambled.png,3,happy,30,female,6,,375,off,1,0.5,0.75,0.5,0.805,3,374,1,2,1,0,0,0,0,6,,,,,,0,120,120,120,,,,,,,,,,,,,,,,,,,,,,,,,,,,,,,,,,,,,,,,,,,,,,,,,,,,,,,,,674.9235589999989,675.4290055999991,675.4290055999991,676.1815451000002,676.1815451000002,676.6841641999999,676.6841641999999,677.4894263999995,677.4894263999995,None,num_6,0.2761948000006669,677.4894263999995,None,happy,0,Happy,677.7782293400006,None,None,677.7782293400006,None,,,,,,,,,,,,,,,,,,,,,,,,,,,,,,,,,,,,,,,,,,,,,,,,,,,,,20,001,1,21,400,400,2022_Oct_11_1433,Experiment,2021.1.4,360.3993224481004,
images\S9_F_S_01.png,images\S9_F_S_01_scrambled.png,9,sad,-10,female,3,,292,off,1,0.5,0.75,0.5,0.821,3,291,2,1,1,0,0,0,0,3,,,,,,0,121,121,121,,,,,,,,,,,,,,,,,,,,,,,,,,,,,,,,,,,,,,,,,,,,,,,,,,,,,,,,,677.8254400000005,678.3280524000002,678.3280524000002,679.0806253999981,679.0806253999981,679.5833555999998,679.5833555999998,680.4080963999986,680.4080963999986,None,num_6,0.26156930000070133,680.4080963999986,None,happy,0,Sad,680.6801066200001,None,None,680.6801066200001,None,,,,,,,,,,,,,,,,,,,,,,,,,,,,,,,,,,,,,,,,,,,,,,,,,,,,,20,001,1,21,400,400,2022_Oct_11_1433,Experiment,2021.1.4,360.3993224481004,
images\S5_F_S_02.png,images\S5_F_S_02_scrambled.png,5,sad,-20,female,2,,89,on,2,0.5,0.75,0.5,0.769,3,88,1,1,1,2,2,32,128,162,,,,,,0,122,122,122,,,,,,,,,,,,,,,,,,,,,,,,,,,,,,,,,,,,,,,,,,,,,,,,,,,,,,,,,680.7273155999974,681.2299648999979,681.2299648999979,681.9797048999972,681.9797048999972,682.4851304000003,682.4851304000003,683.2543119000002,683.2543119000002,None,num_4,0.25513190000128816,683.2543119000002,None,sad,0,Sad,683.5209159399993,None,None,683.5209159399993,None,,,,,,,,,,,,,,,,,,,,,,,,,,,,,,,,,,,,,,,,,,,,,,,,,,,,,20,001,1,21,400,400,2022_Oct_11_1433,Experiment,2021.1.4,360.3993224481004,
images\S5_F_H_02.png,images\S5_F_H_02_scrambled.png,5,happy,20,female,5,,86,on,2,0.5,0.75,0.5,0.882,3,85,2,2,1,2,2,32,128,165,,,,,,0,123,123,123,,,,,,,,,,,,,,,,,,,,,,,,,,,,,,,,,,,,,,,,,,,,,,,,,,,,,,,,,683.5681113999999,684.0735868999982,684.0735868999982,684.8232920999981,684.8232920999981,685.3287266000007,685.3287266000007,686.2145492999989,686.2145492999989,None,num_6,0.3588145999965491,686.2145492999989,None,happy,0,Happy,686.5838643399976,None,None,686.5838643399976,None,,,,,,,,,,,,,,,,,,,,,,,,,,,,,,,,,,,,,,,,,,,,,,,,,,,,,20,001,1,21,400,400,2022_Oct_11_1433,Experiment,2021.1.4,360.3993224481004,
images\blank.jpg,images\blank.jpg,none,none,none,none,0,,627,on,2,0.5,0.75,0.5,0.816,0,626,3,1,1,3,3,48,192,240,,,,,,0,124,124,124,,,,,,,,,,,,,,,,,,,,,,,,,,,,,,,,,,,,,,,,,,,,,,,,,,,,,,,,,686.667352299999,687.1669941,687.1669941,687.9195738999988,687.9195738999988,688.4222646999988,688.4222646999988,689.2414056999987,689.2414056999987,689.2414056999987,None,,689.2414056999987,None,miss,0,,692.2432154599999,None,None,692.2432154599999,None,,,,,,,,,,,,,,,,,,,,,,,,,,,,,,,,,,,,,,,,,,,,,,,,,,,,,20,001,1,21,400,400,2022_Oct_11_1433,Experiment,2021.1.4,360.3993224481004,
images\S2_M_H_03.png,images\S2_M_H_03_scrambled.png,2,happy,30,male,6,,429,on,2,0.5,0.75,0.5,0.763,3,428,4,1,1,2,2,32,128,166,,,,,,0,125,125,125,,,,,,,,,,,,,,,,,,,,,,,,,,,,,,,,,,,,,,,,,,,,,,,,,,,,,,,,,692.3572666999971,692.8597039999986,692.8597039999986,693.6122197000004,693.6122197000004,694.1121060999976,694.1121060999976,694.8785768999987,694.8785768999987,None,num_6,0.25593900000239955,694.8785768999987,692.3572666999971,happy,0,Happy,695.1618771199987,None,None,695.1618771199987,None,,,,,,,,,,,,,,,,,,,,,,,,,,,,,,,,,,,,,,,,,,,,,,,,,,,,,20,001,1,21,400,400,2022_Oct_11_1433,Experiment,2021.1.4,360.3993224481004,
images\S10_M_S_03.png,images\S10_M_S_03_scrambled.png,10,sad,-30,male,1,,120,on,2,0.5,0.75,0.5,0.829,3,119,5,1,1,2,2,32,128,161,,,,,,0,126,126,126,,,,,,,,,,,,,,,,,,,,,,,,,,,,,,,,,,,,,,,,,,,,,,,,,,,,,,,,,695.2145036000002,695.7143537999982,695.7143537999982,696.4669130000002,696.4669130000002,696.9695141999982,696.9695141999982,697.8027099999999,697.8027099999999,None,num_4,0.27525840000089374,697.8027099999999,None,sad,0,Sad,698.1026325799997,None,None,698.1026325799997,None,,,,,,,,,,,,,,,,,,,,,,,,,,,,,,,,,,,,,,,,,,,,,,,,,,,,,20,001,1,21,400,400,2022_Oct_11_1433,Experiment,2021.1.4,360.3993224481004,
images\S2_M_S_01.png,images\S2_M_S_01_scrambled.png,2,sad,-10,male,3,,430,on,2,0.5,0.75,0.5,0.928,3,429,6,1,1,2,2,32,128,163,,,,,,0,127,127,127,,,,,,,,,,,,,,,,,,,,,,,,,,,,,,,,,,,,,,,,,,,,,,,,,,,,,,,,,698.1552577000002,698.6579741999994,698.6579741999994,699.413332199998,699.413332199998,699.9130689999984,699.9130689999984,700.8433403999989,700.8433403999989,None,num_4,0.29890619999787305,700.8433403999989,None,sad,0,Sad,701.1600057599978,None,None,701.1600057599978,None,,,,,,,,,,,,,,,,,,,,,,,,,,,,,,,,,,,,,,,,,,,,,,,,,,,,,20,001,1,21,400,400,2022_Oct_11_1433,Experiment,2021.1.4,360.3993224481004,
images\S9_F_S_01.png,images\S9_F_S_01_scrambled.png,9,sad,-10,female,3,,532,off,1,0.5,0.75,0.5,0.852,3,531,1,1,2,0,0,0,0,3,,,,,,0,128,128,128,,,,,,,,,,,,,,,,,,,,,,,,,,,,,,,,,,,,,,,,,,,,,,,,,,,,,,,,,701.2126523000006,701.7152967999973,701.7152967999973,702.4705904999973,702.4705904999973,702.9733602999986,702.9733602999986,703.8285997999992,703.8285997999992,None,num_6,0.3610162000004493,703.8285997999992,None,happy,0,Sad,704.1950847200001,None,None,704.1950847200001,None,,,,,,,,,,,,,,,,,,,,,,,,,,,,,,,,,,,,,,,,,,,,,,,,,,,,,20,001,1,21,400,400,2022_Oct_11_1433,Experiment,2021.1.4,360.3993224481004,
images\S2_M_S_02.png,images\S2_M_S_02_scrambled.png,2,sad,-20,male,2,,371,off,1,0.5,0.75,0.5,0.819,3,370,2,1,1,0,0,0,0,2,,,,,,0,129,129,129,,,,,,,,,,,,,,,,,,,,,,,,,,,,,,,,,,,,,,,,,,,,,,,,,,,,,,,,,704.2422721999974,704.7449194000001,704.7449194000001,705.5002332999975,705.5002332999975,706.0028353999987,706.0028353999987,706.8248348999987,706.8248348999987,None,num_4,0.24477800000022398,706.8248348999987,None,sad,0,Sad,707.0969608999985,None,None,707.0969608999985,None,,,,,,,,,,,,,,,,,,,,,,,,,,,,,,,,,,,,,,,,,,,,,,,,,,,,,20,001,1,21,400,400,2022_Oct_11_1433,Experiment,2021.1.4,360.3993224481004,
images\blank.jpg,images\blank.jpg,none,none,none,none,0,,617,on,2,0.5,0.75,0.5,0.822,0,616,1,1,1,3,3,48,192,240,,,,,,0,130,130,130,,,,,,,,,,,,,,,,,,,,,,,,,,,,,,,,,,,,,,,,,,,,,,,,,,,,,,,,,707.1887839999981,707.6940331000005,707.6940331000005,708.4465349999991,708.4465349999991,708.946416499999,708.946416499999,709.7683608999978,709.7683608999978,709.7683608999978,None,,709.7683608999978,None,miss,0,,712.7729815999992,None,space,712.7729815999992,None,63.1599470000001,,,,,,,,,,,,,,,,,,,,,,,,,,,,,,,,,,,,,,,,,,,,,,,,,,,,20,001,1,21,400,400,2022_Oct_11_1433,Experiment,2021.1.4,360.3993224481004,
images\blank.jpg,images\blank.jpg,none,none,none,none,0,,629,on,2,0.5,0.75,0.5,0.906,0,628,2,2,2,3,3,48,192,240,,,,,,0,131,131,131,,,,,,,,,,,,,,,,,,,,,,,,,,,,,,,,,,,,,,,,,,,,,,,,,,,,,,,,,775.9645275999974,776.4699844999996,776.4699844999996,777.2197213,777.2197213,777.7251432999983,777.7251432999983,778.6303922000006,778.6303922000006,778.6303922000006,None,,778.6303922000006,None,miss,0,,781.6462257600003,None,None,781.6462257600003,None,,,,,,,,,,,,,,,,,,,,,,,,,,,,,,,,,,,,,,,,,,,,,,,,,,,,,20,001,1,21,400,400,2022_Oct_11_1433,Experiment,2021.1.4,360.3993224481004,
images\S2_M_S_02.png,images\S2_M_S_02_scrambled.png,2,sad,-20,male,2,,311,on,2,0.5,0.75,0.5,0.863,3,310,3,1,1,2,2,32,128,162,,,,,,0,132,132,132,,,,,,,,,,,,,,,,,,,,,,,,,,,,,,,,,,,,,,,,,,,,,,,,,,,,,,,,,781.7601911999991,782.2654115000005,782.2654115000005,783.0180694999981,783.0180694999981,783.5178065999971,783.5178065999971,784.3841804999975,784.3841804999975,None,num_4,0.24570429999948828,784.3841804999975,781.7601911999991,sad,0,Sad,784.6508797600006,None,None,784.6508797600006,None,,,,,,,,,,,,,,,,,,,,,,,,,,,,,,,,,,,,,,,,,,,,,,,,,,,,,20,001,1,21,400,400,2022_Oct_11_1433,Experiment,2021.1.4,360.3993224481004,
images\S8_M_S_02.png,images\S8_M_S_02_scrambled.png,8,sad,-20,male,2,,347,on,2,0.5,0.75,0.5,0.884,3,346,4,1,2,2,2,32,128,162,,,,,,0,133,133,133,,,,,,,,,,,,,,,,,,,,,,,,,,,,,,,,,,,,,,,,,,,,,,,,,,,,,,,,,784.7035278999974,785.2089755999987,785.2089755999987,785.9642843000001,785.9642843000001,786.4669095999998,786.4669095999998,787.3554756999984,787.3554756999984,None,num_4,0.25804109999808134,787.3554756999984,None,sad,0,Sad,787.6387372800003,None,None,787.6387372800003,None,,,,,,,,,,,,,,,,,,,,,,,,,,,,,,,,,,,,,,,,,,,,,,,,,,,,,20,001,1,21,400,400,2022_Oct_11_1433,Experiment,2021.1.4,360.3993224481004,
images\S8_M_H_02.png,images\S8_M_H_02_scrambled.png,8,happy,20,male,5,,584,on,2,0.5,0.75,0.5,0.803,3,583,5,2,1,2,2,32,128,165,,,,,,0,134,134,134,,,,,,,,,,,,,,,,,,,,,,,,,,,,,,,,,,,,,,,,,,,,,,,,,,,,,,,,,787.6914909000006,788.1941129999977,788.1941129999977,788.9466986000007,788.9466986000007,789.449324199999,789.449324199999,790.2574830999984,790.2574830999984,None,num_6,0.23677880000104778,790.2574830999984,None,happy,0,Happy,790.5130037199974,None,None,790.5130037199974,None,,,,,,,,,,,,,,,,,,,,,,,,,,,,,,,,,,,,,,,,,,,,,,,,,,,,,20,001,1,21,400,400,2022_Oct_11_1433,Experiment,2021.1.4,360.3993224481004,
images\blank.jpg,images\blank.jpg,none,none,none,none,0,,609,on,2,0.5,0.75,0.5,0.786,0,608,6,1,1,3,3,48,192,240,,,,,,0,135,135,135,,,,,,,,,,,,,,,,,,,,,,,,,,,,,,,,,,,,,,,,,,,,,,,,,,,,,,,,,790.6019750999985,791.1043274999975,791.1043274999975,791.8540936999998,791.8540936999998,792.3595313000005,792.3595313000005,793.1482866000006,793.1482866000006,793.1482866000006,None,,793.1482866000006,None,miss,0,,796.1556117199993,None,None,796.1556117199993,None,,,,,,,,,,,,,,,,,,,,,,,,,,,,,,,,,,,,,,,,,,,,,,,,,,,,,20,001,1,21,400,400,2022_Oct_11_1433,Experiment,2021.1.4,360.3993224481004,
images\S3_F_H_02.png,images\S3_F_H_02_scrambled.png,3,happy,20,female,5,,314,on,2,0.5,0.75,0.5,0.864,3,313,7,1,1,2,2,32,128,165,,,,,,0,136,136,136,,,,,,,,,,,,,,,,,,,,,,,,,,,,,,,,,,,,,,,,,,,,,,,,,,,,,,,,,796.275267699999,796.7803682999984,796.7803682999984,797.5329258999991,797.5329258999991,798.0355125999995,798.0355125999995,798.9019181999975,798.9019181999975,None,num_6,0.21556090000012773,798.9019181999975,796.275267699999,happy,0,Happy,799.132395339998,None,None,799.132395339998,None,,,,,,,,,,,,,,,,,,,,,,,,,,,,,,,,,,,,,,,,,,,,,,,,,,,,,20,001,1,21,400,400,2022_Oct_11_1433,Experiment,2021.1.4,360.3993224481004,
images\S5_F_S_03.png,images\S5_F_S_03_scrambled.png,5,sad,-30,female,1,,30,off,1,0.5,0.75,0.5,0.82,3,29,1,1,1,0,0,0,0,1,,,,,,0,137,137,137,,,,,,,,,,,,,,,,,,,,,,,,,,,,,,,,,,,,,,,,,,,,,,,,,,,,,,,,,799.1796073999976,799.6822614999983,799.6822614999983,800.4320101999983,800.4320101999983,800.9346616999974,800.9346616999974,801.7594032999987,801.7594032999987,None,num_4,0.23788580000109505,801.7594032999987,None,sad,0,Sad,802.0120584399984,None,None,802.0120584399984,None,,,,,,,,,,,,,,,,,,,,,,,,,,,,,,,,,,,,,,,,,,,,,,,,,,,,,20,001,1,21,400,400,2022_Oct_11_1433,Experiment,2021.1.4,360.3993224481004,
images\blank.jpg,images\blank.jpg,none,none,none,none,0,,628,on,2,0.5,0.75,0.5,0.911,0,627,1,1,1,3,3,48,192,240,,,,,,0,138,138,138,,,,,,,,,,,,,,,,,,,,,,,,,,,,,,,,,,,,,,,,,,,,,,,,,,,,,,,,,802.0955723000006,802.5981431999971,802.5981431999971,803.3505671999992,803.3505671999992,803.8503868999978,803.8503868999978,804.7612592999976,804.7612592999976,804.7612592999976,None,,804.7612592999976,None,miss,0,,807.7630873599999,None,None,807.7630873599999,None,,,,,,,,,,,,,,,,,,,,,,,,,,,,,,,,,,,,,,,,,,,,,,,,,,,,,20,001,1,21,400,400,2022_Oct_11_1433,Experiment,2021.1.4,360.3993224481004,
images\S4_M_S_03.png,images\S4_M_S_03_scrambled.png,4,sad,-30,male,1,,144,off,1,0.5,0.75,0.5,0.931,3,143,1,1,1,0,0,0,0,1,,,,,,0,139,139,139,,,,,,,,,,,,,,,,,,,,,,,,,,,,,,,,,,,,,,,,,,,,,,,,,,,,,,,,,807.8771957999998,808.3824451999972,808.3824451999972,809.1348945999998,809.1348945999998,809.6376167999988,809.6376167999988,810.5705450999994,810.5705450999994,None,num_4,0.23478139999861014,810.5705450999994,807.8771957999998,sad,0,Sad,810.8204496399986,None,None,810.8204496399986,None,,,,,,,,,,,,,,,,,,,,,,,,,,,,,,,,,,,,,,,,,,,,,,,,,,,,,20,001,1,21,400,400,2022_Oct_11_1433,Experiment,2021.1.4,360.3993224481004,
