image_face,image_scram,avatar,emo,emotion,sex,trigeeg,dac,trial_no,NMES,stimtime,baseline,iti,face,scr_face,resp_time,index,count_NMES,count_avatar,count_emotion,dac1,dac2,dac1_output,dac2_output,trigs_out,nmes,practice_trials.thisRepN,practice_trials.thisTrialN,practice_trials.thisN,practice_trials.thisIndex,real_trials.thisRepN,real_trials.thisTrialN,real_trials.thisN,real_trials.thisIndex,trials.thisRepN,trials.thisTrialN,trials.thisN,trials.thisIndex,position,Welcome.started,Welcome.stopped,Welcome_resp.keys,Welcome_resp.rt,text_2.started,text_2.stopped,form_2.index,form_2.itemText,form_2.type,form_2.response,form_2.rt,key_resp_4.keys,key_resp_4.rt,key_resp_4.started,key_resp_4.stopped,instructions.started,instructions.stopped,end_instr.keys,end_instr.rt,instructions_2.started,instructions_2.stopped,end_instr_2.keys,end_instr_2.rt,end_instr_2.started,end_instr_2.stopped,instruct_keypress.started,instruct_keypress.stopped,end_instruct_keypress.keys,end_instruct_keypress.rt,start_practice.started,start_practice.stopped,start_practice_resp.keys,start_practice_resp.rt,prac_baseline.started,prac_baseline.stopped,prac_iti.started,prac_iti.stopped,prac_stimulus.started,prac_stimulus.stopped,prac_scram_stim.started,prac_scram_stim.stopped,prac_stimulus_resp.started,prac_stimulus_resp.stopped,prac_resp.keys,prac_resp.rt,prac_resp.started,prac_resp.stopped,transition_to_real.started,transition_to_real.stopped,end_transition_to_real.keys,end_transition_to_real.rt,fixation_cross.started,fixation_cross.stopped,tr_iti.started,tr_iti.stopped,stimulus.started,stimulus.stopped,scram_stim.started,scram_stim.stopped,response_txt.started,response_txt.stopped,response.keys,response.rt,response.started,response.stopped,participant_Resp,grouping,corAnswer,break_msg.started,break_msg.stopped,end_break.keys,end_break.started,end_break.stopped,end_break.rt,text.started,text.stopped,key_resp_3.keys,key_resp_3.rt,key_resp_3.started,key_resp_3.stopped,fix_cross_comf.started,fix_cross_comf.stopped,stimulation_comf.started,stimulation_comf.stopped,rate_instr.started,rate_instr.stopped,comfort_rating.response,comfort_rating.rt,comfort_rating.started,comfort_rating.stopped,resp_form.keys,resp_form.rt,resp_form.started,resp_form.stopped,survey_instructions.started,survey_instructions.stopped,key_resp_2.keys,key_resp_2.rt,key_resp_2.started,key_resp_2.stopped,form.index,form.itemText,form.type,form.response,form.rt,key_resp.keys,key_resp.rt,key_resp.started,key_resp.stopped,text_3.started,text_3.stopped,rate_smile.response,rate_smile.rt,rate_smile.started,rate_smile.stopped,key_resp_5.keys,key_resp_5.rt,key_resp_5.started,key_resp_5.stopped,end_msg.started,end_msg.stopped,end_resp.keys,end_resp.rt,end_resp.started,end_resp.stopped,participant,session,gender,age,LEFT,RIGHT,date,expName,psychopyVersion,frameRate,
,,,,,,,,,,,,,,,,,,,,,,,,,,,,,,,,,,,,,,H-S,17.63088340000013,None,num_add,0.7965088999999352,,,,,,,,,,,,,,,,,,,,,,,,,,,,,,,,,,,,,,,,,,,,,,,,,,,,,,,,,,,,,,,,,,,,,,,,,,,,,,,,,,,,,,,,,,,,,,,,,,,,,,,,,,,,,,,,,,,,,,,,,,21,001,1,18,525,500,2022_Oct_12_1108,Experiment,2021.1.4,360.4188066587541,
,,,,,,,,,,,,,,,,,,,,,,,,,,,,,,,,,,,,,,,,,,,18.439432000000124,20.4749511,1,"This scale consistes of a number of words that describe different feelings and emotion. Read each item and then list the number from the scale below each word. Indicate (by clicking) to what extend you feel this way RIGHT NOW, that is, AT THE PRESENT MOMENT.",description,,,,,,,,,,,,,,,,,,,,,,,,,,,,,,,,,,,,,,,,,,,,,,,,,,,,,,,,,,,,,,,,,,,,,,,,,,,,,,,,,,,,,,,,,,,,,,,,,,,,,,,,,,,,,,,,,,,,,21,001,1,18,525,500,2022_Oct_12_1108,Experiment,2021.1.4,360.4188066587541,
,,,,,,,,,,,,,,,,,,,,,,,,,,,,,,,,,,,,,,,,,,,,,2,Interested,rating,5.0,10.562194800000725,,,,,,,,,,,,,,,,,,,,,,,,,,,,,,,,,,,,,,,,,,,,,,,,,,,,,,,,,,,,,,,,,,,,,,,,,,,,,,,,,,,,,,,,,,,,,,,,,,,,,,,,,,,,,,,,,,,21,001,1,18,525,500,2022_Oct_12_1108,Experiment,2021.1.4,360.4188066587541,
,,,,,,,,,,,,,,,,,,,,,,,,,,,,,,,,,,,,,,,,,,,,,3,Distressed,rating,1.0,13.35238550000031,,,,,,,,,,,,,,,,,,,,,,,,,,,,,,,,,,,,,,,,,,,,,,,,,,,,,,,,,,,,,,,,,,,,,,,,,,,,,,,,,,,,,,,,,,,,,,,,,,,,,,,,,,,,,,,,,,,21,001,1,18,525,500,2022_Oct_12_1108,Experiment,2021.1.4,360.4188066587541,
,,,,,,,,,,,,,,,,,,,,,,,,,,,,,,,,,,,,,,,,,,,,,4,Excited,rating,5.0,17.421715099999346,,,,,,,,,,,,,,,,,,,,,,,,,,,,,,,,,,,,,,,,,,,,,,,,,,,,,,,,,,,,,,,,,,,,,,,,,,,,,,,,,,,,,,,,,,,,,,,,,,,,,,,,,,,,,,,,,,,21,001,1,18,525,500,2022_Oct_12_1108,Experiment,2021.1.4,360.4188066587541,
,,,,,,,,,,,,,,,,,,,,,,,,,,,,,,,,,,,,,,,,,,,,,5,Upset,rating,1.0,20.561470999999983,,,,,,,,,,,,,,,,,,,,,,,,,,,,,,,,,,,,,,,,,,,,,,,,,,,,,,,,,,,,,,,,,,,,,,,,,,,,,,,,,,,,,,,,,,,,,,,,,,,,,,,,,,,,,,,,,,,21,001,1,18,525,500,2022_Oct_12_1108,Experiment,2021.1.4,360.4188066587541,
,,,,,,,,,,,,,,,,,,,,,,,,,,,,,,,,,,,,,,,,,,,,,6,Strong,rating,3.0,32.94844060000014,,,,,,,,,,,,,,,,,,,,,,,,,,,,,,,,,,,,,,,,,,,,,,,,,,,,,,,,,,,,,,,,,,,,,,,,,,,,,,,,,,,,,,,,,,,,,,,,,,,,,,,,,,,,,,,,,,,21,001,1,18,525,500,2022_Oct_12_1108,Experiment,2021.1.4,360.4188066587541,
,,,,,,,,,,,,,,,,,,,,,,,,,,,,,,,,,,,,,,,,,,,,,7,Guilty,rating,1.0,24.91964730000018,,,,,,,,,,,,,,,,,,,,,,,,,,,,,,,,,,,,,,,,,,,,,,,,,,,,,,,,,,,,,,,,,,,,,,,,,,,,,,,,,,,,,,,,,,,,,,,,,,,,,,,,,,,,,,,,,,,21,001,1,18,525,500,2022_Oct_12_1108,Experiment,2021.1.4,360.4188066587541,
,,,,,,,,,,,,,,,,,,,,,,,,,,,,,,,,,,,,,,,,,,,,,8,Scared,rating,1.0,32.55738070000007,,,,,,,,,,,,,,,,,,,,,,,,,,,,,,,,,,,,,,,,,,,,,,,,,,,,,,,,,,,,,,,,,,,,,,,,,,,,,,,,,,,,,,,,,,,,,,,,,,,,,,,,,,,,,,,,,,,21,001,1,18,525,500,2022_Oct_12_1108,Experiment,2021.1.4,360.4188066587541,
,,,,,,,,,,,,,,,,,,,,,,,,,,,,,,,,,,,,,,,,,,,,,9,Hostile,rating,1.0,34.63616960000036,,,,,,,,,,,,,,,,,,,,,,,,,,,,,,,,,,,,,,,,,,,,,,,,,,,,,,,,,,,,,,,,,,,,,,,,,,,,,,,,,,,,,,,,,,,,,,,,,,,,,,,,,,,,,,,,,,,21,001,1,18,525,500,2022_Oct_12_1108,Experiment,2021.1.4,360.4188066587541,
,,,,,,,,,,,,,,,,,,,,,,,,,,,,,,,,,,,,,,,,,,,,,10,Enthusiastic,rating,5.0,12.10480540000026,,,,,,,,,,,,,,,,,,,,,,,,,,,,,,,,,,,,,,,,,,,,,,,,,,,,,,,,,,,,,,,,,,,,,,,,,,,,,,,,,,,,,,,,,,,,,,,,,,,,,,,,,,,,,,,,,,,21,001,1,18,525,500,2022_Oct_12_1108,Experiment,2021.1.4,360.4188066587541,
,,,,,,,,,,,,,,,,,,,,,,,,,,,,,,,,,,,,,,,,,,,,,11,Proud,rating,3.0,8.641570599999795,,,,,,,,,,,,,,,,,,,,,,,,,,,,,,,,,,,,,,,,,,,,,,,,,,,,,,,,,,,,,,,,,,,,,,,,,,,,,,,,,,,,,,,,,,,,,,,,,,,,,,,,,,,,,,,,,,,21,001,1,18,525,500,2022_Oct_12_1108,Experiment,2021.1.4,360.4188066587541,
,,,,,,,,,,,,,,,,,,,,,,,,,,,,,,,,,,,,,,,,,,,,,12,Irritable,rating,1.0,8.86711649999961,,,,,,,,,,,,,,,,,,,,,,,,,,,,,,,,,,,,,,,,,,,,,,,,,,,,,,,,,,,,,,,,,,,,,,,,,,,,,,,,,,,,,,,,,,,,,,,,,,,,,,,,,,,,,,,,,,,21,001,1,18,525,500,2022_Oct_12_1108,Experiment,2021.1.4,360.4188066587541,
,,,,,,,,,,,,,,,,,,,,,,,,,,,,,,,,,,,,,,,,,,,,,13,Alert,rating,3.0,12.019063799999458,,,,,,,,,,,,,,,,,,,,,,,,,,,,,,,,,,,,,,,,,,,,,,,,,,,,,,,,,,,,,,,,,,,,,,,,,,,,,,,,,,,,,,,,,,,,,,,,,,,,,,,,,,,,,,,,,,,21,001,1,18,525,500,2022_Oct_12_1108,Experiment,2021.1.4,360.4188066587541,
,,,,,,,,,,,,,,,,,,,,,,,,,,,,,,,,,,,,,,,,,,,,,14,Ashamed,rating,1.0,12.994784100000288,,,,,,,,,,,,,,,,,,,,,,,,,,,,,,,,,,,,,,,,,,,,,,,,,,,,,,,,,,,,,,,,,,,,,,,,,,,,,,,,,,,,,,,,,,,,,,,,,,,,,,,,,,,,,,,,,,,21,001,1,18,525,500,2022_Oct_12_1108,Experiment,2021.1.4,360.4188066587541,
,,,,,,,,,,,,,,,,,,,,,,,,,,,,,,,,,,,,,,,,,,,,,15,Inspired,rating,4.0,13.853938700000072,,,,,,,,,,,,,,,,,,,,,,,,,,,,,,,,,,,,,,,,,,,,,,,,,,,,,,,,,,,,,,,,,,,,,,,,,,,,,,,,,,,,,,,,,,,,,,,,,,,,,,,,,,,,,,,,,,,21,001,1,18,525,500,2022_Oct_12_1108,Experiment,2021.1.4,360.4188066587541,
,,,,,,,,,,,,,,,,,,,,,,,,,,,,,,,,,,,,,,,,,,,,,16,Nervous,rating,3.0,14.0597901000001,,,,,,,,,,,,,,,,,,,,,,,,,,,,,,,,,,,,,,,,,,,,,,,,,,,,,,,,,,,,,,,,,,,,,,,,,,,,,,,,,,,,,,,,,,,,,,,,,,,,,,,,,,,,,,,,,,,21,001,1,18,525,500,2022_Oct_12_1108,Experiment,2021.1.4,360.4188066587541,
,,,,,,,,,,,,,,,,,,,,,,,,,,,,,,,,,,,,,,,,,,,,,17,Determined,rating,4.0,11.68709940000008,,,,,,,,,,,,,,,,,,,,,,,,,,,,,,,,,,,,,,,,,,,,,,,,,,,,,,,,,,,,,,,,,,,,,,,,,,,,,,,,,,,,,,,,,,,,,,,,,,,,,,,,,,,,,,,,,,,21,001,1,18,525,500,2022_Oct_12_1108,Experiment,2021.1.4,360.4188066587541,
,,,,,,,,,,,,,,,,,,,,,,,,,,,,,,,,,,,,,,,,,,,,,18,Attentive,rating,5.0,15.276512299999922,,,,,,,,,,,,,,,,,,,,,,,,,,,,,,,,,,,,,,,,,,,,,,,,,,,,,,,,,,,,,,,,,,,,,,,,,,,,,,,,,,,,,,,,,,,,,,,,,,,,,,,,,,,,,,,,,,,21,001,1,18,525,500,2022_Oct_12_1108,Experiment,2021.1.4,360.4188066587541,
,,,,,,,,,,,,,,,,,,,,,,,,,,,,,,,,,,,,,,,,,,,,,19,Jittery,rating,3.0,17.002859599999283,,,,,,,,,,,,,,,,,,,,,,,,,,,,,,,,,,,,,,,,,,,,,,,,,,,,,,,,,,,,,,,,,,,,,,,,,,,,,,,,,,,,,,,,,,,,,,,,,,,,,,,,,,,,,,,,,,,21,001,1,18,525,500,2022_Oct_12_1108,Experiment,2021.1.4,360.4188066587541,
,,,,,,,,,,,,,,,,,,,,,,,,,,,,,,,,,,,,,,,,,,,,,20,Active,rating,3.0,15.196206700000403,,,,,,,,,,,,,,,,,,,,,,,,,,,,,,,,,,,,,,,,,,,,,,,,,,,,,,,,,,,,,,,,,,,,,,,,,,,,,,,,,,,,,,,,,,,,,,,,,,,,,,,,,,,,,,,,,,,21,001,1,18,525,500,2022_Oct_12_1108,Experiment,2021.1.4,360.4188066587541,
,,,,,,,,,,,,,,,,,,,,,,,,,,,,,,,,,,,,,,,,,,,,,21,Afraid,rating,1.0,9.128459100000327,,,,,,,,,,,,,,,,,,,,,,,,,,,,,,,,,,,,,,,,,,,,,,,,,,,,,,,,,,,,,,,,,,,,,,,,,,,,,,,,,,,,,,,,,,,,,,,,,,,,,,,,,,,,,,,,,,,21,001,1,18,525,500,2022_Oct_12_1108,Experiment,2021.1.4,360.4188066587541,
,,,,,,,,,,,,,,,,,,,,,,,,,,,,,,,,,,,,,,,,,,,,,22,Press the + button to submit your answers,description,,,,,,,,,,,,,,,,,,,,,,,,,,,,,,,,,,,,,,,,,,,,,,,,,,,,,,,,,,,,,,,,,,,,,,,,,,,,,,,,,,,,,,,,,,,,,,,,,,,,,,,,,,,,,,,,,,,,,21,001,1,18,525,500,2022_Oct_12_1108,Experiment,2021.1.4,360.4188066587541,
,,,,,,,,,,,,,,,,,,,,,,,,,,,,,,,,,,,,,,,,,,,,,,,,,,num_add,81.56292600000052,28.472455600000103,None,,,,,,,,,,,,,,,,,,,,,,,,,,,,,,,,,,,,,,,,,,,,,,,,,,,,,,,,,,,,,,,,,,,,,,,,,,,,,,,,,,,,,,,,,,,,,,,,,,,,,,,,,,,,,,,21,001,1,18,525,500,2022_Oct_12_1108,Experiment,2021.1.4,360.4188066587541,
,,,,,,,,,,,,,,,,,,,,,,,,,,,,,,,,,,,,,,,,,,,,,,,,,,,,,,110.0808031000006,None,num_add,17.890486299999793,,,,,,,,,,,,,,,,,,,,,,,,,,,,,,,,,,,,,,,,,,,,,,,,,,,,,,,,,,,,,,,,,,,,,,,,,,,,,,,,,,,,,,,,,,,,,,,,,,,,,,,,,,,21,001,1,18,525,500,2022_Oct_12_1108,Experiment,2021.1.4,360.4188066587541,
,,,,,,,,,,,,,,,,,,,,,,,,,,,,,,,,,,,,,,,,,,,,,,,,,,,,,,,,,,127.98073440000007,None,num_add,8.486531300000024,127.98073440000007,None,,,,,,,,,,,,,,,,,,,,,,,,,,,,,,,,,,,,,,,,,,,,,,,,,,,,,,,,,,,,,,,,,,,,,,,,,,,,,,,,,,,,,,,,,,,,,,,,,,,,,21,001,1,18,525,500,2022_Oct_12_1108,Experiment,2021.1.4,360.4188066587541,
,,,,,,,,,,,,,,,,,,,,,,,,,,,,,,,,,,,,,,,,,,,,,,,,,,,,,,,,,,,,,,,,136.4864348000001,None,num_add,7.396877399999539,,,,,,,,,,,,,,,,,,,,,,,,,,,,,,,,,,,,,,,,,,,,,,,,,,,,,,,,,,,,,,,,,,,,,,,,,,,,,,,,,,,,,,,,,,,,,,,,,21,001,1,18,525,500,2022_Oct_12_1108,Experiment,2021.1.4,360.4188066587541,
,,,,,,,,,,,,,,,,,,,,,,,,,,,,,,,,,,,,,,,,,,,,,,,,,,,,,,,,,,,,,,,,,,,,143.89250340000035,None,space,49.422578700000486,,,,,,,,,,,,,,,,,,,,,,,,,,,,,,,,,,,,,,,,,,,,,,,,,,,,,,,,,,,,,,,,,,,,,,,,,,,,,,,,,,,,,,,,,,,,,21,001,1,18,525,500,2022_Oct_12_1108,Experiment,2021.1.4,360.4188066587541,
images\S22_M_S_02.png,images\S22_M_S_02_scrambled.png,22,Sad,0.2,M,0,0,practice,off,1,0.5,0.75,0.5,0.751,3,,,,,,,,,,,0,0,0,3,,,,,,,,,,,,,,,,,,,,,,,,,,,,,,,,,,,,,,,,,,,193.49677370000063,194.00208070000008,194.00208070000008,194.75466030000007,194.75466030000007,195.26006039999993,195.26006039999993,196.01538040000014,196.01538040000014,None,num_4,1.7806826000005458,196.01538040000014,None,,,,,,,,,,,,,,,,,,,,,,,,,,,,,,,,,,,,,,,,,,,,,,,,,,,,,,,,,,,,,,,,,,,,,,,,,,,,,,,21,001,1,18,525,500,2022_Oct_12_1108,Experiment,2021.1.4,360.4188066587541,
images\S22_M_H_02.png,images\S22_M_H_02_scrambled.png,22,Happy,-0.2,M,0,0,practice,off,1,0.5,0.75,0.5,0.883,3,,,,,,,,,,,0,1,1,2,,,,,,,,,,,,,,,,,,,,,,,,,,,,,,,,,,,,,,,,,,,197.88978020000013,198.39521360000072,198.39521360000072,199.15054640000017,199.15054640000017,199.6531554000003,199.6531554000003,200.54176700000062,200.54176700000062,None,num_4,2.2780573000000004,200.54176700000062,None,,,,,,,,,,,,,,,,,,,,,,,,,,,,,,,,,,,,,,,,,,,,,,,,,,,,,,,,,,,,,,,,,,,,,,,,,,,,,,,21,001,1,18,525,500,2022_Oct_12_1108,Experiment,2021.1.4,360.4188066587541,
images\S22_M_S_03.png,images\S22_M_S_03_scrambled.png,22,Sad,0.3,M,0,0,practice,on,2,0.5,0.75,0.5,0.87,3,,,,,,,,,,,0,2,2,4,,,,,,,,,,,,,,,,,,,,,,,,,,,,,,,,,,,,,,,,,,,202.90489190000062,203.40475620000052,203.40475620000052,204.1601115000003,204.1601115000003,204.6655066000003,204.6655066000003,205.5374257000003,205.5374257000003,None,num_4,1.1066068000000087,205.5374257000003,None,,,,,,,,,,,,,,,,,,,,,,,,,,,,,,,,,,,,,,,,,,,,,,,,,,,,,,,,,,,,,,,,,,,,,,,,,,,,,,,21,001,1,18,525,500,2022_Oct_12_1108,Experiment,2021.1.4,360.4188066587541,
images\S22_M_S_03.png,images\S22_M_S_03_scrambled.png,22,Sad,0.3,M,0,0,practice,on,2,0.5,0.75,0.5,0.794,3,,,,,,,,,,,0,3,3,7,,,,,,,,,,,,,,,,,,,,,,,,,,,,,,,,,,,,,,,,,,,206.70649540000068,207.2119175000007,207.2119175000007,207.9644748999999,207.9644748999999,208.46993530000054,208.46993530000054,209.26972770000066,209.26972770000066,None,num_4,0.7020560000000842,209.26972770000066,None,,,,,,,,,,,,,,,,,,,,,,,,,,,,,,,,,,,,,,,,,,,,,,,,,,,,,,,,,,,,,,,,,,,,,,,,,,,,,,,21,001,1,18,525,500,2022_Oct_12_1108,Experiment,2021.1.4,360.4188066587541,
images\S21_F_H_02.png,images\S21_F_H_02_scrambled.png,21,Happy,-0.2,F,0,0,practice,off,1,0.5,0.75,0.5,0.91,3,,,,,,,,,,,0,4,4,1,,,,,,,,,,,,,,,,,,,,,,,,,,,,,,,,,,,,,,,,,,,210.0860149,210.58863960000053,210.58863960000053,211.34118560000024,211.34118560000024,211.84103040000082,211.84103040000082,212.75751310000032,212.75751310000032,None,num_4,0.5503285000004325,212.75751310000032,None,,,,,,,,,,,,,,,,,,,,,,,,,,,,,,,,,,,,,,,,,,,,,,,,,,,,,,,,,,,,,,,,,,,,,,,,,,,,,,,21,001,1,18,525,500,2022_Oct_12_1108,Experiment,2021.1.4,360.4188066587541,
images\S21_F_H_01.png,images\S21_F_H_01_scrambled.png,21,Happy,-0.1,F,0,0,practice,off,1,0.5,0.75,0.5,0.853,3,,,,,,,,,,,0,5,5,0,,,,,,,,,,,,,,,,,,,,,,,,,,,,,,,,,,,,,,,,,,,213.39332100000047,213.89874320000035,213.89874320000035,214.65407490000052,214.65407490000052,215.15678240000034,215.15678240000034,216.0091753000006,216.0091753000006,None,num_4,0.8747842000002493,216.0091753000006,None,,,,,,,,,,,,,,,,,,,,,,,,,,,,,,,,,,,,,,,,,,,,,,,,,,,,,,,,,,,,,,,,,,,,,,,,,,,,,,,21,001,1,18,525,500,2022_Oct_12_1108,Experiment,2021.1.4,360.4188066587541,
images\S22_M_S_02.png,images\S22_M_S_02_scrambled.png,22,Sad,0.2,M,0,0,practice,on,2,0.5,0.75,0.5,0.783,3,,,,,,,,,,,0,6,6,6,,,,,,,,,,,,,,,,,,,,,,,,,,,,,,,,,,,,,,,,,,,216.93946630000028,217.4421426000008,217.4421426000008,218.1918759,218.1918759,218.69172490000074,218.69172490000074,219.47760749999998,219.47760749999998,None,num_6,0.5743541000001642,219.47760749999998,None,,,,,,,,,,,,,,,,,,,,,,,,,,,,,,,,,,,,,,,,,,,,,,,,,,,,,,,,,,,,,,,,,,,,,,,,,,,,,,,21,001,1,18,525,500,2022_Oct_12_1108,Experiment,2021.1.4,360.4188066587541,
images\S22_M_S_01.png,images\S22_M_S_01_scrambled.png,22,Sad,0.1,M,0,0,practice,on,2,0.5,0.75,0.5,0.867,3,,,,,,,,,,,0,7,7,5,,,,,,,,,,,,,,,,,,,,,,,,,,,,,,,,,,,,,,,,,,,220.17179699999997,220.67443850000018,220.67443850000018,221.4242193,221.4242193,221.9268320000001,221.9268320000001,222.79602969999996,222.79602969999996,None,num_4,0.38383989999965706,222.79602969999996,None,,,,,,,,,,,,,,,,,,,,,,,,,,,,,,,,,,,,,,,,,,,,,,,,,,,,,,,,,,,,,,,,,,,,,,,,,,,,,,,21,001,1,18,525,500,2022_Oct_12_1108,Experiment,2021.1.4,360.4188066587541,
,,,,,,,,,,,,,,,,,,,,,,,,,,,,,,,,,,,,,,,,,,,,,,,,,,,,,,,,,,,,,,,,,,,,,,,,,,,,,,,,,,,,,,223.20976190000056,None,space,44.14551080000001,,,,,,,,,,,,,,,,,,,,,,,,,,,,,,,,,,,,,,,,,,,,,,,,,,,,,,,,,,,,,,,,,,,,,,,,,,,21,001,1,18,525,500,2022_Oct_12_1108,Experiment,2021.1.4,360.4188066587541,
images\S10_M_S_01.png,images\S10_M_S_01_scrambled.png,10,sad,-10,male,3,,238,on,2,0.5,0.75,0.5,0.811,3,237,1,1,1,2,2,32,128,163,,,,,,0,0,0,0,,,,,,,,,,,,,,,,,,,,,,,,,,,,,,,,,,,,,,,,,,,,,,,,,,,,,,,,,267.8432435000004,268.34865160000027,268.34865160000027,269.09841529999994,269.09841529999994,269.5982584000003,269.5982584000003,270.4091111000007,270.4091111000007,None,num_4,0.7465413999998418,270.4091111000007,None,happy,1,Sad,271.17002015000025,None,None,271.17002015000025,None,,,,,,,,,,,,,,,,,,,,,,,,,,,,,,,,,,,,,,,,,,,,,,,,,,,,,21,001,1,18,525,500,2022_Oct_12_1108,Experiment,2021.1.4,360.4188066587541,
images\S3_F_S_01.png,images\S3_F_S_01_scrambled.png,3,sad,-10,female,3,,76,on,2,0.5,0.75,0.5,0.912,3,75,2,1,2,2,2,32,128,163,,,,,,0,1,1,1,,,,,,,,,,,,,,,,,,,,,,,,,,,,,,,,,,,,,,,,,,,,,,,,,,,,,,,,,271.2560760000006,271.75591690000056,271.75591690000056,272.50850919999993,272.50850919999993,273.0139033000005,273.0139033000005,273.9331129000002,273.9331129000002,None,num_6,0.5505950000006123,273.9331129000002,None,sad,1,Sad,274.4995314999998,None,None,274.4995314999998,None,,,,,,,,,,,,,,,,,,,,,,,,,,,,,,,,,,,,,,,,,,,,,,,,,,,,,21,001,1,18,525,500,2022_Oct_12_1108,Experiment,2021.1.4,360.4188066587541,
images\S4_M_H_01.png,images\S4_M_H_01_scrambled.png,4,happy,10,male,4,,19,off,1,0.5,0.75,0.5,0.934,3,18,1,1,1,0,0,0,0,4,,,,,,0,2,2,2,,,,,,,,,,,,,,,,,,,,,,,,,,,,,,,,,,,,,,,,,,,,,,,,,,,,,,,,,274.58283670000037,275.0854646000007,275.0854646000007,275.8407964000007,275.8407964000007,276.34342560000005,276.34342560000005,277.2793137000008,277.2793137000008,None,num_6,0.044719099999383616,277.2793137000008,None,sad,1,Happy,277.3347319999999,None,None,277.3347319999999,None,,,,,,,,,,,,,,,,,,,,,,,,,,,,,,,,,,,,,,,,,,,,,,,,,,,,,21,001,1,18,525,500,2022_Oct_12_1108,Experiment,2021.1.4,360.4188066587541,
images\S5_F_S_03.png,images\S5_F_S_03_scrambled.png,5,sad,-30,female,1,,270,off,1,0.5,0.75,0.5,0.796,3,269,2,1,1,0,0,0,0,1,,,,,,0,3,3,3,,,,,,,,,,,,,,,,,,,,,,,,,,,,,,,,,,,,,,,,,,,,,,,,,,,,,,,,,277.4486190000007,277.95408490000045,277.95408490000045,278.7038007000001,278.7038007000001,279.20641700000033,279.20641700000033,280.0090267000005,280.0090267000005,None,num_4,0.7307553000000553,280.0090267000005,None,happy,1,Sad,280.74486300000046,None,None,280.74486300000046,None,,,,,,,,,,,,,,,,,,,,,,,,,,,,,,,,,,,,,,,,,,,,,,,,,,,,,21,001,1,18,525,500,2022_Oct_12_1108,Experiment,2021.1.4,360.4188066587541,
images\S8_M_S_03.png,images\S8_M_S_03_scrambled.png,8,sad,-30,male,1,,468,on,2,0.5,0.75,0.5,0.898,3,467,1,1,2,2,2,32,128,161,,,,,,0,4,4,4,,,,,,,,,,,,,,,,,,,,,,,,,,,,,,,,,,,,,,,,,,,,,,,,,,,,,,,,,280.8309084000002,281.3363141,281.3363141,282.0888577000005,282.0888577000005,282.5914722000007,282.5914722000007,283.4967718000007,283.4967718000007,None,num_6,0.5310535999997228,283.4967718000007,None,sad,1,Sad,284.0382792000002,None,None,284.0382792000002,None,,,,,,,,,,,,,,,,,,,,,,,,,,,,,,,,,,,,,,,,,,,,,,,,,,,,,21,001,1,18,525,500,2022_Oct_12_1108,Experiment,2021.1.4,360.4188066587541,
images\S2_M_H_03.png,images\S2_M_H_03_scrambled.png,2,happy,30,male,6,,189,on,2,0.5,0.75,0.5,0.914,3,188,2,1,1,2,2,32,128,166,,,,,,0,5,5,5,,,,,,,,,,,,,,,,,,,,,,,,,,,,,,,,,,,,,,,,,,,,,,,,,,,,,,,,,284.12156400000003,284.6269789000007,284.6269789000007,285.37953560000005,285.37953560000005,285.88499350000075,285.88499350000075,286.8041983000003,286.8041983000003,None,num_4,0.49591899999995803,286.8041983000003,None,happy,1,Happy,287.31790189999975,None,None,287.31790189999975,None,,,,,,,,,,,,,,,,,,,,,,,,,,,,,,,,,,,,,,,,,,,,,,,,,,,,,21,001,1,18,525,500,2022_Oct_12_1108,Experiment,2021.1.4,360.4188066587541,
images\S10_M_H_01.png,images\S10_M_H_01_scrambled.png,10,happy,10,male,4,,595,on,2,0.5,0.75,0.5,0.92,3,594,3,1,1,2,2,32,128,164,,,,,,0,6,6,6,,,,,,,,,,,,,,,,,,,,,,,,,,,,,,,,,,,,,,,,,,,,,,,,,,,,,,,,,287.4233460000005,287.92594850000023,287.92594850000023,288.6812964999999,288.6812964999999,289.1866854,289.1866854,290.1085967000008,290.1085967000008,None,num_4,0.5432577999999921,290.1085967000008,None,happy,1,Happy,290.6667569000003,None,None,290.6667569000003,None,,,,,,,,,,,,,,,,,,,,,,,,,,,,,,,,,,,,,,,,,,,,,,,,,,,,,21,001,1,18,525,500,2022_Oct_12_1108,Experiment,2021.1.4,360.4188066587541,
images\S7_F_S_03.png,images\S7_F_S_03_scrambled.png,7,sad,-30,female,1,,102,on,2,0.5,0.75,0.5,0.813,3,101,4,1,1,2,2,32,128,161,,,,,,0,7,7,7,,,,,,,,,,,,,,,,,,,,,,,,,,,,,,,,,,,,,,,,,,,,,,,,,,,,,,,,,290.75286680000045,291.2583086000004,291.2583086000004,292.00804360000075,292.00804360000075,292.50787610000043,292.50787610000043,293.3243138000007,293.3243138000007,None,num_6,0.45543739999993704,293.3243138000007,None,sad,1,Sad,293.79360379999997,None,None,293.79360379999997,None,,,,,,,,,,,,,,,,,,,,,,,,,,,,,,,,,,,,,,,,,,,,,,,,,,,,,21,001,1,18,525,500,2022_Oct_12_1108,Experiment,2021.1.4,360.4188066587541,
images\S10_M_H_03.png,images\S10_M_H_03_scrambled.png,10,happy,30,male,6,,477,on,2,0.5,0.75,0.5,0.773,3,476,5,1,1,2,2,32,128,166,,,,,,0,8,8,8,,,,,,,,,,,,,,,,,,,,,,,,,,,,,,,,,,,,,,,,,,,,,,,,,,,,,,,,,293.87967710000066,294.3823121000005,294.3823121000005,295.13762769999994,295.13762769999994,295.6402816,295.6402816,296.4150746000005,296.4150746000005,None,num_4,0.516918600000281,296.4150746000005,None,happy,1,Happy,296.9454025000006,None,None,296.9454025000006,None,,,,,,,,,,,,,,,,,,,,,,,,,,,,,,,,,,,,,,,,,,,,,,,,,,,,,21,001,1,18,525,500,2022_Oct_12_1108,Experiment,2021.1.4,360.4188066587541,
images\S4_M_S_02.png,images\S4_M_S_02_scrambled.png,4,sad,-20,male,2,,143,off,1,0.5,0.75,0.5,0.898,3,142,1,1,1,0,0,0,0,2,,,,,,0,9,9,9,,,,,,,,,,,,,,,,,,,,,,,,,,,,,,,,,,,,,,,,,,,,,,,,,,,,,,,,,297.0314834999999,297.5313180000003,297.5313180000003,298.2839072000006,298.2839072000006,298.78650800000014,298.78650800000014,299.6917903000003,299.6917903000003,None,num_6,0.4638852999996743,299.6917903000003,None,sad,1,Sad,300.1666160000006,None,None,300.1666160000006,None,,,,,,,,,,,,,,,,,,,,,,,,,,,,,,,,,,,,,,,,,,,,,,,,,,,,,21,001,1,18,525,500,2022_Oct_12_1108,Experiment,2021.1.4,360.4188066587541,
images\blank.jpg,images\blank.jpg,none,none,none,none,0,,602,on,2,0.5,0.75,0.5,0.843,0,601,1,1,1,3,3,48,192,240,,,,,,0,10,10,10,,,,,,,,,,,,,,,,,,,,,,,,,,,,,,,,,,,,,,,,,,,,,,,,,,,,,,,,,300.3031496000003,300.80818,300.80818,301.56345880000026,301.56345880000026,302.0660828,302.0660828,302.91309210000054,302.91309210000054,302.91309210000054,None,,302.91309210000054,None,miss,1,,305.91769500000066,None,None,305.91769500000066,None,,,,,,,,,,,,,,,,,,,,,,,,,,,,,,,,,,,,,,,,,,,,,,,,,,,,,21,001,1,18,525,500,2022_Oct_12_1108,Experiment,2021.1.4,360.4188066587541,
images\S4_M_H_01.png,images\S4_M_H_01_scrambled.png,4,happy,10,male,4,,79,on,2,0.5,0.75,0.5,0.943,3,78,2,1,1,2,2,32,128,164,,,,,,0,11,11,11,,,,,,,,,,,,,,,,,,,,,,,,,,,,,,,,,,,,,,,,,,,,,,,,,,,,,,,,,306.04013440000017,306.5452714000003,306.5452714000003,307.29498650000005,307.29498650000005,307.8004466000002,307.8004466000002,308.7473192000007,308.7473192000007,None,num_6,1.032430000000204,308.7473192000007,306.04013440000017,sad,1,Happy,309.7886527000006,None,None,309.7886527000006,None,,,,,,,,,,,,,,,,,,,,,,,,,,,,,,,,,,,,,,,,,,,,,,,,,,,,,21,001,1,18,525,500,2022_Oct_12_1108,Experiment,2021.1.4,360.4188066587541,
images\blank.jpg,images\blank.jpg,none,none,none,none,0,,626,on,2,0.5,0.75,0.5,0.879,0,625,3,1,1,3,3,48,192,240,,,,,,0,12,12,12,,,,,,,,,,,,,,,,,,,,,,,,,,,,,,,,,,,,,,,,,,,,,,,,,,,,,,,,,309.87222890000066,310.3747250000006,310.3747250000006,311.12717880000037,311.12717880000037,311.6269809000005,311.6269809000005,312.51284530000066,312.51284530000066,312.51284530000066,None,,312.51284530000066,None,miss,1,,315.5147340500001,None,None,315.5147340500001,None,,,,,,,,,,,,,,,,,,,,,,,,,,,,,,,,,,,,,,,,,,,,,,,,,,,,,21,001,1,18,525,500,2022_Oct_12_1108,Experiment,2021.1.4,360.4188066587541,
images\S3_F_H_01.png,images\S3_F_H_01_scrambled.png,3,happy,10,female,4,,133,off,1,0.5,0.75,0.5,0.887,3,132,1,1,1,0,0,0,0,4,,,,,,0,13,13,13,,,,,,,,,,,,,,,,,,,,,,,,,,,,,,,,,,,,,,,,,,,,,,,,,,,,,,,,,315.6788346000003,316.18116869999994,316.18116869999994,316.9336970000004,316.9336970000004,317.4335592000007,317.4335592000007,318.32499800000005,318.32499800000005,None,num_4,1.8306234000001496,318.32499800000005,315.6788346000003,happy,1,Happy,320.1660431000002,None,None,320.1660431000002,None,,,,,,,,,,,,,,,,,,,,,,,,,,,,,,,,,,,,,,,,,,,,,,,,,,,,,21,001,1,18,525,500,2022_Oct_12_1108,Experiment,2021.1.4,360.4188066587541,
images\S1_F_H_01.png,images\S1_F_H_01_scrambled.png,1,happy,10,female,4,,361,off,1,0.5,0.75,0.5,0.815,3,360,2,1,2,0,0,0,0,4,,,,,,0,14,14,14,,,,,,,,,,,,,,,,,,,,,,,,,,,,,,,,,,,,,,,,,,,,,,,,,,,,,,,,,320.25210790000074,320.7547609000003,320.7547609000003,321.5072740000005,321.5072740000005,322.0128175,322.0128175,322.83199650000006,322.83199650000006,None,num_4,0.7158070000004955,322.83199650000006,None,happy,1,Happy,323.5650019000006,None,None,323.5650019000006,None,,,,,,,,,,,,,,,,,,,,,,,,,,,,,,,,,,,,,,,,,,,,,,,,,,,,,21,001,1,18,525,500,2022_Oct_12_1108,Experiment,2021.1.4,360.4188066587541,
images\S4_M_H_02.png,images\S4_M_H_02_scrambled.png,4,happy,20,male,5,,560,on,2,0.5,0.75,0.5,0.787,3,559,1,1,1,2,2,32,128,165,,,,,,0,15,15,15,,,,,,,,,,,,,,,,,,,,,,,,,,,,,,,,,,,,,,,,,,,,,,,,,,,,,,,,,323.65106319999995,324.15090409999993,324.15090409999993,324.9062595000005,324.9062595000005,325.4089754000006,325.4089754000006,326.20029840000007,326.20029840000007,None,num_4,0.8436010000004899,326.20029840000007,None,happy,1,Happy,327.05835570000016,None,None,327.05835570000016,None,,,,,,,,,,,,,,,,,,,,,,,,,,,,,,,,,,,,,,,,,,,,,,,,,,,,,21,001,1,18,525,500,2022_Oct_12_1108,Experiment,2021.1.4,360.4188066587541,
images\S3_F_H_01.png,images\S3_F_H_01_scrambled.png,3,happy,10,female,4,,193,on,2,0.5,0.75,0.5,0.766,3,192,2,1,1,2,2,32,128,164,,,,,,0,16,16,16,,,,,,,,,,,,,,,,,,,,,,,,,,,,,,,,,,,,,,,,,,,,,,,,,,,,,,,,,327.10834049999994,327.6109815,327.6109815,328.3635297999999,328.3635297999999,328.86614499999996,328.86614499999996,329.63537970000016,329.63537970000016,None,num_4,1.0727921000006972,329.63537970000016,None,happy,1,Happy,330.7238679500001,None,None,330.7238679500001,None,,,,,,,,,,,,,,,,,,,,,,,,,,,,,,,,,,,,,,,,,,,,,,,,,,,,,21,001,1,18,525,500,2022_Oct_12_1108,Experiment,2021.1.4,360.4188066587541,
images\S2_M_H_01.png,images\S2_M_H_01_scrambled.png,2,happy,10,male,4,,487,off,1,0.5,0.75,0.5,0.926,3,486,1,1,2,0,0,0,0,4,,,,,,0,17,17,17,,,,,,,,,,,,,,,,,,,,,,,,,,,,,,,,,,,,,,,,,,,,,,,,,,,,,,,,,330.8126871000004,331.3154250000007,331.3154250000007,332.0679622000007,332.0679622000007,332.5677740000001,332.5677740000001,333.50084810000044,333.50084810000044,None,num_4,0.8388970000005429,333.50084810000044,None,happy,1,Happy,334.3533334000005,None,None,334.3533334000005,None,,,,,,,,,,,,,,,,,,,,,,,,,,,,,,,,,,,,,,,,,,,,,,,,,,,,,21,001,1,18,525,500,2022_Oct_12_1108,Experiment,2021.1.4,360.4188066587541,
images\S7_F_H_03.png,images\S7_F_H_03_scrambled.png,7,happy,30,female,6,,279,off,1,0.5,0.75,0.5,0.945,3,278,2,1,1,0,0,0,0,6,,,,,,0,18,18,18,,,,,,,,,,,,,,,,,,,,,,,,,,,,,,,,,,,,,,,,,,,,,,,,,,,,,,,,,334.4366368000001,334.9421136000001,334.9421136000001,335.6917975000006,335.6917975000006,336.19724850000057,336.19724850000057,337.14413010000044,337.14413010000044,None,num_4,0.8995454000005338,337.14413010000044,None,happy,1,Happy,338.0577401000002,None,None,338.0577401000002,None,,,,,,,,,,,,,,,,,,,,,,,,,,,,,,,,,,,,,,,,,,,,,,,,,,,,,21,001,1,18,525,500,2022_Oct_12_1108,Experiment,2021.1.4,360.4188066587541,
images\S10_M_S_03.png,images\S10_M_S_03_scrambled.png,10,sad,-30,male,1,,120,on,2,0.5,0.75,0.5,0.829,3,119,1,1,1,2,2,32,128,161,,,,,,0,19,19,19,,,,,,,,,,,,,,,,,,,,,,,,,,,,,,,,,,,,,,,,,,,,,,,,,,,,,,,,,338.1410523000004,338.6408934000001,338.6408934000001,339.3906893000003,339.3906893000003,339.89613830000053,339.89613830000053,340.7291455000004,340.7291455000004,None,num_6,1.2986473999999362,340.7291455000004,None,sad,1,Sad,342.0398613999998,None,None,342.0398613999998,None,,,,,,,,,,,,,,,,,,,,,,,,,,,,,,,,,,,,,,,,,,,,,,,,,,,,,21,001,1,18,525,500,2022_Oct_12_1108,Experiment,2021.1.4,360.4188066587541,
images\S1_F_H_03.png,images\S1_F_H_03_scrambled.png,1,happy,30,female,6,,423,on,2,0.5,0.75,0.5,0.882,3,422,2,1,1,2,2,32,128,166,,,,,,0,20,20,20,,,,,,,,,,,,,,,,,,,,,,,,,,,,,,,,,,,,,,,,,,,,,,,,,,,,,,,,,342.12315320000016,342.62581970000065,342.62581970000065,343.38112830000046,343.38112830000046,343.88653950000025,343.88653950000025,344.7751707000007,344.7751707000007,None,num_4,0.7246836000003896,344.7751707000007,None,happy,1,Happy,345.5137869000002,None,None,345.5137869000002,None,,,,,,,,,,,,,,,,,,,,,,,,,,,,,,,,,,,,,,,,,,,,,,,,,,,,,21,001,1,18,525,500,2022_Oct_12_1108,Experiment,2021.1.4,360.4188066587541,
images\S1_F_S_01.png,images\S1_F_S_01_scrambled.png,1,sad,-10,female,3,,364,off,1,0.5,0.75,0.5,0.854,3,363,1,2,1,0,0,0,0,3,,,,,,0,21,21,21,,,,,,,,,,,,,,,,,,,,,,,,,,,,,,,,,,,,,,,,,,,,,,,,,,,,,,,,,345.59709100000055,346.1025146000002,346.1025146000002,346.8522588000005,346.8522588000005,347.35500330000013,347.35500330000013,348.21016409999993,348.21016409999993,None,num_4,0.7055406999998013,348.21016409999993,None,happy,1,Sad,348.92109889999995,None,None,348.92109889999995,None,,,,,,,,,,,,,,,,,,,,,,,,,,,,,,,,,,,,,,,,,,,,,,,,,,,,,21,001,1,18,525,500,2022_Oct_12_1108,Experiment,2021.1.4,360.4188066587541,
images\S4_M_S_03.png,images\S4_M_S_03_scrambled.png,4,sad,-30,male,1,,24,off,1,0.5,0.75,0.5,0.872,3,23,2,1,1,0,0,0,0,1,,,,,,0,22,22,22,,,,,,,,,,,,,,,,,,,,,,,,,,,,,,,,,,,,,,,,,,,,,,,,,,,,,,,,,349.0043701000004,349.50422060000074,349.50422060000074,350.25680250000005,350.25680250000005,350.7621884,350.7621884,351.63693779999994,351.63693779999994,None,num_6,0.5107157000002189,351.63693779999994,None,sad,1,Sad,352.1617269,None,None,352.1617269,None,,,,,,,,,,,,,,,,,,,,,,,,,,,,,,,,,,,,,,,,,,,,,,,,,,,,,21,001,1,18,525,500,2022_Oct_12_1108,Experiment,2021.1.4,360.4188066587541,
images\S8_M_H_02.png,images\S8_M_H_02_scrambled.png,8,happy,20,male,5,,404,off,1,0.5,0.75,0.5,0.795,3,403,3,1,1,0,0,0,0,5,,,,,,0,23,23,23,,,,,,,,,,,,,,,,,,,,,,,,,,,,,,,,,,,,,,,,,,,,,,,,,,,,,,,,,352.2728209000006,352.7782257000008,352.7782257000008,353.5335455000004,353.5335455000004,354.03339310000047,354.03339310000047,354.8305084000003,354.8305084000003,None,num_4,0.7091685999994297,354.8305084000003,None,happy,1,Happy,355.5551427000002,None,None,355.5551427000002,None,,,,,,,,,,,,,,,,,,,,,,,,,,,,,,,,,,,,,,,,,,,,,,,,,,,,,21,001,1,18,525,500,2022_Oct_12_1108,Experiment,2021.1.4,360.4188066587541,
images\S10_M_H_03.png,images\S10_M_H_03_scrambled.png,10,happy,30,male,6,,297,off,1,0.5,0.75,0.5,0.753,3,296,4,1,1,0,0,0,0,6,,,,,,0,24,24,24,,,,,,,,,,,,,,,,,,,,,,,,,,,,,,,,,,,,,,,,,,,,,,,,,,,,,,,,,355.6023483000008,356.10775980000017,356.10775980000017,356.86305990000074,356.86305990000074,357.36290700000063,357.36290700000063,358.1182458000003,358.1182458000003,None,num_4,0.4854453999996622,358.1182458000003,None,happy,1,Happy,358.6153120000001,None,None,358.6153120000001,None,,,,,,,,,,,,,,,,,,,,,,,,,,,,,,,,,,,,,,,,,,,,,,,,,,,,,21,001,1,18,525,500,2022_Oct_12_1108,Experiment,2021.1.4,360.4188066587541,
images\S2_M_H_01.png,images\S2_M_H_01_scrambled.png,2,happy,10,male,4,,367,off,1,0.5,0.75,0.5,0.882,3,366,5,1,1,0,0,0,0,4,,,,,,0,25,25,25,,,,,,,,,,,,,,,,,,,,,,,,,,,,,,,,,,,,,,,,,,,,,,,,,,,,,,,,,358.66250930000024,359.1679929000002,359.1679929000002,359.92327620000015,359.92327620000015,360.4286755000003,360.4286755000003,361.31727540000065,361.31727540000065,None,num_4,0.4306723999998212,361.31727540000065,None,happy,1,Happy,361.76155990000024,None,None,361.76155990000024,None,,,,,,,,,,,,,,,,,,,,,,,,,,,,,,,,,,,,,,,,,,,,,,,,,,,,,21,001,1,18,525,500,2022_Oct_12_1108,Experiment,2021.1.4,360.4188066587541,
images\S10_M_S_03.png,images\S10_M_S_03_scrambled.png,10,sad,-30,male,1,,360,on,2,0.5,0.75,0.5,0.907,3,359,1,1,1,2,2,32,128,161,,,,,,0,26,26,26,,,,,,,,,,,,,,,,,,,,,,,,,,,,,,,,,,,,,,,,,,,,,,,,,,,,,,,,,361.8087619000007,362.31141560000015,362.31141560000015,363.0640652000002,363.0640652000002,363.56656640000074,363.56656640000074,364.48020859999997,364.48020859999997,None,num_6,0.5400423999999475,364.48020859999997,None,sad,1,Sad,365.04393825,None,None,365.04393825,None,,,,,,,,,,,,,,,,,,,,,,,,,,,,,,,,,,,,,,,,,,,,,,,,,,,,,21,001,1,18,525,500,2022_Oct_12_1108,Experiment,2021.1.4,360.4188066587541,
images\S8_M_H_01.png,images\S8_M_H_01_scrambled.png,8,happy,10,male,4,,523,off,1,0.5,0.75,0.5,0.814,3,522,1,1,1,0,0,0,0,4,,,,,,0,27,27,27,,,,,,,,,,,,,,,,,,,,,,,,,,,,,,,,,,,,,,,,,,,,,,,,,,,,,,,,,365.1550664000006,365.66040599999997,365.66040599999997,366.4101324000003,366.4101324000003,366.9155617000006,366.9155617000006,367.7348389000008,367.7348389000008,None,num_4,0.5970636000001832,367.7348389000008,None,happy,1,Happy,368.34564380000046,None,None,368.34564380000046,None,,,,,,,,,,,,,,,,,,,,,,,,,,,,,,,,,,,,,,,,,,,,,,,,,,,,,21,001,1,18,525,500,2022_Oct_12_1108,Experiment,2021.1.4,360.4188066587541,
images\S1_F_S_02.png,images\S1_F_S_02_scrambled.png,1,sad,-20,female,2,,425,on,2,0.5,0.75,0.5,0.752,3,424,1,1,1,2,2,32,128,162,,,,,,0,28,28,28,,,,,,,,,,,,,,,,,,,,,,,,,,,,,,,,,,,,,,,,,,,,,,,,,,,,,,,,,368.42895560000034,368.9344062,368.9344062,369.68970830000035,369.68970830000035,370.1951116,370.1951116,370.9503927000005,370.9503927000005,None,num_4,0.6134580999996615,370.9503927000005,None,happy,1,Sad,371.57243060000076,None,None,371.57243060000076,None,,,,,,,,,,,,,,,,,,,,,,,,,,,,,,,,,,,,,,,,,,,,,,,,,,,,,21,001,1,18,525,500,2022_Oct_12_1108,Experiment,2021.1.4,360.4188066587541,
images\S9_F_H_03.png,images\S9_F_H_03_scrambled.png,9,happy,30,female,6,,111,on,2,0.5,0.75,0.5,0.864,3,110,2,1,1,2,2,32,128,166,,,,,,0,29,29,29,,,,,,,,,,,,,,,,,,,,,,,,,,,,,,,,,,,,,,,,,,,,,,,,,,,,,,,,,371.6585135000005,372.1611778000006,372.1611778000006,372.9108999,372.9108999,373.41634650000015,373.41634650000015,374.27992280000035,374.27992280000035,None,num_4,0.3318292999992991,374.27992280000035,None,happy,1,Happy,374.6298571500006,None,None,374.6298571500006,None,,,,,,,,,,,,,,,,,,,,,,,,,,,,,,,,,,,,,,,,,,,,,,,,,,,,,21,001,1,18,525,500,2022_Oct_12_1108,Experiment,2021.1.4,360.4188066587541,
images\S10_M_H_01.png,images\S10_M_H_01_scrambled.png,10,happy,10,male,4,,295,off,1,0.5,0.75,0.5,0.856,3,294,1,1,1,0,0,0,0,4,,,,,,0,30,30,30,,,,,,,,,,,,,,,,,,,,,,,,,,,,,,,,,,,,,,,,,,,,,,,,,,,,,,,,,374.6770273000002,375.18245170000046,375.18245170000046,375.93499880000036,375.93499880000036,376.43761470000027,376.43761470000027,377.2956813999999,377.2956813999999,None,num_4,0.48451380000005884,377.2956813999999,None,happy,1,Happy,377.79548540000013,None,None,377.79548540000013,None,,,,,,,,,,,,,,,,,,,,,,,,,,,,,,,,,,,,,,,,,,,,,,,,,,,,,21,001,1,18,525,500,2022_Oct_12_1108,Experiment,2021.1.4,360.4188066587541,
images\S8_M_H_02.png,images\S8_M_H_02_scrambled.png,8,happy,20,male,5,,224,on,2,0.5,0.75,0.5,0.765,3,223,1,1,1,2,2,32,128,165,,,,,,0,31,31,31,,,,,,,,,,,,,,,,,,,,,,,,,,,,,,,,,,,,,,,,,,,,,,,,,,,,,,,,,377.8593789000006,378.36200460000055,378.36200460000055,379.1145933000007,379.1145933000007,379.62007190000077,379.62007190000077,380.3919719000005,380.3919719000005,None,num_4,0.5156901999998809,380.3919719000005,None,happy,1,Happy,380.92232580000035,None,None,380.92232580000035,None,,,,,,,,,,,,,,,,,,,,,,,,,,,,,,,,,,,,,,,,,,,,,,,,,,,,,21,001,1,18,525,500,2022_Oct_12_1108,Experiment,2021.1.4,360.4188066587541,
images\S1_F_H_01.png,images\S1_F_H_01_scrambled.png,1,happy,10,female,4,,481,off,1,0.5,0.75,0.5,0.855,3,480,1,1,1,0,0,0,0,4,,,,,,0,32,32,32,,,,,,,,,,,,,,,,,,,,,,,,,,,,,,,,,,,,,,,,,,,,,,,,,,,,,,,,,380.9695401000008,381.4721599000004,381.4721599000004,382.224741,382.224741,382.7273634000003,382.7273634000003,383.58539030000065,383.58539030000065,None,num_4,0.6903903000002174,383.58539030000065,None,happy,1,Happy,384.2991250999998,None,None,384.2991250999998,None,,,,,,,,,,,,,,,,,,,,,,,,,,,,,,,,,,,,,,,,,,,,,,,,,,,,,21,001,1,18,525,500,2022_Oct_12_1108,Experiment,2021.1.4,360.4188066587541,
images\blank.jpg,images\blank.jpg,none,none,none,none,0,,632,on,2,0.5,0.75,0.5,0.781,0,631,1,1,1,3,3,48,192,240,,,,,,0,33,33,33,,,,,,,,,,,,,,,,,,,,,,,,,,,,,,,,,,,,,,,,,,,,,,,,,,,,,,,,,384.39927270000044,384.9044595000005,384.9044595000005,385.6597967000007,385.6597967000007,386.1623793000008,386.1623793000008,386.94273450000037,386.94273450000037,386.94273450000037,None,,386.94273450000037,None,miss,1,,389.94462460000034,None,None,389.94462460000034,None,,,,,,,,,,,,,,,,,,,,,,,,,,,,,,,,,,,,,,,,,,,,,,,,,,,,,21,001,1,18,525,500,2022_Oct_12_1108,Experiment,2021.1.4,360.4188066587541,
images\S1_F_H_03.png,images\S1_F_H_03_scrambled.png,1,happy,30,female,6,,543,on,2,0.5,0.75,0.5,0.848,3,542,2,1,1,2,2,32,128,166,,,,,,0,34,34,34,,,,,,,,,,,,,,,,,,,,,,,,,,,,,,,,,,,,,,,,,,,,,,,,,,,,,,,,,390.06700180000007,390.56935800000065,390.56935800000065,391.3219056000007,391.3219056000007,391.82733069999995,391.82733069999995,392.6770385,392.6770385,None,num_4,1.1985850999999457,392.6770385,390.06700180000007,happy,1,Happy,393.89056,None,None,393.89056,None,,,,,,,,,,,,,,,,,,,,,,,,,,,,,,,,,,,,,,,,,,,,,,,,,,,,,21,001,1,18,525,500,2022_Oct_12_1108,Experiment,2021.1.4,360.4188066587541,
images\S6_M_S_01.png,images\S6_M_S_01_scrambled.png,6,sad,-10,male,3,,154,off,1,0.5,0.75,0.5,0.85,3,153,1,1,1,0,0,0,0,3,,,,,,0,35,35,35,,,,,,,,,,,,,,,,,,,,,,,,,,,,,,,,,,,,,,,,,,,,,,,,,,,,,,,,,393.9710857,394.47652800000014,394.47652800000014,395.2262655000004,395.2262655000004,395.7316958000001,395.7316958000001,396.5869874,396.5869874,None,num_6,0.5849890999998024,396.5869874,None,sad,1,Sad,397.1867702000001,None,None,397.1867702000001,None,,,,,,,,,,,,,,,,,,,,,,,,,,,,,,,,,,,,,,,,,,,,,,,,,,,,,21,001,1,18,525,500,2022_Oct_12_1108,Experiment,2021.1.4,360.4188066587541,
images\S3_F_S_03.png,images\S3_F_S_03_scrambled.png,3,sad,-30,female,1,,18,off,1,0.5,0.75,0.5,0.753,3,17,2,1,1,0,0,0,0,1,,,,,,0,36,36,36,,,,,,,,,,,,,,,,,,,,,,,,,,,,,,,,,,,,,,,,,,,,,,,,,,,,,,,,,397.2700760000007,397.77273460000015,397.77273460000015,398.5280558000004,398.5280558000004,399.0306806000008,399.0306806000008,399.7859619999999,399.7859619999999,None,num_6,0.6338126999999076,399.7859619999999,None,sad,1,Sad,400.4330200500003,None,None,400.4330200500003,None,,,,,,,,,,,,,,,,,,,,,,,,,,,,,,,,,,,,,,,,,,,,,,,,,,,,,21,001,1,18,525,500,2022_Oct_12_1108,Experiment,2021.1.4,360.4188066587541,
images\S10_M_H_03.png,images\S10_M_H_03_scrambled.png,10,happy,30,male,6,,57,off,1,0.5,0.75,0.5,0.854,3,56,3,1,1,0,0,0,0,6,,,,,,0,37,37,37,,,,,,,,,,,,,,,,,,,,,,,,,,,,,,,,,,,,,,,,,,,,,,,,,,,,,,,,,400.48019700000077,400.9800440000008,400.9800440000008,401.72981640000035,401.72981640000035,402.23248050000075,402.23248050000075,403.0906235000002,403.0906235000002,None,num_4,0.4169286000005741,403.0906235000002,None,happy,1,Happy,403.5181770000001,None,None,403.5181770000001,None,,,,,,,,,,,,,,,,,,,,,,,,,,,,,,,,,,,,,,,,,,,,,,,,,,,,,21,001,1,18,525,500,2022_Oct_12_1108,Experiment,2021.1.4,360.4188066587541,
images\S1_F_H_03.png,images\S1_F_H_03_scrambled.png,1,happy,30,female,6,,303,on,2,0.5,0.75,0.5,0.883,3,302,1,1,2,2,2,32,128,166,,,,,,0,38,38,38,,,,,,,,,,,,,,,,,,,,,,,,,,,,,,,,,,,,,,,,,,,,,,,,,,,,,,,,,403.5710022000003,404.07357820000016,404.07357820000016,404.8260884000001,404.8260884000001,405.32881330000055,405.32881330000055,406.21453610000026,406.21453610000026,None,num_4,0.7812003999997614,406.21453610000026,None,happy,1,Happy,407.0115078499998,None,None,407.0115078499998,None,,,,,,,,,,,,,,,,,,,,,,,,,,,,,,,,,,,,,,,,,,,,,,,,,,,,,21,001,1,18,525,500,2022_Oct_12_1108,Experiment,2021.1.4,360.4188066587541,
images\S2_M_S_03.png,images\S2_M_S_03_scrambled.png,2,sad,-30,male,1,,372,off,1,0.5,0.75,0.5,0.786,3,371,1,1,1,0,0,0,0,1,,,,,,0,39,39,39,,,,,,,,,,,,,,,,,,,,,,,,,,,,,,,,,,,,,,,,,,,,,,,,,,,,,,,,,407.0948352000005,407.6002567000005,407.6002567000005,408.35557040000003,408.35557040000003,408.8581847000005,408.8581847000005,409.64682660000017,409.64682660000017,None,num_6,0.6209524999994755,409.64682660000017,None,sad,1,Sad,410.2827409000003,None,None,410.2827409000003,None,,,,,,,,,,,,,,,,,,,,,,,,,,,,,,,,,,,,,,,,,,,,,,,,,,,,,21,001,1,18,525,500,2022_Oct_12_1108,Experiment,2021.1.4,360.4188066587541,
images\S10_M_S_03.png,images\S10_M_S_03_scrambled.png,10,sad,-30,male,1,,600,on,2,0.5,0.75,0.5,0.911,3,599,1,1,2,2,2,32,128,161,,,,,,0,40,40,40,,,,,,,,,,,,,,,,,,,,,,,,,,,,,,,,,,,,,,,,,,,,,,,,,,,,,,,,,410.33271910000076,410.8353726000005,410.8353726000005,411.5906971000004,411.5906971000004,412.0932872000003,412.0932872000003,413.00971050000044,413.00971050000044,None,num_6,0.5299633999993603,413.00971050000044,None,sad,1,Sad,413.5511734000003,None,None,413.5511734000003,None,,,,,,,,,,,,,,,,,,,,,,,,,,,,,,,,,,,,,,,,,,,,,,,,,,,,,21,001,1,18,525,500,2022_Oct_12_1108,Experiment,2021.1.4,360.4188066587541,
images\S8_M_S_03.png,images\S8_M_S_03_scrambled.png,8,sad,-30,male,1,,228,on,2,0.5,0.75,0.5,0.751,3,227,2,1,3,2,2,32,128,161,,,,,,0,41,41,41,,,,,,,,,,,,,,,,,,,,,,,,,,,,,,,,,,,,,,,,,,,,,,,,,,,,,,,,,413.5983799000005,414.1010315000003,414.1010315000003,414.8507393,414.8507393,415.3506374000008,415.3506374000008,416.1088542000007,416.1088542000007,None,num_6,0.7827750000005835,416.1088542000007,None,sad,1,Sad,416.9029382999999,None,None,416.9029382999999,None,,,,,,,,,,,,,,,,,,,,,,,,,,,,,,,,,,,,,,,,,,,,,,,,,,,,,21,001,1,18,525,500,2022_Oct_12_1108,Experiment,2021.1.4,360.4188066587541,
images\blank.jpg,images\blank.jpg,none,none,none,none,0,,610,on,2,0.5,0.75,0.5,0.752,0,609,3,1,1,3,3,48,192,240,,,,,,0,42,42,42,,,,,,,,,,,,,,,,,,,,,,,,,,,,,,,,,,,,,,,,,,,,,,,,,,,,,,,,,416.9864283000006,417.49163510000017,417.49163510000017,418.2414036,418.2414036,418.7440264000006,418.7440264000006,419.4966062000003,419.4966062000003,419.4966062000003,None,,419.4966062000003,None,miss,1,,422.49848669999994,None,None,422.49848669999994,None,,,,,,,,,,,,,,,,,,,,,,,,,,,,,,,,,,,,,,,,,,,,,,,,,,,,,21,001,1,18,525,500,2022_Oct_12_1108,Experiment,2021.1.4,360.4188066587541,
images\S10_M_H_02.png,images\S10_M_H_02_scrambled.png,10,happy,20,male,5,,596,on,2,0.5,0.75,0.5,0.94,3,595,4,1,1,2,2,32,128,165,,,,,,0,43,43,43,,,,,,,,,,,,,,,,,,,,,,,,,,,,,,,,,,,,,,,,,,,,,,,,,,,,,,,,,422.6597221000002,423.1593335000007,423.1593335000007,423.90909940000074,423.90909940000074,424.4089675000005,424.4089675000005,425.3558920000005,425.3558920000005,None,num_4,0.4077628000004552,425.3558920000005,422.6597221000002,happy,1,Happy,425.77795840000016,None,None,425.77795840000016,None,,,,,,,,,,,,,,,,,,,,,,,,,,,,,,,,,,,,,,,,,,,,,,,,,,,,,21,001,1,18,525,500,2022_Oct_12_1108,Experiment,2021.1.4,360.4188066587541,
images\S4_M_S_02.png,images\S4_M_S_02_scrambled.png,4,sad,-20,male,2,,23,off,1,0.5,0.75,0.5,0.753,3,22,1,1,1,0,0,0,0,2,,,,,,0,44,44,44,,,,,,,,,,,,,,,,,,,,,,,,,,,,,,,,,,,,,,,,,,,,,,,,,,,,,,,,,425.82795200000055,426.3335078,426.3335078,427.0859151000004,427.0859151000004,427.58853780000027,427.58853780000027,428.3439238000001,428.3439238000001,None,num_6,0.3157672999996066,428.3439238000001,None,sad,1,Sad,428.6742901999998,None,None,428.6742901999998,None,,,,,,,,,,,,,,,,,,,,,,,,,,,,,,,,,,,,,,,,,,,,,,,,,,,,,21,001,1,18,525,500,2022_Oct_12_1108,Experiment,2021.1.4,360.4188066587541,
images\S7_F_H_03.png,images\S7_F_H_03_scrambled.png,7,happy,30,female,6,,579,on,2,0.5,0.75,0.5,0.814,3,578,1,1,1,2,2,32,128,166,,,,,,0,45,45,45,,,,,,,,,,,,,,,,,,,,,,,,,,,,,,,,,,,,,,,,,,,,,,,,,,,,,,,,,428.72150820000024,429.2241690000001,429.2241690000001,429.9739087000007,429.9739087000007,430.47934460000033,430.47934460000033,431.2957369000005,431.2957369000005,None,num_4,0.3087727000001905,431.2957369000005,None,happy,1,Happy,431.6290791500006,None,None,431.6290791500006,None,,,,,,,,,,,,,,,,,,,,,,,,,,,,,,,,,,,,,,,,,,,,,,,,,,,,,21,001,1,18,525,500,2022_Oct_12_1108,Experiment,2021.1.4,360.4188066587541,
images\S10_M_H_02.png,images\S10_M_H_02_scrambled.png,10,happy,20,male,5,,176,off,1,0.5,0.75,0.5,0.765,3,175,1,1,1,0,0,0,0,5,,,,,,0,46,46,46,,,,,,,,,,,,,,,,,,,,,,,,,,,,,,,,,,,,,,,,,,,,,,,,,,,,,,,,,431.6816968000003,432.1815626000007,432.1815626000007,432.9313296,432.9313296,433.43402910000077,433.43402910000077,434.2032783000004,434.2032783000004,None,num_4,0.2650014999999257,434.2032783000004,None,happy,1,Happy,434.4947426000003,None,None,434.4947426000003,None,,,,,,,,,,,,,,,,,,,,,,,,,,,,,,,,,,,,,,,,,,,,,,,,,,,,,21,001,1,18,525,500,2022_Oct_12_1108,Experiment,2021.1.4,360.4188066587541,
images\S1_F_H_01.png,images\S1_F_H_01_scrambled.png,1,happy,10,female,4,,541,on,2,0.5,0.75,0.5,0.919,3,540,1,1,1,2,2,32,128,164,,,,,,0,47,47,47,,,,,,,,,,,,,,,,,,,,,,,,,,,,,,,,,,,,,,,,,,,,,,,,,,,,,,,,,434.55859690000034,435.0612142,435.0612142,435.81099340000037,435.81099340000037,436.31374529999994,436.31374529999994,437.23554870000044,437.23554870000044,None,num_4,0.4002961999995023,437.23554870000044,None,happy,1,Happy,437.65208249999995,None,None,437.65208249999995,None,,,,,,,,,,,,,,,,,,,,,,,,,,,,,,,,,,,,,,,,,,,,,,,,,,,,,21,001,1,18,525,500,2022_Oct_12_1108,Experiment,2021.1.4,360.4188066587541,
images\S3_F_H_03.png,images\S3_F_H_03_scrambled.png,3,happy,30,female,6,,135,off,1,0.5,0.75,0.5,0.764,3,134,1,1,1,0,0,0,0,6,,,,,,0,48,48,48,,,,,,,,,,,,,,,,,,,,,,,,,,,,,,,,,,,,,,,,,,,,,,,,,,,,,,,,,437.7354036000006,438.23815060000015,438.23815060000015,438.98778390000007,438.98778390000007,439.48764070000016,439.48764070000016,440.2541123000001,440.2541123000001,None,num_4,0.3496795999999449,440.2541123000001,None,happy,1,Happy,440.6178631000004,None,None,440.6178631000004,None,,,,,,,,,,,,,,,,,,,,,,,,,,,,,,,,,,,,,,,,,,,,,,,,,,,,,21,001,1,18,525,500,2022_Oct_12_1108,Experiment,2021.1.4,360.4188066587541,
images\S10_M_H_01.png,images\S10_M_H_01_scrambled.png,10,happy,10,male,4,,535,off,1,0.5,0.75,0.5,0.797,3,534,2,1,1,0,0,0,0,4,,,,,,0,49,49,49,,,,,,,,,,,,,,,,,,,,,,,,,,,,,,,,,,,,,,,,,,,,,,,,,,,,,,,,,440.6650567000006,441.16769190000014,441.16769190000014,441.9202058999999,441.9202058999999,442.4257292000002,442.4257292000002,443.22551380000004,443.22551380000004,None,num_4,0.41819440000017494,443.22551380000004,None,happy,1,Happy,443.6585809,None,None,443.6585809,None,,,,,,,,,,,,,,,,,,,,,,,,,,,,,,,,,,,,,,,,,,,,,,,,,,,,,21,001,1,18,525,500,2022_Oct_12_1108,Experiment,2021.1.4,360.4188066587541,
images\S8_M_H_01.png,images\S8_M_H_01_scrambled.png,8,happy,10,male,4,,343,on,2,0.5,0.75,0.5,0.844,3,342,1,1,2,2,2,32,128,164,,,,,,0,50,50,50,,,,,,,,,,,,,,,,,,,,,,,,,,,,,,,,,,,,,,,,,,,,,,,,,,,,,,,,,443.70581350000066,444.20841700000074,444.20841700000074,444.9637347000007,444.9637347000007,445.46639140000025,445.46639140000025,446.3161445000005,446.3161445000005,None,num_4,0.47975009999936447,446.3161445000005,None,happy,1,Happy,446.8103812000001,None,None,446.8103812000001,None,,,,,,,,,,,,,,,,,,,,,,,,,,,,,,,,,,,,,,,,,,,,,,,,,,,,,21,001,1,18,525,500,2022_Oct_12_1108,Experiment,2021.1.4,360.4188066587541,
images\S7_F_S_03.png,images\S7_F_S_03_scrambled.png,7,sad,-30,female,1,,462,on,2,0.5,0.75,0.5,0.853,3,461,2,1,1,2,2,32,128,161,,,,,,0,51,51,51,,,,,,,,,,,,,,,,,,,,,,,,,,,,,,,,,,,,,,,,,,,,,,,,,,,,,,,,,446.8575905000007,447.3602002000007,447.3602002000007,448.10997640000005,448.10997640000005,448.6098146000004,448.6098146000004,449.46793870000056,449.46793870000056,None,num_6,0.5758395000002565,449.46793870000056,None,sad,1,Sad,450.05660970000025,None,None,450.05660970000025,None,,,,,,,,,,,,,,,,,,,,,,,,,,,,,,,,,,,,,,,,,,,,,,,,,,,,,21,001,1,18,525,500,2022_Oct_12_1108,Experiment,2021.1.4,360.4188066587541,
images\S4_M_S_02.png,images\S4_M_S_02_scrambled.png,4,sad,-20,male,2,,443,on,2,0.5,0.75,0.5,0.894,3,442,3,1,1,2,2,32,128,162,,,,,,0,52,52,52,,,,,,,,,,,,,,,,,,,,,,,,,,,,,,,,,,,,,,,,,,,,,,,,,,,,,,,,,450.1065868000005,450.60644720000073,450.60644720000073,451.3590647000001,451.3590647000001,451.8644385000007,451.8644385000007,452.7613412999999,452.7613412999999,None,num_6,0.4510768999998618,452.7613412999999,None,sad,1,Sad,453.24194144999973,None,None,453.24194144999973,None,,,,,,,,,,,,,,,,,,,,,,,,,,,,,,,,,,,,,,,,,,,,,,,,,,,,,21,001,1,18,525,500,2022_Oct_12_1108,Experiment,2021.1.4,360.4188066587541,
images\S8_M_S_03.png,images\S8_M_S_03_scrambled.png,8,sad,-30,male,1,,588,on,2,0.5,0.75,0.5,0.851,3,587,4,1,1,2,2,32,128,161,,,,,,0,53,53,53,,,,,,,,,,,,,,,,,,,,,,,,,,,,,,,,,,,,,,,,,,,,,,,,,,,,,,,,,453.29450180000003,453.7971176000001,453.7971176000001,454.5468868000007,454.5468868000007,455.0495496000003,455.0495496000003,455.9048427000007,455.9048427000007,None,num_6,0.9629294000005757,455.9048427000007,None,sad,1,Sad,456.88227490000025,None,None,456.88227490000025,None,,,,,,,,,,,,,,,,,,,,,,,,,,,,,,,,,,,,,,,,,,,,,,,,,,,,,21,001,1,18,525,500,2022_Oct_12_1108,Experiment,2021.1.4,360.4188066587541,
images\S7_F_H_03.png,images\S7_F_H_03_scrambled.png,7,happy,30,female,6,,459,on,2,0.5,0.75,0.5,0.77,3,458,5,1,1,2,2,32,128,166,,,,,,0,54,54,54,,,,,,,,,,,,,,,,,,,,,,,,,,,,,,,,,,,,,,,,,,,,,,,,,,,,,,,,,456.92949339999996,457.43213880000076,457.43213880000076,458.18469860000005,458.18469860000005,458.68727190000027,458.68727190000027,459.4592538000006,459.4592538000006,None,num_4,0.43242800000007264,459.4592538000006,None,happy,1,Happy,459.9119509999999,None,None,459.9119509999999,None,,,,,,,,,,,,,,,,,,,,,,,,,,,,,,,,,,,,,,,,,,,,,,,,,,,,,21,001,1,18,525,500,2022_Oct_12_1108,Experiment,2021.1.4,360.4188066587541,
images\S6_M_S_02.png,images\S6_M_S_02_scrambled.png,6,sad,-20,male,2,,275,off,1,0.5,0.75,0.5,0.814,3,274,1,1,1,0,0,0,0,2,,,,,,0,55,55,55,,,,,,,,,,,,,,,,,,,,,,,,,,,,,,,,,,,,,,,,,,,,,,,,,,,,,,,,,459.99793210000007,460.5006306000005,460.5006306000005,461.2560200000007,461.2560200000007,461.76138940000055,461.76138940000055,462.58065160000024,462.58065160000024,None,num_6,0.25495430000046326,462.58065160000024,None,sad,1,Sad,462.84990135,None,None,462.84990135,None,,,,,,,,,,,,,,,,,,,,,,,,,,,,,,,,,,,,,,,,,,,,,,,,,,,,,21,001,1,18,525,500,2022_Oct_12_1108,Experiment,2021.1.4,360.4188066587541,
images\S8_M_S_03.png,images\S8_M_S_03_scrambled.png,8,sad,-30,male,1,,348,on,2,0.5,0.75,0.5,0.79,3,347,1,1,1,2,2,32,128,161,,,,,,0,56,56,56,,,,,,,,,,,,,,,,,,,,,,,,,,,,,,,,,,,,,,,,,,,,,,,,,,,,,,,,,462.8971583000002,463.3998506000007,463.3998506000007,464.1495279999999,464.1495279999999,464.64937310000005,464.64937310000005,465.4463588000008,465.4463588000008,None,num_6,0.46138710000013816,465.4463588000008,None,sad,1,Sad,465.9295621500006,None,None,465.9295621500006,None,,,,,,,,,,,,,,,,,,,,,,,,,,,,,,,,,,,,,,,,,,,,,,,,,,,,,21,001,1,18,525,500,2022_Oct_12_1108,Experiment,2021.1.4,360.4188066587541,
images\S1_F_H_03.png,images\S1_F_H_03_scrambled.png,1,happy,30,female,6,,123,off,1,0.5,0.75,0.5,0.78,3,122,1,1,1,0,0,0,0,6,,,,,,0,57,57,57,,,,,,,,,,,,,,,,,,,,,,,,,,,,,,,,,,,,,,,,,,,,,,,,,,,,,,,,,465.98226070000055,466.48502009999993,466.48502009999993,467.2402898,467.2402898,467.74284420000004,467.74284420000004,468.52602690000003,468.52602690000003,None,num_4,0.9736427999996522,468.52602690000003,None,happy,1,Happy,469.51451449999985,None,None,469.51451449999985,None,,,,,,,,,,,,,,,,,,,,,,,,,,,,,,,,,,,,,,,,,,,,,,,,,,,,,21,001,1,18,525,500,2022_Oct_12_1108,Experiment,2021.1.4,360.4188066587541,
images\S1_F_S_02.png,images\S1_F_S_02_scrambled.png,1,sad,-20,female,2,,245,off,1,0.5,0.75,0.5,0.869,3,244,2,2,1,0,0,0,0,2,,,,,,0,58,58,58,,,,,,,,,,,,,,,,,,,,,,,,,,,,,,,,,,,,,,,,,,,,,,,,,,,,,,,,,469.5617088000008,470.0643619000002,470.0643619000002,470.81968620000043,470.81968620000043,471.3222805000005,471.3222805000005,472.19709409999996,472.19709409999996,None,num_4,0.47072509999998147,472.19709409999996,None,happy,1,Sad,472.68020220000074,None,None,472.68020220000074,None,,,,,,,,,,,,,,,,,,,,,,,,,,,,,,,,,,,,,,,,,,,,,,,,,,,,,21,001,1,18,525,500,2022_Oct_12_1108,Experiment,2021.1.4,360.4188066587541,
images\S10_M_H_01.png,images\S10_M_H_01_scrambled.png,10,happy,10,male,4,,115,on,2,0.5,0.75,0.5,0.927,3,114,1,1,1,2,2,32,128,164,,,,,,0,59,59,59,,,,,,,,,,,,,,,,,,,,,,,,,,,,,,,,,,,,,,,,,,,,,,,,,,,,,,,,,472.72741790000055,473.2300862000002,473.2300862000002,473.98258650000025,473.98258650000025,474.48522460000004,474.48522460000004,475.4155066000003,475.4155066000003,None,None,,475.4155066000003,None,miss,1,Happy,478.41732985000027,None,None,478.41732985000027,None,,,,,,,,,,,,,,,,,,,,,,,,,,,,,,,,,,,,,,,,,,,,,,,,,,,,,21,001,1,18,525,500,2022_Oct_12_1108,Experiment,2021.1.4,360.4188066587541,
images\S9_F_S_03.png,images\S9_F_S_03_scrambled.png,9,sad,-30,female,1,,474,on,2,0.5,0.75,0.5,0.809,3,473,2,1,1,2,2,32,128,161,,,,,,0,60,60,60,,,,,,,,,,,,,,,,,,,,,,,,,,,,,,,,,,,,,,,,,,,,,,,,,,,,,,,,,478.5006275000005,479.0060333000001,479.0060333000001,479.7585818000007,479.7585818000007,480.2640063000008,480.2640063000008,481.07774830000017,481.07774830000017,478.5006275000005,num_6,1.1340844000005745,481.07774830000017,478.5006275000005,sad,1,Sad,482.23844649999995,None,None,482.23844649999995,None,,,,,,,,,,,,,,,,,,,,,,,,,,,,,,,,,,,,,,,,,,,,,,,,,,,,,21,001,1,18,525,500,2022_Oct_12_1108,Experiment,2021.1.4,360.4188066587541,
images\blank.jpg,images\blank.jpg,none,none,none,none,0,,639,on,2,0.5,0.75,0.5,0.867,0,638,3,1,1,3,3,48,192,240,,,,,,0,61,61,61,,,,,,,,,,,,,,,,,,,,,,,,,,,,,,,,,,,,,,,,,,,,,,,,,,,,,,,,,482.3385474000006,482.83819050000056,482.83819050000056,483.59073549999994,483.59073549999994,484.09334860000035,484.09334860000035,484.95986880000055,484.95986880000055,484.95986880000055,None,,484.95986880000055,None,miss,1,,487.9643978500001,None,None,487.9643978500001,None,,,,,,,,,,,,,,,,,,,,,,,,,,,,,,,,,,,,,,,,,,,,,,,,,,,,,21,001,1,18,525,500,2022_Oct_12_1108,Experiment,2021.1.4,360.4188066587541,
images\blank.jpg,images\blank.jpg,none,none,none,none,0,,603,on,2,0.5,0.75,0.5,0.94,0,602,4,2,2,3,3,48,192,240,,,,,,0,62,62,62,,,,,,,,,,,,,,,,,,,,,,,,,,,,,,,,,,,,,,,,,,,,,,,,,,,,,,,,,487.98660180000024,488.48923920000016,488.48923920000016,489.24190180000005,489.24190180000005,489.7416486000002,489.7416486000002,490.68298890000005,490.68298890000005,490.68298890000005,None,,490.68298890000005,487.98660180000024,miss,1,,493.6849220999999,None,None,493.6849220999999,None,,,,,,,,,,,,,,,,,,,,,,,,,,,,,,,,,,,,,,,,,,,,,,,,,,,,,21,001,1,18,525,500,2022_Oct_12_1108,Experiment,2021.1.4,360.4188066587541,
images\S10_M_S_03.png,images\S10_M_S_03_scrambled.png,10,sad,-30,male,1,,480,on,2,0.5,0.75,0.5,0.843,3,479,5,1,1,2,2,32,128,161,,,,,,0,63,63,63,,,,,,,,,,,,,,,,,,,,,,,,,,,,,,,,,,,,,,,,,,,,,,,,,,,,,,,,,493.8073116000005,494.3096800000003,494.3096800000003,495.06221320000077,495.06221320000077,495.5649532000007,495.5649532000007,496.4118047000002,496.4118047000002,None,num_6,0.752041100000497,496.4118047000002,493.8073116000005,sad,1,Sad,497.17823270000025,None,None,497.17823270000025,None,,,,,,,,,,,,,,,,,,,,,,,,,,,,,,,,,,,,,,,,,,,,,,,,,,,,,21,001,1,18,525,500,2022_Oct_12_1108,Experiment,2021.1.4,360.4188066587541,
images\S9_F_S_03.png,images\S9_F_S_03_scrambled.png,9,sad,-30,female,1,,54,off,1,0.5,0.75,0.5,0.949,3,53,1,1,2,0,0,0,0,1,,,,,,0,64,64,64,,,,,,,,,,,,,,,,,,,,,,,,,,,,,,,,,,,,,,,,,,,,,,,,,,,,,,,,,497.22542520000025,497.7280402000006,497.7280402000006,498.47780950000015,498.47780950000015,498.98054350000075,498.98054350000075,499.93291900000077,499.93291900000077,None,num_6,0.8866873000006308,499.93291900000077,None,sad,1,Sad,500.8354396000006,None,None,500.8354396000006,None,,,,,,,,,,,,,,,,,,,,,,,,,,,,,,,,,,,,,,,,,,,,,,,,,,,,,21,001,1,18,525,500,2022_Oct_12_1108,Experiment,2021.1.4,360.4188066587541,
images\S8_M_S_01.png,images\S8_M_S_01_scrambled.png,8,sad,-10,male,3,,586,on,2,0.5,0.75,0.5,0.788,3,585,1,1,1,2,2,32,128,163,,,,,,0,65,65,65,,,,,,,,,,,,,,,,,,,,,,,,,,,,,,,,,,,,,,,,,,,,,,,,,,,,,,,,,500.9159569000003,501.41857680000066,501.41857680000066,502.1739363000006,502.1739363000006,502.6765632000006,502.6765632000006,503.46803960000034,503.46803960000034,None,num_4,0.7037778000003527,503.46803960000034,None,happy,1,Sad,504.18161569999995,None,None,504.18161569999995,None,,,,,,,,,,,,,,,,,,,,,,,,,,,,,,,,,,,,,,,,,,,,,,,,,,,,,21,001,1,18,525,500,2022_Oct_12_1108,Experiment,2021.1.4,360.4188066587541,
images\blank.jpg,images\blank.jpg,none,none,none,none,0,,643,on,2,0.5,0.75,0.5,0.929,0,642,2,1,1,3,3,48,192,240,,,,,,0,66,66,66,,,,,,,,,,,,,,,,,,,,,,,,,,,,,,,,,,,,,,,,,,,,,,,,,,,,,,,,,504.26517220000005,504.7703526000005,504.7703526000005,505.5256693000001,505.5256693000001,506.02826470000036,506.02826470000036,506.95853520000037,506.95853520000037,506.95853520000037,None,,506.95853520000037,None,miss,1,,509.9576738500003,None,None,509.9576738500003,None,,,,,,,,,,,,,,,,,,,,,,,,,,,,,,,,,,,,,,,,,,,,,,,,,,,,,21,001,1,18,525,500,2022_Oct_12_1108,Experiment,2021.1.4,360.4188066587541,
images\S1_F_S_01.png,images\S1_F_S_01_scrambled.png,1,sad,-10,female,3,,64,on,2,0.5,0.75,0.5,0.879,3,63,3,1,1,2,2,32,128,163,,,,,,0,67,67,67,,,,,,,,,,,,,,,,,,,,,,,,,,,,,,,,,,,,,,,,,,,,,,,,,,,,,,,,,510.08008340000015,510.58533200000056,510.58533200000056,511.3349837000005,511.3349837000005,511.8376287000001,511.8376287000001,512.7234591000006,512.7234591000006,None,num_4,0.1922389999999723,512.7234591000006,510.08008340000015,happy,1,Sad,512.9206171000001,None,None,512.9206171000001,None,,,,,,,,,,,,,,,,,,,,,,,,,,,,,,,,,,,,,,,,,,,,,,,,,,,,,21,001,1,18,525,500,2022_Oct_12_1108,Experiment,2021.1.4,360.4188066587541,
images\S8_M_H_03.png,images\S8_M_H_03_scrambled.png,8,happy,30,male,6,,525,off,1,0.5,0.75,0.5,0.786,3,524,1,1,1,0,0,0,0,6,,,,,,0,68,68,68,,,,,,,,,,,,,,,,,,,,,,,,,,,,,,,,,,,,,,,,,,,,,,,,,,,,,,,,,513.001123,513.5066336,513.5066336,514.2619140000006,514.2619140000006,514.7644852000003,514.7644852000003,515.5531115000003,515.5531115000003,None,num_4,0.20245360000080836,515.5531115000003,None,happy,1,Happy,515.7669162000003,None,None,515.7669162000003,None,,,,,,,,,,,,,,,,,,,,,,,,,,,,,,,,,,,,,,,,,,,,,,,,,,,,,21,001,1,18,525,500,2022_Oct_12_1108,Experiment,2021.1.4,360.4188066587541,
images\S3_F_S_01.png,images\S3_F_S_01_scrambled.png,3,sad,-10,female,3,,316,on,2,0.5,0.75,0.5,0.941,3,315,1,1,1,2,2,32,128,163,,,,,,0,69,69,69,,,,,,,,,,,,,,,,,,,,,,,,,,,,,,,,,,,,,,,,,,,,,,,,,,,,,,,,,515.8141463000002,516.3195569,516.3195569,517.0720985000007,517.0720985000007,517.5775515000005,517.5775515000005,518.5217705000005,518.5217705000005,None,num_6,0.32253230000060285,518.5217705000005,None,sad,1,Sad,518.8716710000002,None,None,518.8716710000002,None,,,,,,,,,,,,,,,,,,,,,,,,,,,,,,,,,,,,,,,,,,,,,,,,,,,,,21,001,1,18,525,500,2022_Oct_12_1108,Experiment,2021.1.4,360.4188066587541,
images\S5_F_S_03.png,images\S5_F_S_03_scrambled.png,5,sad,-30,female,1,,450,on,2,0.5,0.75,0.5,0.779,3,449,2,1,1,2,2,32,128,161,,,,,,0,70,70,70,,,,,,,,,,,,,,,,,,,,,,,,,,,,,,,,,,,,,,,,,,,,,,,,,,,,,,,,,518.9242971000003,519.4269916000003,519.4269916000003,520.1822884000003,520.1822884000003,520.6848734000005,520.6848734000005,521.4708594000003,521.4708594000003,None,num_4,0.4848700000002282,521.4708594000003,None,happy,1,Sad,521.9650313000006,None,None,521.9650313000006,None,,,,,,,,,,,,,,,,,,,,,,,,,,,,,,,,,,,,,,,,,,,,,,,,,,,,,21,001,1,18,525,500,2022_Oct_12_1108,Experiment,2021.1.4,360.4188066587541,
images\S9_F_S_02.png,images\S9_F_S_02_scrambled.png,9,sad,-20,female,2,,533,off,1,0.5,0.75,0.5,0.793,3,532,1,1,1,0,0,0,0,2,,,,,,0,71,71,71,,,,,,,,,,,,,,,,,,,,,,,,,,,,,,,,,,,,,,,,,,,,,,,,,,,,,,,,,522.0483414,522.5509811000002,522.5509811000002,523.3007205000004,523.3007205000004,523.8033475000002,523.8033475000002,524.6003272000007,524.6003272000007,None,num_4,0.41949360000035085,524.6003272000007,None,happy,1,Sad,525.027979,None,None,525.027979,None,,,,,,,,,,,,,,,,,,,,,,,,,,,,,,,,,,,,,,,,,,,,,,,,,,,,,21,001,1,18,525,500,2022_Oct_12_1108,Experiment,2021.1.4,360.4188066587541,
images\S7_F_S_03.png,images\S7_F_S_03_scrambled.png,7,sad,-30,female,1,,282,off,1,0.5,0.75,0.5,0.852,3,281,2,1,1,0,0,0,0,1,,,,,,0,72,72,72,,,,,,,,,,,,,,,,,,,,,,,,,,,,,,,,,,,,,,,,,,,,,,,,,,,,,,,,,525.0808235000004,525.5833571000003,525.5833571000003,526.3331347000003,526.3331347000003,526.8357747,526.8357747,527.6910623000003,527.6910623000003,None,num_6,0.3767455000006521,527.6910623000003,None,sad,1,Sad,528.0825999,None,None,528.0825999,None,,,,,,,,,,,,,,,,,,,,,,,,,,,,,,,,,,,,,,,,,,,,,,,,,,,,,21,001,1,18,525,500,2022_Oct_12_1108,Experiment,2021.1.4,360.4188066587541,
images\blank.jpg,images\blank.jpg,none,none,none,none,0,,607,on,2,0.5,0.75,0.5,0.925,0,606,1,1,1,3,3,48,192,240,,,,,,0,73,73,73,,,,,,,,,,,,,,,,,,,,,,,,,,,,,,,,,,,,,,,,,,,,,,,,,,,,,,,,,528.1661554000002,528.6685667000002,528.6685667000002,529.4238842000004,529.4238842000004,529.9264955000008,529.9264955000008,530.8512114000005,530.8512114000005,530.8512114000005,None,,530.8512114000005,None,miss,1,,533.8531029000001,None,None,533.8531029000001,None,,,,,,,,,,,,,,,,,,,,,,,,,,,,,,,,,,,,,,,,,,,,,,,,,,,,,21,001,1,18,525,500,2022_Oct_12_1108,Experiment,2021.1.4,360.4188066587541,
images\S2_M_S_01.png,images\S2_M_S_01_scrambled.png,2,sad,-10,male,3,,190,on,2,0.5,0.75,0.5,0.799,3,189,2,1,1,2,2,32,128,163,,,,,,0,74,74,74,,,,,,,,,,,,,,,,,,,,,,,,,,,,,,,,,,,,,,,,,,,,,,,,,,,,,,,,,534.0171363,534.5167191,534.5167191,535.2692972000004,535.2692972000004,535.7746848000006,535.7746848000006,536.5773236000005,536.5773236000005,None,num_6,0.6182380000000194,536.5773236000005,534.0171363,sad,1,Sad,537.2103349999999,None,None,537.2103349999999,None,,,,,,,,,,,,,,,,,,,,,,,,,,,,,,,,,,,,,,,,,,,,,,,,,,,,,21,001,1,18,525,500,2022_Oct_12_1108,Experiment,2021.1.4,360.4188066587541,
images\S6_M_H_02.png,images\S6_M_H_02_scrambled.png,6,happy,20,male,5,,272,off,1,0.5,0.75,0.5,0.894,3,271,1,1,1,0,0,0,0,5,,,,,,0,75,75,75,,,,,,,,,,,,,,,,,,,,,,,,,,,,,,,,,,,,,,,,,,,,,,,,,,,,,,,,,537.3186384,537.8240655,537.8240655,538.5738018000002,538.5738018000002,539.0764684000005,539.0764684000005,539.9734161000006,539.9734161000006,None,num_4,0.1422973999997339,539.9734161000006,None,happy,1,Happy,540.1261396000001,None,None,540.1261396000001,None,,,,,,,,,,,,,,,,,,,,,,,,,,,,,,,,,,,,,,,,,,,,,,,,,,,,,21,001,1,18,525,500,2022_Oct_12_1108,Experiment,2021.1.4,360.4188066587541,
images\S5_F_S_02.png,images\S5_F_S_02_scrambled.png,5,sad,-20,female,2,,149,off,1,0.5,0.75,0.5,0.924,3,148,2,1,1,0,0,0,0,2,,,,,,0,76,76,76,,,,,,,,,,,,,,,,,,,,,,,,,,,,,,,,,,,,,,,,,,,,,,,,,,,,,,,,,540.2399610000002,540.7426021000001,540.7426021000001,541.4923728000003,541.4923728000003,541.9978372000005,541.9978372000005,542.9280791000001,542.9280791000001,None,num_4,0.33948420000069746,542.9280791000001,None,happy,1,Sad,543.2723760000003,None,None,543.2723760000003,None,,,,,,,,,,,,,,,,,,,,,,,,,,,,,,,,,,,,,,,,,,,,,,,,,,,,,21,001,1,18,525,500,2022_Oct_12_1108,Experiment,2021.1.4,360.4188066587541,
images\S10_M_S_01.png,images\S10_M_S_01_scrambled.png,10,sad,-10,male,3,,418,off,1,0.5,0.75,0.5,0.842,3,417,3,1,1,0,0,0,0,3,,,,,,0,77,77,77,,,,,,,,,,,,,,,,,,,,,,,,,,,,,,,,,,,,,,,,,,,,,,,,,,,,,,,,,543.3195714000003,543.8250437000006,543.8250437000006,544.5775277000002,544.5775277000002,545.0801926000004,545.0801926000004,545.9243363000005,545.9243363000005,None,num_4,0.4873457000003327,545.9243363000005,None,happy,1,Sad,546.4241826000002,None,None,546.4241826000002,None,,,,,,,,,,,,,,,,,,,,,,,,,,,,,,,,,,,,,,,,,,,,,,,,,,,,,21,001,1,18,525,500,2022_Oct_12_1108,Experiment,2021.1.4,360.4188066587541,
images\S2_M_S_01.png,images\S2_M_S_01_scrambled.png,2,sad,-10,male,3,,250,off,1,0.5,0.75,0.5,0.778,3,249,4,1,2,0,0,0,0,3,,,,,,0,78,78,78,,,,,,,,,,,,,,,,,,,,,,,,,,,,,,,,,,,,,,,,,,,,,,,,,,,,,,,,,546.4713758000007,546.9768154000003,546.9768154000003,547.7293329000004,547.7293329000004,548.2348265,548.2348265,549.0151860000005,549.0151860000005,None,num_6,0.44464960000004794,549.0151860000005,None,sad,1,Sad,549.4704693000004,None,None,549.4704693000004,None,,,,,,,,,,,,,,,,,,,,,,,,,,,,,,,,,,,,,,,,,,,,,,,,,,,,,21,001,1,18,525,500,2022_Oct_12_1108,Experiment,2021.1.4,360.4188066587541,
images\S4_M_H_01.png,images\S4_M_H_01_scrambled.png,4,happy,10,male,4,,439,on,2,0.5,0.75,0.5,0.913,3,438,1,1,1,2,2,32,128,164,,,,,,0,79,79,79,,,,,,,,,,,,,,,,,,,,,,,,,,,,,,,,,,,,,,,,,,,,,,,,,,,,,,,,,549.5343477000006,550.0398475000002,550.0398475000002,550.7894922000005,550.7894922000005,551.2950064000006,551.2950064000006,552.2112794000004,552.2112794000004,None,num_6,0.6005377999999837,552.2112794000004,None,sad,1,Happy,552.81666,None,None,552.81666,None,,,,,,,,,,,,,,,,,,,,,,,,,,,,,,,,,,,,,,,,,,,,,,,,,,,,,21,001,1,18,525,500,2022_Oct_12_1108,Experiment,2021.1.4,360.4188066587541,
images\blank.jpg,images\blank.jpg,none,none,none,none,0,,642,on,2,0.5,0.75,0.5,0.919,0,641,2,1,1,3,3,48,192,240,,,,,,0,80,80,80,,,,,,,,,,,,,,,,,,,,,,,,,,,,,,,,,,,,,,,,,,,,,,,,,,,,,,,,,552.9004009,553.4026240000003,553.4026240000003,554.1579244000004,554.1579244000004,554.6605581000003,554.6605581000003,555.5797402000007,555.5797402000007,555.5797402000007,None,,555.5797402000007,None,miss,1,,558.5815816500001,None,None,558.5815816500001,None,,,,,,,,,,,,,,,,,,,,,,,,,,,,,,,,,,,,,,,,,,,,,,,,,,,,,21,001,1,18,525,500,2022_Oct_12_1108,Experiment,2021.1.4,360.4188066587541,
images\S4_M_H_02.png,images\S4_M_H_02_scrambled.png,4,happy,20,male,5,,380,off,1,0.5,0.75,0.5,0.862,3,379,1,1,1,0,0,0,0,5,,,,,,0,81,81,81,,,,,,,,,,,,,,,,,,,,,,,,,,,,,,,,,,,,,,,,,,,,,,,,,,,,,,,,,558.7011936000008,559.2063854000007,559.2063854000007,559.9589027000002,559.9589027000002,560.4615618000007,560.4615618000007,561.3279404000004,561.3279404000004,None,num_4,0.7559966999997414,561.3279404000004,558.7011936000008,happy,1,Happy,562.1110834000004,None,None,562.1110834000004,None,,,,,,,,,,,,,,,,,,,,,,,,,,,,,,,,,,,,,,,,,,,,,,,,,,,,,21,001,1,18,525,500,2022_Oct_12_1108,Experiment,2021.1.4,360.4188066587541,
images\S7_F_S_01.png,images\S7_F_S_01_scrambled.png,7,sad,-10,female,3,,280,off,1,0.5,0.75,0.5,0.918,3,279,2,1,1,0,0,0,0,3,,,,,,0,82,82,82,,,,,,,,,,,,,,,,,,,,,,,,,,,,,,,,,,,,,,,,,,,,,,,,,,,,,,,,,562.2137440000006,562.7164307000003,562.7164307000003,563.4661156000002,563.4661156000002,563.9659893000007,563.9659893000007,564.8879280000001,564.8879280000001,None,num_4,0.3477809000005436,564.8879280000001,None,happy,1,Sad,565.2433986000001,None,None,565.2433986000001,None,,,,,,,,,,,,,,,,,,,,,,,,,,,,,,,,,,,,,,,,,,,,,,,,,,,,,21,001,1,18,525,500,2022_Oct_12_1108,Experiment,2021.1.4,360.4188066587541,
images\S2_M_S_02.png,images\S2_M_S_02_scrambled.png,2,sad,-20,male,2,,551,on,2,0.5,0.75,0.5,0.773,3,550,1,1,1,2,2,32,128,162,,,,,,0,83,83,83,,,,,,,,,,,,,,,,,,,,,,,,,,,,,,,,,,,,,,,,,,,,,,,,,,,,,,,,,565.3266935000001,565.8293088,565.8293088,566.5818509999999,566.5818509999999,567.0845234000008,567.0845234000008,567.8649207000008,567.8649207000008,None,num_6,0.7628097999995589,567.8649207000008,None,sad,1,Sad,568.6423351000004,None,None,568.6423351000004,None,,,,,,,,,,,,,,,,,,,,,,,,,,,,,,,,,,,,,,,,,,,,,,,,,,,,,21,001,1,18,525,500,2022_Oct_12_1108,Experiment,2021.1.4,360.4188066587541,
images\S7_F_S_01.png,images\S7_F_S_01_scrambled.png,7,sad,-10,female,3,,460,on,2,0.5,0.75,0.5,0.865,3,459,2,1,1,2,2,32,128,163,,,,,,0,84,84,84,,,,,,,,,,,,,,,,,,,,,,,,,,,,,,,,,,,,,,,,,,,,,,,,,,,,,,,,,568.6895494,569.1922936999999,569.1922936999999,569.9475434000005,569.9475434000005,570.4529653,570.4529653,571.3221972000001,571.3221972000001,None,num_4,1.6576123000004372,571.3221972000001,None,happy,1,Sad,572.9882221000003,None,None,572.9882221000003,None,,,,,,,,,,,,,,,,,,,,,,,,,,,,,,,,,,,,,,,,,,,,,,,,,,,,,21,001,1,18,525,500,2022_Oct_12_1108,Experiment,2021.1.4,360.4188066587541,
images\S10_M_S_01.png,images\S10_M_S_01_scrambled.png,10,sad,-10,male,3,,178,off,1,0.5,0.75,0.5,0.853,3,177,1,1,2,0,0,0,0,3,,,,,,0,85,85,85,,,,,,,,,,,,,,,,,,,,,,,,,,,,,,,,,,,,,,,,,,,,,,,,,,,,,,,,,573.0354280000001,573.5352772000006,573.5352772000006,574.2878547,574.2878547,574.7932343000002,574.7932343000002,575.6485291000008,575.6485291000008,None,num_4,0.31518509999932576,575.6485291000008,None,happy,1,Sad,575.9734155000001,None,None,575.9734155000001,None,,,,,,,,,,,,,,,,,,,,,,,,,,,,,,,,,,,,,,,,,,,,,,,,,,,,,21,001,1,18,525,500,2022_Oct_12_1108,Experiment,2021.1.4,360.4188066587541,
images\S1_F_S_01.png,images\S1_F_S_01_scrambled.png,1,sad,-10,female,3,,544,on,2,0.5,0.75,0.5,0.916,3,543,1,1,3,2,2,32,128,163,,,,,,0,86,86,86,,,,,,,,,,,,,,,,,,,,,,,,,,,,,,,,,,,,,,,,,,,,,,,,,,,,,,,,,576.0206172000007,576.5261625000003,576.5261625000003,577.2757970000002,577.2757970000002,577.7756627000008,577.7756627000008,578.6920168000006,578.6920168000006,None,num_4,0.3198072000004686,578.6920168000006,None,happy,1,Sad,579.0169629000006,None,None,579.0169629000006,None,,,,,,,,,,,,,,,,,,,,,,,,,,,,,,,,,,,,,,,,,,,,,,,,,,,,,21,001,1,18,525,500,2022_Oct_12_1108,Experiment,2021.1.4,360.4188066587541,
images\S3_F_H_02.png,images\S3_F_H_02_scrambled.png,3,happy,20,female,5,,14,off,1,0.5,0.75,0.5,0.766,3,13,1,1,1,0,0,0,0,5,,,,,,0,87,87,87,,,,,,,,,,,,,,,,,,,,,,,,,,,,,,,,,,,,,,,,,,,,,,,,,,,,,,,,,579.1252294000005,579.6278394000001,579.6278394000001,580.3776219000001,580.3776219000001,580.8802560000004,580.8802560000004,581.6522487000002,581.6522487000002,None,num_4,0.15923819999989064,581.6522487000002,None,happy,1,Happy,581.8438563,None,None,581.8438563,None,,,,,,,,,,,,,,,,,,,,,,,,,,,,,,,,,,,,,,,,,,,,,,,,,,,,,21,001,1,18,525,500,2022_Oct_12_1108,Experiment,2021.1.4,360.4188066587541,
images\S2_M_S_02.png,images\S2_M_S_02_scrambled.png,2,sad,-20,male,2,,251,off,1,0.5,0.75,0.5,0.839,3,250,2,1,1,0,0,0,0,2,,,,,,0,88,88,88,,,,,,,,,,,,,,,,,,,,,,,,,,,,,,,,,,,,,,,,,,,,,,,,,,,,,,,,,581.8965881000004,582.3992184000008,582.3992184000008,583.1518703000002,583.1518703000002,583.6571984000002,583.6571984000002,584.4985848000006,584.4985848000006,None,num_4,0.2331627000003209,584.4985848000006,None,happy,1,Sad,584.7401587999998,None,None,584.7401587999998,None,,,,,,,,,,,,,,,,,,,,,,,,,,,,,,,,,,,,,,,,,,,,,,,,,,,,,21,001,1,18,525,500,2022_Oct_12_1108,Experiment,2021.1.4,360.4188066587541,
images\S8_M_H_01.png,images\S8_M_H_01_scrambled.png,8,happy,10,male,4,,43,off,1,0.5,0.75,0.5,0.837,3,42,3,1,1,0,0,0,0,4,,,,,,0,89,89,89,,,,,,,,,,,,,,,,,,,,,,,,,,,,,,,,,,,,,,,,,,,,,,,,,,,,,,,,,584.7873638000001,585.2899929000005,585.2899929000005,586.0398053000008,586.0398053000008,586.5396564000002,586.5396564000002,587.3811390999999,587.3811390999999,None,num_4,0.26255870000022696,587.3811390999999,None,happy,1,Happy,587.6587003000005,None,None,587.6587003000005,None,,,,,,,,,,,,,,,,,,,,,,,,,,,,,,,,,,,,,,,,,,,,,,,,,,,,,21,001,1,18,525,500,2022_Oct_12_1108,Experiment,2021.1.4,360.4188066587541,
images\S2_M_H_01.png,images\S2_M_H_01_scrambled.png,2,happy,10,male,4,,427,on,2,0.5,0.75,0.5,0.774,3,426,1,1,2,2,2,32,128,164,,,,,,0,90,90,90,,,,,,,,,,,,,,,,,,,,,,,,,,,,,,,,,,,,,,,,,,,,,,,,,,,,,,,,,587.7059189000001,588.2086577,588.2086577,588.9639464000002,588.9639464000002,589.4664900000007,589.4664900000007,590.2440723,590.2440723,None,num_4,1.4236879000000044,590.2440723,None,happy,1,Happy,591.6824648000003,None,None,591.6824648000003,None,,,,,,,,,,,,,,,,,,,,,,,,,,,,,,,,,,,,,,,,,,,,,,,,,,,,,21,001,1,18,525,500,2022_Oct_12_1108,Experiment,2021.1.4,360.4188066587541,
images\blank.jpg,images\blank.jpg,none,none,none,none,0,,646,on,2,0.5,0.75,0.5,0.802,0,645,2,1,1,3,3,48,192,240,,,,,,0,91,91,91,,,,,,,,,,,,,,,,,,,,,,,,,,,,,,,,,,,,,,,,,,,,,,,,,,,,,,,,,591.7659985,592.2712118,592.2712118,593.0265327000006,593.0265327000006,593.5319206000004,593.5319206000004,594.3344673000001,594.3344673000001,594.3344673000001,None,,594.3344673000001,None,miss,1,,597.3363244499999,None,None,597.3363244499999,None,,,,,,,,,,,,,,,,,,,,,,,,,,,,,,,,,,,,,,,,,,,,,,,,,,,,,21,001,1,18,525,500,2022_Oct_12_1108,Experiment,2021.1.4,360.4188066587541,
images\S3_F_S_02.png,images\S3_F_S_02_scrambled.png,3,sad,-20,female,2,,317,on,2,0.5,0.75,0.5,0.927,3,316,3,1,1,2,2,32,128,162,,,,,,0,92,92,92,,,,,,,,,,,,,,,,,,,,,,,,,,,,,,,,,,,,,,,,,,,,,,,,,,,,,,,,,597.4920415000006,597.9944905000002,597.9944905000002,598.7469751000008,598.7469751000008,599.2497048000005,599.2497048000005,600.1799366000005,600.1799366000005,None,num_6,0.2558460999998715,600.1799366000005,597.4920415000006,sad,1,Sad,600.4519775,None,None,600.4519775,None,,,,,,,,,,,,,,,,,,,,,,,,,,,,,,,,,,,,,,,,,,,,,,,,,,,,,21,001,1,18,525,500,2022_Oct_12_1108,Experiment,2021.1.4,360.4188066587541,
images\S1_F_H_03.png,images\S1_F_H_03_scrambled.png,1,happy,30,female,6,,63,on,2,0.5,0.75,0.5,0.78,3,62,4,1,1,2,2,32,128,166,,,,,,0,93,93,93,,,,,,,,,,,,,,,,,,,,,,,,,,,,,,,,,,,,,,,,,,,,,,,,,,,,,,,,,600.4991964000001,600.9990432000004,600.9990432000004,601.7516188,601.7516188,602.2541993000004,602.2541993000004,603.0401385000005,603.0401385000005,None,num_4,0.2997673999998369,603.0401385000005,None,happy,1,Happy,603.3622713000002,None,None,603.3622713000002,None,,,,,,,,,,,,,,,,,,,,,,,,,,,,,,,,,,,,,,,,,,,,,,,,,,,,,21,001,1,18,525,500,2022_Oct_12_1108,Experiment,2021.1.4,360.4188066587541,
images\S8_M_H_03.png,images\S8_M_H_03_scrambled.png,8,happy,30,male,6,,165,off,1,0.5,0.75,0.5,0.838,3,164,1,1,2,0,0,0,0,6,,,,,,0,94,94,94,,,,,,,,,,,,,,,,,,,,,,,,,,,,,,,,,,,,,,,,,,,,,,,,,,,,,,,,,603.4121880000002,603.9148206,603.9148206,604.6673697000006,604.6673697000006,605.1700405000001,605.1700405000001,606.0114199,606.0114199,None,num_4,0.4721645999998145,606.0114199,None,happy,1,Happy,606.4945550000003,None,None,606.4945550000003,None,,,,,,,,,,,,,,,,,,,,,,,,,,,,,,,,,,,,,,,,,,,,,,,,,,,,,21,001,1,18,525,500,2022_Oct_12_1108,Experiment,2021.1.4,360.4188066587541,
images\S3_F_H_03.png,images\S3_F_H_03_scrambled.png,3,happy,30,female,6,,195,on,2,0.5,0.75,0.5,0.802,3,194,1,1,3,2,2,32,128,166,,,,,,0,95,95,95,,,,,,,,,,,,,,,,,,,,,,,,,,,,,,,,,,,,,,,,,,,,,,,,,,,,,,,,,606.5474236,607.0471909000007,607.0471909000007,607.7998247000005,607.7998247000005,608.3051905000002,608.3051905000002,609.110463,609.110463,None,num_4,1.7652947000005952,609.110463,None,happy,1,Happy,610.8904417000005,None,None,610.8904417000005,None,,,,,,,,,,,,,,,,,,,,,,,,,,,,,,,,,,,,,,,,,,,,,,,,,,,,,21,001,1,18,525,500,2022_Oct_12_1108,Experiment,2021.1.4,360.4188066587541,
images\S5_F_H_01.png,images\S5_F_H_01_scrambled.png,5,happy,10,female,4,,565,on,2,0.5,0.75,0.5,0.773,3,564,2,1,1,2,2,32,128,164,,,,,,0,96,96,96,,,,,,,,,,,,,,,,,,,,,,,,,,,,,,,,,,,,,,,,,,,,,,,,,,,,,,,,,610.9737547000004,611.4736122000004,611.4736122000004,612.2261432000005,612.2261432000005,612.7288611000004,612.7288611000004,613.5063023000002,613.5063023000002,None,num_4,0.8492449000004854,613.5063023000002,None,happy,1,Happy,614.3671292,None,None,614.3671292,None,,,,,,,,,,,,,,,,,,,,,,,,,,,,,,,,,,,,,,,,,,,,,,,,,,,,,21,001,1,18,525,500,2022_Oct_12_1108,Experiment,2021.1.4,360.4188066587541,
images\S2_M_S_01.png,images\S2_M_S_01_scrambled.png,2,sad,-10,male,3,,550,on,2,0.5,0.75,0.5,0.765,3,549,3,1,1,2,2,32,128,163,,,,,,0,97,97,97,,,,,,,,,,,,,,,,,,,,,,,,,,,,,,,,,,,,,,,,,,,,,,,,,,,,,,,,,614.4143621000003,614.9142062000001,614.9142062000001,615.6667586000003,615.6667586000003,616.1693976000006,616.1693976000006,616.9386870000008,616.9386870000008,None,num_6,0.9530084999996689,616.9386870000008,None,sad,1,Sad,617.9077189000001,None,None,617.9077189000001,None,,,,,,,,,,,,,,,,,,,,,,,,,,,,,,,,,,,,,,,,,,,,,,,,,,,,,21,001,1,18,525,500,2022_Oct_12_1108,Experiment,2021.1.4,360.4188066587541,
images\S5_F_H_03.png,images\S5_F_H_03_scrambled.png,5,happy,30,female,6,,507,off,1,0.5,0.75,0.5,0.911,3,506,1,1,1,0,0,0,0,6,,,,,,0,98,98,98,,,,,,,,,,,,,,,,,,,,,,,,,,,,,,,,,,,,,,,,,,,,,,,,,,,,,,,,,617.9910394000008,618.4937808000004,618.4937808000004,619.2434266,619.2434266,619.7432825000005,619.7432825000005,620.6597546000003,620.6597546000003,None,num_4,0.6640970000007655,620.6597546000003,None,happy,1,Happy,621.3400064999997,None,None,621.3400064999997,None,,,,,,,,,,,,,,,,,,,,,,,,,,,,,,,,,,,,,,,,,,,,,,,,,,,,,21,001,1,18,525,500,2022_Oct_12_1108,Experiment,2021.1.4,360.4188066587541,
images\S2_M_H_02.png,images\S2_M_H_02_scrambled.png,2,happy,20,male,5,,68,on,2,0.5,0.75,0.5,0.816,3,67,1,1,1,2,2,32,128,165,,,,,,0,99,99,99,,,,,,,,,,,,,,,,,,,,,,,,,,,,,,,,,,,,,,,,,,,,,,,,,,,,,,,,,621.4233096000007,621.9259726,621.9259726,622.6757019000006,622.6757019000006,623.1783676000005,623.1783676000005,623.9975173000003,623.9975173000003,None,num_4,0.5180725000000166,623.9975173000003,None,happy,1,Happy,624.5334780000004,None,None,624.5334780000004,None,,,,,,,,,,,,,,,,,,,,,,,,,,,,,,,,,,,,,,,,,,,,,,,,,,,,,21,001,1,18,525,500,2022_Oct_12_1108,Experiment,2021.1.4,360.4188066587541,
images\S1_F_S_03.png,images\S1_F_S_03_scrambled.png,1,sad,-30,female,1,,126,off,1,0.5,0.75,0.5,0.766,3,125,1,1,1,0,0,0,0,1,,,,,,0,100,100,100,,,,,,,,,,,,,,,,,,,,,,,,,,,,,,,,,,,,,,,,,,,,,,,,,,,,,,,,,624.6167802,625.1166205,625.1166205,625.8663886000004,625.8663886000004,626.3718097999999,626.3718097999999,627.1410444000003,627.1410444000003,None,num_6,0.4389142999998512,627.1410444000003,None,sad,1,Sad,627.6048611999998,None,None,627.6048611999998,None,,,,,,,,,,,,,,,,,,,,,,,,,,,,,,,,,,,,,,,,,,,,,,,,,,,,,21,001,1,18,525,500,2022_Oct_12_1108,Experiment,2021.1.4,360.4188066587541,
images\S10_M_H_02.png,images\S10_M_H_02_scrambled.png,10,happy,20,male,5,,536,off,1,0.5,0.75,0.5,0.893,3,535,2,1,1,0,0,0,0,5,,,,,,0,101,101,101,,,,,,,,,,,,,,,,,,,,,,,,,,,,,,,,,,,,,,,,,,,,,,,,,,,,,,,,,627.6575021000008,628.1629202000004,628.1629202000004,628.9154705000001,628.9154705000001,629.4153127,629.4153127,630.3122706000004,630.3122706000004,None,num_4,0.4115374000002703,630.3122706000004,None,happy,1,Happy,630.7510040999999,None,None,630.7510040999999,None,,,,,,,,,,,,,,,,,,,,,,,,,,,,,,,,,,,,,,,,,,,,,,,,,,,,,21,001,1,18,525,500,2022_Oct_12_1108,Experiment,2021.1.4,360.4188066587541,
images\S6_M_H_01.png,images\S6_M_H_01_scrambled.png,6,happy,10,male,4,,451,on,2,0.5,0.75,0.5,0.823,3,450,1,1,1,2,2,32,128,164,,,,,,0,102,102,102,,,,,,,,,,,,,,,,,,,,,,,,,,,,,,,,,,,,,,,,,,,,,,,,,,,,,,,,,630.8565134,631.3619486000007,631.3619486000007,632.1172678000003,632.1172678000003,632.6170862000008,632.6170862000008,633.4418714000003,633.4418714000003,None,num_6,0.5937285999998494,633.4418714000003,None,sad,1,Happy,634.0416648000005,None,None,634.0416648000005,None,,,,,,,,,,,,,,,,,,,,,,,,,,,,,,,,,,,,,,,,,,,,,,,,,,,,,21,001,1,18,525,500,2022_Oct_12_1108,Experiment,2021.1.4,360.4188066587541,
images\S2_M_S_03.png,images\S2_M_S_03_scrambled.png,2,sad,-30,male,1,,492,off,1,0.5,0.75,0.5,0.886,3,491,1,1,1,0,0,0,0,1,,,,,,0,103,103,103,,,,,,,,,,,,,,,,,,,,,,,,,,,,,,,,,,,,,,,,,,,,,,,,,,,,,,,,,634.0888578000004,634.5915297000001,634.5915297000001,635.3412572000007,635.3412572000007,635.8466879000007,635.8466879000007,636.7380640000001,636.7380640000001,None,num_6,0.4497361000003366,636.7380640000001,None,sad,1,Sad,637.2017926999998,None,None,637.2017926999998,None,,,,,,,,,,,,,,,,,,,,,,,,,,,,,,,,,,,,,,,,,,,,,,,,,,,,,21,001,1,18,525,500,2022_Oct_12_1108,Experiment,2021.1.4,360.4188066587541,
images\S7_F_S_01.png,images\S7_F_S_01_scrambled.png,7,sad,-10,female,3,,160,off,1,0.5,0.75,0.5,0.81,3,159,2,1,1,0,0,0,0,3,,,,,,0,104,104,104,,,,,,,,,,,,,,,,,,,,,,,,,,,,,,,,,,,,,,,,,,,,,,,,,,,,,,,,,637.2490030000008,637.7544127000001,637.7544127000001,638.5070366,638.5070366,639.0123860000003,639.0123860000003,639.8259741000002,639.8259741000002,None,num_6,0.4414858000000095,639.8259741000002,None,sad,1,Sad,640.2785903000005,None,None,640.2785903000005,None,,,,,,,,,,,,,,,,,,,,,,,,,,,,,,,,,,,,,,,,,,,,,,,,,,,,,21,001,1,18,525,500,2022_Oct_12_1108,Experiment,2021.1.4,360.4188066587541,
images\S1_F_S_02.png,images\S1_F_S_02_scrambled.png,1,sad,-20,female,2,,125,off,1,0.5,0.75,0.5,0.822,3,124,3,1,1,0,0,0,0,2,,,,,,0,105,105,105,,,,,,,,,,,,,,,,,,,,,,,,,,,,,,,,,,,,,,,,,,,,,,,,,,,,,,,,,640.3258233000006,640.8256691000006,640.8256691000006,641.5754793000006,641.5754793000006,642.0753134000006,642.0753134000006,642.9028398,642.9028398,None,num_4,0.33303909999995085,642.9028398,None,happy,1,Sad,643.2443744000007,None,None,643.2443744000007,None,,,,,,,,,,,,,,,,,,,,,,,,,,,,,,,,,,,,,,,,,,,,,,,,,,,,,21,001,1,18,525,500,2022_Oct_12_1108,Experiment,2021.1.4,360.4188066587541,
images\S2_M_H_02.png,images\S2_M_H_02_scrambled.png,2,happy,20,male,5,,128,off,1,0.5,0.75,0.5,0.928,3,127,4,1,1,0,0,0,0,5,,,,,,0,106,106,106,,,,,,,,,,,,,,,,,,,,,,,,,,,,,,,,,,,,,,,,,,,,,,,,,,,,,,,,,643.2915789000008,643.7914442000001,643.7914442000001,644.5411890000005,644.5411890000005,645.0438386000005,645.0438386000005,645.9769483,645.9769483,None,num_4,0.6506088999994972,645.9769483,None,happy,1,Happy,646.6405674999997,None,None,646.6405674999997,None,,,,,,,,,,,,,,,,,,,,,,,,,,,,,,,,,,,,,,,,,,,,,,,,,,,,,21,001,1,18,525,500,2022_Oct_12_1108,Experiment,2021.1.4,360.4188066587541,
images\S5_F_S_01.png,images\S5_F_S_01_scrambled.png,5,sad,-10,female,3,,268,off,1,0.5,0.75,0.5,0.792,3,267,5,1,1,0,0,0,0,3,,,,,,0,107,107,107,,,,,,,,,,,,,,,,,,,,,,,,,,,,,,,,,,,,,,,,,,,,,,,,,,,,,,,,,646.7238588,647.2237181,647.2237181,647.9790695000002,647.9790695000002,648.4844805000002,648.4844805000002,649.2787162000004,649.2787162000004,None,num_4,0.5165780000006635,649.2787162000004,None,happy,1,Sad,649.8007151000006,None,None,649.8007151000006,None,,,,,,,,,,,,,,,,,,,,,,,,,,,,,,,,,,,,,,,,,,,,,,,,,,,,,21,001,1,18,525,500,2022_Oct_12_1108,Experiment,2021.1.4,360.4188066587541,
images\S3_F_S_03.png,images\S3_F_S_03_scrambled.png,3,sad,-30,female,1,,558,on,2,0.5,0.75,0.5,0.775,3,557,1,1,1,2,2,32,128,161,,,,,,0,108,108,108,,,,,,,,,,,,,,,,,,,,,,,,,,,,,,,,,,,,,,,,,,,,,,,,,,,,,,,,,649.8478969000007,650.3505478000006,650.3505478000006,651.1030914000003,651.1030914000003,651.6029176000002,651.6029176000002,652.3804776000006,652.3804776000006,None,num_6,0.3590810000005149,652.3804776000006,None,sad,1,Sad,652.7581413000005,None,None,652.7581413000005,None,,,,,,,,,,,,,,,,,,,,,,,,,,,,,,,,,,,,,,,,,,,,,,,,,,,,,21,001,1,18,525,500,2022_Oct_12_1108,Experiment,2021.1.4,360.4188066587541,
images\S8_M_H_03.png,images\S8_M_H_03_scrambled.png,8,happy,30,male,6,,285,off,1,0.5,0.75,0.5,0.905,3,284,1,1,1,0,0,0,0,6,,,,,,0,109,109,109,,,,,,,,,,,,,,,,,,,,,,,,,,,,,,,,,,,,,,,,,,,,,,,,,,,,,,,,,652.8053206000004,653.3107388000008,653.3107388000008,654.0660508999999,654.0660508999999,654.5687851000002,654.5687851000002,655.4795346999999,655.4795346999999,None,num_4,0.492739100000108,655.4795346999999,None,happy,1,Happy,655.9849869000001,None,None,655.9849869000001,None,,,,,,,,,,,,,,,,,,,,,,,,,,,,,,,,,,,,,,,,,,,,,,,,,,,,,21,001,1,18,525,500,2022_Oct_12_1108,Experiment,2021.1.4,360.4188066587541,
images\S2_M_H_01.png,images\S2_M_H_01_scrambled.png,2,happy,10,male,4,,7,off,1,0.5,0.75,0.5,0.916,3,6,2,1,1,0,0,0,0,4,,,,,,0,110,110,110,,,,,,,,,,,,,,,,,,,,,,,,,,,,,,,,,,,,,,,,,,,,,,,,,,,,,,,,,656.0321029000006,656.5319449000008,656.5319449000008,657.2873872,657.2873872,657.7927958,657.7927958,658.7118342000003,658.7118342000003,None,num_4,0.4037706999997681,658.7118342000003,None,happy,1,Happy,659.1256255,None,None,659.1256255,None,,,,,,,,,,,,,,,,,,,,,,,,,,,,,,,,,,,,,,,,,,,,,,,,,,,,,21,001,1,18,525,500,2022_Oct_12_1108,Experiment,2021.1.4,360.4188066587541,
images\S7_F_S_03.png,images\S7_F_S_03_scrambled.png,7,sad,-30,female,1,,522,off,1,0.5,0.75,0.5,0.931,3,521,3,1,1,0,0,0,0,1,,,,,,0,111,111,111,,,,,,,,,,,,,,,,,,,,,,,,,,,,,,,,,,,,,,,,,,,,,,,,,,,,,,,,,659.1728051,659.6754282000002,659.6754282000002,660.4279673999999,660.4279673999999,660.9334403000003,660.9334403000003,661.8692406,661.8692406,None,num_6,0.15037940000001981,661.8692406,None,sad,1,Sad,662.0302515000004,None,None,662.0302515000004,None,,,,,,,,,,,,,,,,,,,,,,,,,,,,,,,,,,,,,,,,,,,,,,,,,,,,,21,001,1,18,525,500,2022_Oct_12_1108,Experiment,2021.1.4,360.4188066587541,
images\S8_M_S_01.png,images\S8_M_S_01_scrambled.png,8,sad,-10,male,3,,406,off,1,0.5,0.75,0.5,0.848,3,405,4,1,1,0,0,0,0,3,,,,,,0,112,112,112,,,,,,,,,,,,,,,,,,,,,,,,,,,,,,,,,,,,,,,,,,,,,,,,,,,,,,,,,662.0774657000002,662.5801177000003,662.5801177000003,663.3326684000003,663.3326684000003,663.8352542000002,663.8352542000002,664.6878987,664.6878987,None,num_6,0.3559735999997429,664.6878987,None,sad,1,Sad,665.0654993000005,None,None,665.0654993000005,None,,,,,,,,,,,,,,,,,,,,,,,,,,,,,,,,,,,,,,,,,,,,,,,,,,,,,21,001,1,18,525,500,2022_Oct_12_1108,Experiment,2021.1.4,360.4188066587541,
images\S3_F_H_01.png,images\S3_F_H_01_scrambled.png,3,happy,10,female,4,,373,off,1,0.5,0.75,0.5,0.759,3,372,5,1,1,0,0,0,0,4,,,,,,0,113,113,113,,,,,,,,,,,,,,,,,,,,,,,,,,,,,,,,,,,,,,,,,,,,,,,,,,,,,,,,,665.1403494000006,665.6431834000005,665.6431834000005,666.3928334000002,666.3928334000002,666.8954524999999,666.8954524999999,667.6563000000006,667.6563000000006,None,num_6,0.43522529999972903,667.6563000000006,None,sad,1,Happy,668.1006020999998,None,None,668.1006020999998,None,,,,,,,,,,,,,,,,,,,,,,,,,,,,,,,,,,,,,,,,,,,,,,,,,,,,,21,001,1,18,525,500,2022_Oct_12_1108,Experiment,2021.1.4,360.4188066587541,
images\S2_M_S_01.png,images\S2_M_S_01_scrambled.png,2,sad,-10,male,3,,370,off,1,0.5,0.75,0.5,0.948,3,369,6,1,1,0,0,0,0,3,,,,,,0,114,114,114,,,,,,,,,,,,,,,,,,,,,,,,,,,,,,,,,,,,,,,,,,,,,,,,,,,,,,,,,668.1478187000002,668.6476615000001,668.6476615000001,669.4030165000004,669.4030165000004,669.9056515000002,669.9056515000002,670.8581221000004,670.8581221000004,None,num_6,0.5214718999995966,670.8581221000004,None,sad,1,Sad,671.4023725500001,None,None,671.4023725500001,None,,,,,,,,,,,,,,,,,,,,,,,,,,,,,,,,,,,,,,,,,,,,,,,,,,,,,21,001,1,18,525,500,2022_Oct_12_1108,Experiment,2021.1.4,360.4188066587541,
images\S8_M_S_02.png,images\S8_M_S_02_scrambled.png,8,sad,-20,male,2,,407,off,1,0.5,0.75,0.5,0.838,3,406,7,1,1,0,0,0,0,2,,,,,,0,115,115,115,,,,,,,,,,,,,,,,,,,,,,,,,,,,,,,,,,,,,,,,,,,,,,,,,,,,,,,,,671.4856816000001,671.988429,671.988429,672.7380834000005,672.7380834000005,673.2379159000002,673.2379159000002,674.0821326000005,674.0821326000005,None,num_6,0.38554130000011355,674.0821326000005,None,sad,1,Sad,674.4819881000004,None,None,674.4819881000004,None,,,,,,,,,,,,,,,,,,,,,,,,,,,,,,,,,,,,,,,,,,,,,,,,,,,,,21,001,1,18,525,500,2022_Oct_12_1108,Experiment,2021.1.4,360.4188066587541,
images\S9_F_S_02.png,images\S9_F_S_02_scrambled.png,9,sad,-20,female,2,,233,on,2,0.5,0.75,0.5,0.853,3,232,1,1,2,2,2,32,128,162,,,,,,0,116,116,116,,,,,,,,,,,,,,,,,,,,,,,,,,,,,,,,,,,,,,,,,,,,,,,,,,,,,,,,,674.5291993999999,675.0318195,675.0318195,675.7844123000004,675.7844123000004,676.2897964000003,676.2897964000003,677.1450755000005,677.1450755000005,None,num_4,0.6106178,677.1450755000005,None,happy,1,Sad,677.7670827000006,None,None,677.7670827000006,None,,,,,,,,,,,,,,,,,,,,,,,,,,,,,,,,,,,,,,,,,,,,,,,,,,,,,21,001,1,18,525,500,2022_Oct_12_1108,Experiment,2021.1.4,360.4188066587541,
images\S8_M_H_03.png,images\S8_M_H_03_scrambled.png,8,happy,30,male,6,,585,on,2,0.5,0.75,0.5,0.869,3,584,2,1,1,2,2,32,128,166,,,,,,0,117,117,117,,,,,,,,,,,,,,,,,,,,,,,,,,,,,,,,,,,,,,,,,,,,,,,,,,,,,,,,,677.8142928000007,678.3169309000004,678.3169309000004,679.0722457000002,679.0722457000002,679.5749284000003,679.5749284000003,680.4468260000003,680.4468260000003,None,num_4,0.2771747000006144,680.4468260000003,None,happy,1,Happy,680.7440686500004,None,None,680.7440686500004,None,,,,,,,,,,,,,,,,,,,,,,,,,,,,,,,,,,,,,,,,,,,,,,,,,,,,,21,001,1,18,525,500,2022_Oct_12_1108,Experiment,2021.1.4,360.4188066587541,
images\S3_F_H_02.png,images\S3_F_H_02_scrambled.png,3,happy,20,female,5,,134,off,1,0.5,0.75,0.5,0.947,3,133,1,1,1,0,0,0,0,5,,,,,,0,118,118,118,,,,,,,,,,,,,,,,,,,,,,,,,,,,,,,,,,,,,,,,,,,,,,,,,,,,,,,,,680.7939279000002,681.2937734000006,681.2937734000006,682.0435436000007,682.0435436000007,682.5490782000006,682.5490782000006,683.4987734000006,683.4987734000006,None,num_4,0.4489192000000912,683.4987734000006,None,happy,1,Happy,683.96519975,None,None,683.96519975,None,,,,,,,,,,,,,,,,,,,,,,,,,,,,,,,,,,,,,,,,,,,,,,,,,,,,,21,001,1,18,525,500,2022_Oct_12_1108,Experiment,2021.1.4,360.4188066587541,
images\S1_F_H_02.png,images\S1_F_H_02_scrambled.png,1,happy,20,female,5,,2,off,1,0.5,0.75,0.5,0.805,3,1,2,1,2,0,0,0,0,5,,,,,,0,119,119,119,,,,,,,,,,,,,,,,,,,,,,,,,,,,,,,,,,,,,,,,,,,,,,,,,,,,,,,,,684.0429328,684.5455786000002,684.5455786000002,685.3009010000005,685.3009010000005,685.8035375,685.8035375,686.6144886000002,686.6144886000002,None,num_4,0.42114589999982854,686.6144886000002,None,happy,1,Happy,687.0503303000006,None,None,687.0503303000006,None,,,,,,,,,,,,,,,,,,,,,,,,,,,,,,,,,,,,,,,,,,,,,,,,,,,,,21,001,1,18,525,500,2022_Oct_12_1108,Experiment,2021.1.4,360.4188066587541,
images\S3_F_S_01.png,images\S3_F_S_01_scrambled.png,3,sad,-10,female,3,,436,on,2,0.5,0.75,0.5,0.845,3,435,1,1,1,2,2,32,128,163,,,,,,0,120,120,120,,,,,,,,,,,,,,,,,,,,,,,,,,,,,,,,,,,,,,,,,,,,,,,,,,,,,,,,,687.0975428000002,687.6029725000008,687.6029725000008,688.3555802999999,688.3555802999999,688.8609553000006,688.8609553000006,689.7107166000005,689.7107166000005,None,num_6,0.39701849999983096,689.7107166000005,None,sad,1,Sad,690.1216204000003,None,None,690.1216204000003,None,,,,,,,,,,,,,,,,,,,,,,,,,,,,,,,,,,,,,,,,,,,,,,,,,,,,,21,001,1,18,525,500,2022_Oct_12_1108,Experiment,2021.1.4,360.4188066587541,
images\S1_F_H_01.png,images\S1_F_H_01_scrambled.png,1,happy,10,female,4,,1,off,1,0.5,0.75,0.5,0.759,3,0,1,1,1,0,0,0,0,4,,,,,,0,121,121,121,,,,,,,,,,,,,,,,,,,,,,,,,,,,,,,,,,,,,,,,,,,,,,,,,,,,,,,,,690.1716011000008,690.6770407000004,690.6770407000004,691.4295520000005,691.4295520000005,691.9322120000006,691.9322120000006,692.6930741000006,692.6930741000006,None,num_4,0.33450100000027305,692.6930741000006,None,happy,1,Happy,693.0429438000002,None,None,693.0429438000002,None,,,,,,,,,,,,,,,,,,,,,,,,,,,,,,,,,,,,,,,,,,,,,,,,,,,,,21,001,1,18,525,500,2022_Oct_12_1108,Experiment,2021.1.4,360.4188066587541,
images\S3_F_H_01.png,images\S3_F_H_01_scrambled.png,3,happy,10,female,4,,553,on,2,0.5,0.75,0.5,0.78,3,552,1,1,2,2,2,32,128,164,,,,,,0,122,122,122,,,,,,,,,,,,,,,,,,,,,,,,,,,,,,,,,,,,,,,,,,,,,,,,,,,,,,,,,693.0929243,693.5983579000003,693.5983579000003,694.3510227000006,694.3510227000006,694.8563989000004,694.8563989000004,695.6421931000004,695.6421931000004,None,num_6,2.7614773999994213,695.6421931000004,None,sad,1,Happy,698.4135139000005,None,None,698.4135139000005,None,,,,,,,,,,,,,,,,,,,,,,,,,,,,,,,,,,,,,,,,,,,,,,,,,,,,,21,001,1,18,525,500,2022_Oct_12_1108,Experiment,2021.1.4,360.4188066587541,
images\S5_F_S_02.png,images\S5_F_S_02_scrambled.png,5,sad,-20,female,2,,269,off,1,0.5,0.75,0.5,0.768,3,268,1,1,1,0,0,0,0,2,,,,,,0,123,123,123,,,,,,,,,,,,,,,,,,,,,,,,,,,,,,,,,,,,,,,,,,,,,,,,,,,,,,,,,698.4607116000006,698.9633344000003,698.9633344000003,699.7159136,699.7159136,700.2157297000003,700.2157297000003,700.9905259000006,700.9905259000006,None,num_4,0.3492103999997198,700.9905259000006,None,happy,1,Sad,701.3515389500006,None,None,701.3515389500006,None,,,,,,,,,,,,,,,,,,,,,,,,,,,,,,,,,,,,,,,,,,,,,,,,,,,,,21,001,1,18,525,500,2022_Oct_12_1108,Experiment,2021.1.4,360.4188066587541,
images\S6_M_H_02.png,images\S6_M_H_02_scrambled.png,6,happy,20,male,5,,152,off,1,0.5,0.75,0.5,0.832,3,151,2,1,1,0,0,0,0,5,,,,,,0,124,124,124,,,,,,,,,,,,,,,,,,,,,,,,,,,,,,,,,,,,,,,,,,,,,,,,,,,,,,,,,701.4098044000002,701.9124298000006,701.9124298000006,702.6650472000001,702.6650472000001,703.1676393000007,703.1676393000007,704.0062573000005,704.0062573000005,None,num_4,0.829066999999668,704.0062573000005,None,happy,1,Happy,704.8476551000005,None,None,704.8476551000005,None,,,,,,,,,,,,,,,,,,,,,,,,,,,,,,,,,,,,,,,,,,,,,,,,,,,,,21,001,1,18,525,500,2022_Oct_12_1108,Experiment,2021.1.4,360.4188066587541,
images\S9_F_S_01.png,images\S9_F_S_01_scrambled.png,9,sad,-10,female,3,,292,off,1,0.5,0.75,0.5,0.821,3,291,3,1,1,0,0,0,0,3,,,,,,0,125,125,125,,,,,,,,,,,,,,,,,,,,,,,,,,,,,,,,,,,,,,,,,,,,,,,,,,,,,,,,,704.9309410000005,705.4335933000002,705.4335933000002,706.1862335000005,706.1862335000005,706.6859534000005,706.6859534000005,707.5079264000005,707.5079264000005,None,num_4,0.4555852000003142,707.5079264000005,None,happy,1,Sad,707.9716881999998,None,None,707.9716881999998,None,,,,,,,,,,,,,,,,,,,,,,,,,,,,,,,,,,,,,,,,,,,,,,,,,,,,,21,001,1,18,525,500,2022_Oct_12_1108,Experiment,2021.1.4,360.4188066587541,
images\S2_M_H_02.png,images\S2_M_H_02_scrambled.png,2,happy,20,male,5,,368,off,1,0.5,0.75,0.5,0.775,3,367,4,1,1,0,0,0,0,5,,,,,,0,126,126,126,,,,,,,,,,,,,,,,,,,,,,,,,,,,,,,,,,,,,,,,,,,,,,,,,,,,,,,,,708.0271981000005,708.5298514000006,708.5298514000006,709.2851649000004,709.2851649000004,709.7878206000005,709.7878206000005,710.5653491000003,710.5653491000003,None,num_4,0.3664287999999942,710.5653491000003,None,happy,1,Happy,710.9513605999998,None,None,710.9513605999998,None,,,,,,,,,,,,,,,,,,,,,,,,,,,,,,,,,,,,,,,,,,,,,,,,,,,,,21,001,1,18,525,500,2022_Oct_12_1108,Experiment,2021.1.4,360.4188066587541,
images\S6_M_S_03.png,images\S6_M_S_03_scrambled.png,6,sad,-30,male,1,,456,on,2,0.5,0.75,0.5,0.793,3,455,1,1,1,2,2,32,128,161,,,,,,0,127,127,127,,,,,,,,,,,,,,,,,,,,,,,,,,,,,,,,,,,,,,,,,,,,,,,,,,,,,,,,,711.0596088000002,711.5650204000003,711.5650204000003,712.3148286000005,712.3148286000005,712.8174330000002,712.8174330000002,713.6143873000001,713.6143873000001,None,num_6,0.4050827000000936,713.6143873000001,None,sad,1,Sad,714.0337037999999,None,None,714.0337037999999,None,,,,,,,,,,,,,,,,,,,,,,,,,,,,,,,,,,,,,,,,,,,,,,,,,,,,,21,001,1,18,525,500,2022_Oct_12_1108,Experiment,2021.1.4,360.4188066587541,
images\S2_M_H_03.png,images\S2_M_H_03_scrambled.png,2,happy,30,male,6,,309,on,2,0.5,0.75,0.5,0.933,3,308,2,1,1,2,2,32,128,166,,,,,,0,128,128,128,,,,,,,,,,,,,,,,,,,,,,,,,,,,,,,,,,,,,,,,,,,,,,,,,,,,,,,,,714.0836810000001,714.5864242000007,714.5864242000007,715.3388730000006,715.3388730000006,715.8415917000002,715.8415917000002,716.7773365000003,716.7773365000003,None,num_4,0.26656260000072507,716.7773365000003,None,happy,1,Happy,717.0577677000002,None,None,717.0577677000002,None,,,,,,,,,,,,,,,,,,,,,,,,,,,,,,,,,,,,,,,,,,,,,,,,,,,,,21,001,1,18,525,500,2022_Oct_12_1108,Experiment,2021.1.4,360.4188066587541,
images\S9_F_S_03.png,images\S9_F_S_03_scrambled.png,9,sad,-30,female,1,,294,off,1,0.5,0.75,0.5,0.85,3,293,1,1,1,0,0,0,0,1,,,,,,0,129,129,129,,,,,,,,,,,,,,,,,,,,,,,,,,,,,,,,,,,,,,,,,,,,,,,,,,,,,,,,,717.1216344000004,717.6242689999999,717.6242689999999,718.3768946,718.3768946,718.8822425000008,718.8822425000008,719.7347297000006,719.7347297000006,None,num_6,0.7648482000004151,719.7347297000006,None,sad,1,Sad,720.5095499999999,None,None,720.5095499999999,None,,,,,,,,,,,,,,,,,,,,,,,,,,,,,,,,,,,,,,,,,,,,,,,,,,,,,21,001,1,18,525,500,2022_Oct_12_1108,Experiment,2021.1.4,360.4188066587541,
images\S8_M_S_02.png,images\S8_M_S_02_scrambled.png,8,sad,-20,male,2,,107,on,2,0.5,0.75,0.5,0.934,3,106,1,1,1,2,2,32,128,162,,,,,,0,130,130,130,,,,,,,,,,,,,,,,,,,,,,,,,,,,,,,,,,,,,,,,,,,,,,,,,,,,,,,,,720.5566904000007,721.0565524000003,721.0565524000003,721.8090925000006,721.8090925000006,722.3118512000001,722.3118512000001,723.2531123000008,723.2531123000008,None,num_6,0.5985565000000861,723.2531123000008,None,sad,1,Sad,723.8695668,None,space,723.8695668,None,52.597282200000336,,,,,,,,,,,,,,,,,,,,,,,,,,,,,,,,,,,,,,,,,,,,,,,,,,,,21,001,1,18,525,500,2022_Oct_12_1108,Experiment,2021.1.4,360.4188066587541,
images\S3_F_H_02.png,images\S3_F_H_02_scrambled.png,3,happy,20,female,5,,314,on,2,0.5,0.75,0.5,0.864,3,313,2,1,1,2,2,32,128,165,,,,,,0,131,131,131,,,,,,,,,,,,,,,,,,,,,,,,,,,,,,,,,,,,,,,,,,,,,,,,,,,,,,,,,776.5200259000003,777.0255440000001,777.0255440000001,777.7779956000004,777.7779956000004,778.2833891,778.2833891,779.1498174000008,779.1498174000008,None,num_4,0.20580690000042523,779.1498174000008,None,happy,1,Happy,779.3691564000002,None,None,779.3691564000002,None,,,,,,,,,,,,,,,,,,,,,,,,,,,,,,,,,,,,,,,,,,,,,,,,,,,,,21,001,1,18,525,500,2022_Oct_12_1108,Experiment,2021.1.4,360.4188066587541,
images\S7_F_S_03.png,images\S7_F_S_03_scrambled.png,7,sad,-30,female,1,,582,on,2,0.5,0.75,0.5,0.888,3,581,3,1,1,2,2,32,128,161,,,,,,0,132,132,132,,,,,,,,,,,,,,,,,,,,,,,,,,,,,,,,,,,,,,,,,,,,,,,,,,,,,,,,,779.4163579000005,779.9217593000003,779.9217593000003,780.6743374000007,780.6743374000007,781.1769514000007,781.1769514000007,782.0683103000001,782.0683103000001,None,num_6,0.2715693000000101,782.0683103000001,None,sad,1,Sad,782.3572191999999,None,None,782.3572191999999,None,,,,,,,,,,,,,,,,,,,,,,,,,,,,,,,,,,,,,,,,,,,,,,,,,,,,,21,001,1,18,525,500,2022_Oct_12_1108,Experiment,2021.1.4,360.4188066587541,
images\S8_M_S_03.png,images\S8_M_S_03_scrambled.png,8,sad,-30,male,1,,288,off,1,0.5,0.75,0.5,0.884,3,287,1,1,2,0,0,0,0,1,,,,,,0,133,133,133,,,,,,,,,,,,,,,,,,,,,,,,,,,,,,,,,,,,,,,,,,,,,,,,,,,,,,,,,782.4099055000006,782.9097178000002,782.9097178000002,783.6594916000004,783.6594916000004,784.1650349000001,784.1650349000001,785.0508164000003,785.0508164000003,None,num_6,0.5211517999996431,785.0508164000003,None,sad,1,Sad,785.5923844000006,None,None,785.5923844000006,None,,,,,,,,,,,,,,,,,,,,,,,,,,,,,,,,,,,,,,,,,,,,,,,,,,,,,21,001,1,18,525,500,2022_Oct_12_1108,Experiment,2021.1.4,360.4188066587541,
images\S7_F_H_02.png,images\S7_F_H_02_scrambled.png,7,happy,20,female,5,,578,on,2,0.5,0.75,0.5,0.905,3,577,1,1,1,2,2,32,128,165,,,,,,0,134,134,134,,,,,,,,,,,,,,,,,,,,,,,,,,,,,,,,,,,,,,,,,,,,,,,,,,,,,,,,,785.7033094000008,786.2031651000007,786.2031651000007,786.9529153000003,786.9529153000003,787.4556676000002,787.4556676000002,788.3608227000004,788.3608227000004,None,num_4,0.4986905999994633,788.3608227000004,None,happy,1,Happy,788.8718019999998,None,None,788.8718019999998,None,,,,,,,,,,,,,,,,,,,,,,,,,,,,,,,,,,,,,,,,,,,,,,,,,,,,,21,001,1,18,525,500,2022_Oct_12_1108,Experiment,2021.1.4,360.4188066587541,
images\blank.jpg,images\blank.jpg,none,none,none,none,0,,623,on,2,0.5,0.75,0.5,0.822,0,622,2,1,1,3,3,48,192,240,,,,,,0,135,135,135,,,,,,,,,,,,,,,,,,,,,,,,,,,,,,,,,,,,,,,,,,,,,,,,,,,,,,,,,788.9581336000001,789.4606332000003,789.4606332000003,790.2102748000007,790.2102748000007,790.7101306000004,790.7101306000004,791.5349923000003,791.5349923000003,791.5349923000003,None,,791.5349923000003,None,miss,1,,794.5395328999998,None,None,794.5395328999998,None,,,,,,,,,,,,,,,,,,,,,,,,,,,,,,,,,,,,,,,,,,,,,,,,,,,,,21,001,1,18,525,500,2022_Oct_12_1108,Experiment,2021.1.4,360.4188066587541,
images\S7_F_S_01.png,images\S7_F_S_01_scrambled.png,7,sad,-10,female,3,,220,on,2,0.5,0.75,0.5,0.927,3,219,3,1,1,2,2,32,128,163,,,,,,0,136,136,136,,,,,,,,,,,,,,,,,,,,,,,,,,,,,,,,,,,,,,,,,,,,,,,,,,,,,,,,,794.6591317000002,795.1615529999999,795.1615529999999,795.9168312000002,795.9168312000002,796.4222616000006,796.4222616000006,797.3497226,797.3497226,None,num_4,0.6379657999996198,797.3497226,794.6591317000002,happy,1,Sad,798.0023621500003,None,None,798.0023621500003,None,,,,,,,,,,,,,,,,,,,,,,,,,,,,,,,,,,,,,,,,,,,,,,,,,,,,,21,001,1,18,525,500,2022_Oct_12_1108,Experiment,2021.1.4,360.4188066587541,
images\S4_M_S_03.png,images\S4_M_S_03_scrambled.png,4,sad,-30,male,1,,144,off,1,0.5,0.75,0.5,0.931,3,143,1,1,1,0,0,0,0,1,,,,,,0,137,137,137,,,,,,,,,,,,,,,,,,,,,,,,,,,,,,,,,,,,,,,,,,,,,,,,,,,,,,,,,798.0633937000002,798.566073,798.566073,799.3158113,799.3158113,799.8212429000005,799.8212429000005,800.7542693000005,800.7542693000005,None,num_6,0.3856164999997418,800.7542693000005,None,sad,1,Sad,801.1653132000005,None,None,801.1653132000005,None,,,,,,,,,,,,,,,,,,,,,,,,,,,,,,,,,,,,,,,,,,,,,,,,,,,,,21,001,1,18,525,500,2022_Oct_12_1108,Experiment,2021.1.4,360.4188066587541,
images\S4_M_S_01.png,images\S4_M_S_01_scrambled.png,4,sad,-10,male,3,,442,on,2,0.5,0.75,0.5,0.898,3,441,1,2,1,2,2,32,128,163,,,,,,0,138,138,138,,,,,,,,,,,,,,,,,,,,,,,,,,,,,,,,,,,,,,,,,,,,,,,,,,,,,,,,,801.2735121000005,801.7762033000008,801.7762033000008,802.5259154000005,802.5259154000005,803.0313492000005,803.0313492000005,803.9310906000001,803.9310906000001,None,num_6,0.37675709999984974,803.9310906000001,None,sad,1,Sad,804.3254695500004,None,None,804.3254695500004,None,,,,,,,,,,,,,,,,,,,,,,,,,,,,,,,,,,,,,,,,,,,,,,,,,,,,,21,001,1,18,525,500,2022_Oct_12_1108,Experiment,2021.1.4,360.4188066587541,
images\S2_M_H_02.png,images\S2_M_H_02_scrambled.png,2,happy,20,male,5,,548,on,2,0.5,0.75,0.5,0.785,3,547,2,1,1,2,2,32,128,165,,,,,,0,139,139,139,,,,,,,,,,,,,,,,,,,,,,,,,,,,,,,,,,,,,,,,,,,,,,,,,,,,,,,,,804.3754901000002,804.8808434000002,804.8808434000002,805.6360591000002,805.6360591000002,806.138739,806.138739,806.9273484000005,806.9273484000005,None,num_4,0.34027400000013586,806.9273484000005,None,happy,1,Happy,807.2912250000003,None,None,807.2912250000003,None,,,,,,,,,,,,,,,,,,,,,,,,,,,,,,,,,,,,,,,,,,,,,,,,,,,,,21,001,1,18,525,500,2022_Oct_12_1108,Experiment,2021.1.4,360.4188066587541,
images\S3_F_S_03.png,images\S3_F_S_03_scrambled.png,3,sad,-30,female,1,,138,off,1,0.5,0.75,0.5,0.855,3,137,1,1,1,0,0,0,0,1,,,,,,0,140,140,140,,,,,,,,,,,,,,,,,,,,,,,,,,,,,,,,,,,,,,,,,,,,,,,,,,,,,,,,,807.3438807000002,807.8465272000003,807.8465272000003,808.5990664000001,808.5990664000001,809.1016999000003,809.1016999000003,809.9598867000004,809.9598867000004,None,num_6,0.2755372999999963,809.9598867000004,None,sad,1,Sad,810.2596777500003,None,None,810.2596777500003,None,,,,,,,,,,,,,,,,,,,,,,,,,,,,,,,,,,,,,,,,,,,,,,,,,,,,,21,001,1,18,525,500,2022_Oct_12_1108,Experiment,2021.1.4,360.4188066587541,
