image_face,image_scram,avatar,emo,emotion,sex,trigeeg,dac,trial_no,NMES,stimtime,baseline,iti,face,scr_face,resp_time,index,count_NMES,count_avatar,count_emotion,dac1,dac2,dac1_output,dac2_output,trigs_out,nmes,practice_trials.thisRepN,practice_trials.thisTrialN,practice_trials.thisN,practice_trials.thisIndex,real_trials.thisRepN,real_trials.thisTrialN,real_trials.thisN,real_trials.thisIndex,trials.thisRepN,trials.thisTrialN,trials.thisN,trials.thisIndex,position,Welcome.started,Welcome.stopped,Welcome_resp.keys,Welcome_resp.rt,text_2.started,text_2.stopped,form_2.index,form_2.itemText,form_2.type,form_2.response,form_2.rt,key_resp_4.keys,key_resp_4.rt,key_resp_4.started,key_resp_4.stopped,instructions.started,instructions.stopped,end_instr.keys,end_instr.rt,instructions_2.started,instructions_2.stopped,end_instr_2.keys,end_instr_2.rt,end_instr_2.started,end_instr_2.stopped,instruct_keypress.started,instruct_keypress.stopped,end_instruct_keypress.keys,end_instruct_keypress.rt,start_practice.started,start_practice.stopped,start_practice_resp.keys,start_practice_resp.rt,prac_baseline.started,prac_baseline.stopped,prac_iti.started,prac_iti.stopped,prac_stimulus.started,prac_stimulus.stopped,prac_scram_stim.started,prac_scram_stim.stopped,prac_stimulus_resp.started,prac_stimulus_resp.stopped,prac_resp.keys,prac_resp.rt,prac_resp.started,prac_resp.stopped,transition_to_real.started,transition_to_real.stopped,end_transition_to_real.keys,end_transition_to_real.rt,fixation_cross.started,fixation_cross.stopped,tr_iti.started,tr_iti.stopped,stimulus.started,stimulus.stopped,scram_stim.started,scram_stim.stopped,response_txt.started,response_txt.stopped,response.keys,response.rt,response.started,response.stopped,participant_Resp,grouping,corAnswer,break_msg.started,break_msg.stopped,end_break.keys,end_break.started,end_break.stopped,end_break.rt,text.started,text.stopped,key_resp_3.keys,key_resp_3.rt,key_resp_3.started,key_resp_3.stopped,fix_cross_comf.started,fix_cross_comf.stopped,stimulation_comf.started,stimulation_comf.stopped,rate_instr.started,rate_instr.stopped,comfort_rating.response,comfort_rating.rt,comfort_rating.started,comfort_rating.stopped,resp_form.keys,resp_form.rt,resp_form.started,resp_form.stopped,survey_instructions.started,survey_instructions.stopped,key_resp_2.keys,key_resp_2.rt,key_resp_2.started,key_resp_2.stopped,form.index,form.itemText,form.type,form.response,form.rt,key_resp.keys,key_resp.rt,key_resp.started,key_resp.stopped,text_3.started,text_3.stopped,rate_smile.response,rate_smile.rt,rate_smile.started,rate_smile.stopped,key_resp_5.keys,key_resp_5.rt,key_resp_5.started,key_resp_5.stopped,end_msg.started,end_msg.stopped,end_resp.keys,end_resp.rt,end_resp.started,end_resp.stopped,participant,session,gender,age,LEFT,RIGHT,date,expName,psychopyVersion,frameRate,
,,,,,,,,,,,,,,,,,,,,,,,,,,,,,,,,,,,,,,S-H,52.62326740000026,None,num_add,4.1508463000009215,,,,,,,,,,,,,,,,,,,,,,,,,,,,,,,,,,,,,,,,,,,,,,,,,,,,,,,,,,,,,,,,,,,,,,,,,,,,,,,,,,,,,,,,,,,,,,,,,,,,,,,,,,,,,,,,,,,,,,,,,,22,001,1,19,450,500,2022_Oct_17_1221,Experiment,2021.1.4,360.004896059338,
,,,,,,,,,,,,,,,,,,,,,,,,,,,,,,,,,,,,,,,,,,,56.801699600000575,58.85939940000026,1,"This scale consistes of a number of words that describe different feelings and emotion. Read each item and then list the number from the scale below each word. Indicate (by clicking) to what extend you feel this way RIGHT NOW, that is, AT THE PRESENT MOMENT.",description,,,,,,,,,,,,,,,,,,,,,,,,,,,,,,,,,,,,,,,,,,,,,,,,,,,,,,,,,,,,,,,,,,,,,,,,,,,,,,,,,,,,,,,,,,,,,,,,,,,,,,,,,,,,,,,,,,,,,22,001,1,19,450,500,2022_Oct_17_1221,Experiment,2021.1.4,360.004896059338,
,,,,,,,,,,,,,,,,,,,,,,,,,,,,,,,,,,,,,,,,,,,,,2,Interested,rating,4.0,21.079447000000073,,,,,,,,,,,,,,,,,,,,,,,,,,,,,,,,,,,,,,,,,,,,,,,,,,,,,,,,,,,,,,,,,,,,,,,,,,,,,,,,,,,,,,,,,,,,,,,,,,,,,,,,,,,,,,,,,,,22,001,1,19,450,500,2022_Oct_17_1221,Experiment,2021.1.4,360.004896059338,
,,,,,,,,,,,,,,,,,,,,,,,,,,,,,,,,,,,,,,,,,,,,,3,Distressed,rating,1.0,29.993275699998776,,,,,,,,,,,,,,,,,,,,,,,,,,,,,,,,,,,,,,,,,,,,,,,,,,,,,,,,,,,,,,,,,,,,,,,,,,,,,,,,,,,,,,,,,,,,,,,,,,,,,,,,,,,,,,,,,,,22,001,1,19,450,500,2022_Oct_17_1221,Experiment,2021.1.4,360.004896059338,
,,,,,,,,,,,,,,,,,,,,,,,,,,,,,,,,,,,,,,,,,,,,,4,Excited,rating,3.0,31.82828789999985,,,,,,,,,,,,,,,,,,,,,,,,,,,,,,,,,,,,,,,,,,,,,,,,,,,,,,,,,,,,,,,,,,,,,,,,,,,,,,,,,,,,,,,,,,,,,,,,,,,,,,,,,,,,,,,,,,,22,001,1,19,450,500,2022_Oct_17_1221,Experiment,2021.1.4,360.004896059338,
,,,,,,,,,,,,,,,,,,,,,,,,,,,,,,,,,,,,,,,,,,,,,5,Upset,rating,1.0,35.93051170000035,,,,,,,,,,,,,,,,,,,,,,,,,,,,,,,,,,,,,,,,,,,,,,,,,,,,,,,,,,,,,,,,,,,,,,,,,,,,,,,,,,,,,,,,,,,,,,,,,,,,,,,,,,,,,,,,,,,22,001,1,19,450,500,2022_Oct_17_1221,Experiment,2021.1.4,360.004896059338,
,,,,,,,,,,,,,,,,,,,,,,,,,,,,,,,,,,,,,,,,,,,,,6,Strong,rating,2.0,47.16533590000108,,,,,,,,,,,,,,,,,,,,,,,,,,,,,,,,,,,,,,,,,,,,,,,,,,,,,,,,,,,,,,,,,,,,,,,,,,,,,,,,,,,,,,,,,,,,,,,,,,,,,,,,,,,,,,,,,,,22,001,1,19,450,500,2022_Oct_17_1221,Experiment,2021.1.4,360.004896059338,
,,,,,,,,,,,,,,,,,,,,,,,,,,,,,,,,,,,,,,,,,,,,,7,Guilty,rating,2.0,27.417460499998924,,,,,,,,,,,,,,,,,,,,,,,,,,,,,,,,,,,,,,,,,,,,,,,,,,,,,,,,,,,,,,,,,,,,,,,,,,,,,,,,,,,,,,,,,,,,,,,,,,,,,,,,,,,,,,,,,,,22,001,1,19,450,500,2022_Oct_17_1221,Experiment,2021.1.4,360.004896059338,
,,,,,,,,,,,,,,,,,,,,,,,,,,,,,,,,,,,,,,,,,,,,,8,Scared,rating,1.0,25.121763700000884,,,,,,,,,,,,,,,,,,,,,,,,,,,,,,,,,,,,,,,,,,,,,,,,,,,,,,,,,,,,,,,,,,,,,,,,,,,,,,,,,,,,,,,,,,,,,,,,,,,,,,,,,,,,,,,,,,,22,001,1,19,450,500,2022_Oct_17_1221,Experiment,2021.1.4,360.004896059338,
,,,,,,,,,,,,,,,,,,,,,,,,,,,,,,,,,,,,,,,,,,,,,9,Hostile,rating,None,None,,,,,,,,,,,,,,,,,,,,,,,,,,,,,,,,,,,,,,,,,,,,,,,,,,,,,,,,,,,,,,,,,,,,,,,,,,,,,,,,,,,,,,,,,,,,,,,,,,,,,,,,,,,,,,,,,,,22,001,1,19,450,500,2022_Oct_17_1221,Experiment,2021.1.4,360.004896059338,
,,,,,,,,,,,,,,,,,,,,,,,,,,,,,,,,,,,,,,,,,,,,,10,Enthusiastic,rating,1.0,8.348096800000349,,,,,,,,,,,,,,,,,,,,,,,,,,,,,,,,,,,,,,,,,,,,,,,,,,,,,,,,,,,,,,,,,,,,,,,,,,,,,,,,,,,,,,,,,,,,,,,,,,,,,,,,,,,,,,,,,,,22,001,1,19,450,500,2022_Oct_17_1221,Experiment,2021.1.4,360.004896059338,
,,,,,,,,,,,,,,,,,,,,,,,,,,,,,,,,,,,,,,,,,,,,,11,Proud,rating,1.0,5.281318999999712,,,,,,,,,,,,,,,,,,,,,,,,,,,,,,,,,,,,,,,,,,,,,,,,,,,,,,,,,,,,,,,,,,,,,,,,,,,,,,,,,,,,,,,,,,,,,,,,,,,,,,,,,,,,,,,,,,,22,001,1,19,450,500,2022_Oct_17_1221,Experiment,2021.1.4,360.004896059338,
,,,,,,,,,,,,,,,,,,,,,,,,,,,,,,,,,,,,,,,,,,,,,12,Irritable,rating,2.0,7.486966000000393,,,,,,,,,,,,,,,,,,,,,,,,,,,,,,,,,,,,,,,,,,,,,,,,,,,,,,,,,,,,,,,,,,,,,,,,,,,,,,,,,,,,,,,,,,,,,,,,,,,,,,,,,,,,,,,,,,,22,001,1,19,450,500,2022_Oct_17_1221,Experiment,2021.1.4,360.004896059338,
,,,,,,,,,,,,,,,,,,,,,,,,,,,,,,,,,,,,,,,,,,,,,13,Alert,rating,3.0,8.286202100000082,,,,,,,,,,,,,,,,,,,,,,,,,,,,,,,,,,,,,,,,,,,,,,,,,,,,,,,,,,,,,,,,,,,,,,,,,,,,,,,,,,,,,,,,,,,,,,,,,,,,,,,,,,,,,,,,,,,22,001,1,19,450,500,2022_Oct_17_1221,Experiment,2021.1.4,360.004896059338,
,,,,,,,,,,,,,,,,,,,,,,,,,,,,,,,,,,,,,,,,,,,,,14,Ashamed,rating,2.0,15.193307699999423,,,,,,,,,,,,,,,,,,,,,,,,,,,,,,,,,,,,,,,,,,,,,,,,,,,,,,,,,,,,,,,,,,,,,,,,,,,,,,,,,,,,,,,,,,,,,,,,,,,,,,,,,,,,,,,,,,,22,001,1,19,450,500,2022_Oct_17_1221,Experiment,2021.1.4,360.004896059338,
,,,,,,,,,,,,,,,,,,,,,,,,,,,,,,,,,,,,,,,,,,,,,15,Inspired,rating,1.0,16.143600200000947,,,,,,,,,,,,,,,,,,,,,,,,,,,,,,,,,,,,,,,,,,,,,,,,,,,,,,,,,,,,,,,,,,,,,,,,,,,,,,,,,,,,,,,,,,,,,,,,,,,,,,,,,,,,,,,,,,,22,001,1,19,450,500,2022_Oct_17_1221,Experiment,2021.1.4,360.004896059338,
,,,,,,,,,,,,,,,,,,,,,,,,,,,,,,,,,,,,,,,,,,,,,16,Nervous,rating,2.0,14.037571800001388,,,,,,,,,,,,,,,,,,,,,,,,,,,,,,,,,,,,,,,,,,,,,,,,,,,,,,,,,,,,,,,,,,,,,,,,,,,,,,,,,,,,,,,,,,,,,,,,,,,,,,,,,,,,,,,,,,,22,001,1,19,450,500,2022_Oct_17_1221,Experiment,2021.1.4,360.004896059338,
,,,,,,,,,,,,,,,,,,,,,,,,,,,,,,,,,,,,,,,,,,,,,17,Determined,rating,2.0,19.38923160000013,,,,,,,,,,,,,,,,,,,,,,,,,,,,,,,,,,,,,,,,,,,,,,,,,,,,,,,,,,,,,,,,,,,,,,,,,,,,,,,,,,,,,,,,,,,,,,,,,,,,,,,,,,,,,,,,,,,22,001,1,19,450,500,2022_Oct_17_1221,Experiment,2021.1.4,360.004896059338,
,,,,,,,,,,,,,,,,,,,,,,,,,,,,,,,,,,,,,,,,,,,,,18,Attentive,rating,3.0,14.507857000000513,,,,,,,,,,,,,,,,,,,,,,,,,,,,,,,,,,,,,,,,,,,,,,,,,,,,,,,,,,,,,,,,,,,,,,,,,,,,,,,,,,,,,,,,,,,,,,,,,,,,,,,,,,,,,,,,,,,22,001,1,19,450,500,2022_Oct_17_1221,Experiment,2021.1.4,360.004896059338,
,,,,,,,,,,,,,,,,,,,,,,,,,,,,,,,,,,,,,,,,,,,,,19,Jittery,rating,2.0,14.686710899999525,,,,,,,,,,,,,,,,,,,,,,,,,,,,,,,,,,,,,,,,,,,,,,,,,,,,,,,,,,,,,,,,,,,,,,,,,,,,,,,,,,,,,,,,,,,,,,,,,,,,,,,,,,,,,,,,,,,22,001,1,19,450,500,2022_Oct_17_1221,Experiment,2021.1.4,360.004896059338,
,,,,,,,,,,,,,,,,,,,,,,,,,,,,,,,,,,,,,,,,,,,,,20,Active,rating,2.0,13.675065200000972,,,,,,,,,,,,,,,,,,,,,,,,,,,,,,,,,,,,,,,,,,,,,,,,,,,,,,,,,,,,,,,,,,,,,,,,,,,,,,,,,,,,,,,,,,,,,,,,,,,,,,,,,,,,,,,,,,,22,001,1,19,450,500,2022_Oct_17_1221,Experiment,2021.1.4,360.004896059338,
,,,,,,,,,,,,,,,,,,,,,,,,,,,,,,,,,,,,,,,,,,,,,21,Afraid,rating,1.0,11.113578899999993,,,,,,,,,,,,,,,,,,,,,,,,,,,,,,,,,,,,,,,,,,,,,,,,,,,,,,,,,,,,,,,,,,,,,,,,,,,,,,,,,,,,,,,,,,,,,,,,,,,,,,,,,,,,,,,,,,,22,001,1,19,450,500,2022_Oct_17_1221,Experiment,2021.1.4,360.004896059338,
,,,,,,,,,,,,,,,,,,,,,,,,,,,,,,,,,,,,,,,,,,,,,22,Press the + button to submit your answers,description,,,,,,,,,,,,,,,,,,,,,,,,,,,,,,,,,,,,,,,,,,,,,,,,,,,,,,,,,,,,,,,,,,,,,,,,,,,,,,,,,,,,,,,,,,,,,,,,,,,,,,,,,,,,,,,,,,,,,22,001,1,19,450,500,2022_Oct_17_1221,Experiment,2021.1.4,360.004896059338,
,,,,,,,,,,,,,,,,,,,,,,,,,,,,,,,,,,,,,,,,,,,,,,,,,,num_add,97.01736019999953,66.82083389999934,None,,,,,,,,,,,,,,,,,,,,,,,,,,,,,,,,,,,,,,,,,,,,,,,,,,,,,,,,,,,,,,,,,,,,,,,,,,,,,,,,,,,,,,,,,,,,,,,,,,,,,,,,,,,,,,,22,001,1,19,450,500,2022_Oct_17_1221,Experiment,2021.1.4,360.004896059338,
,,,,,,,,,,,,,,,,,,,,,,,,,,,,,,,,,,,,,,,,,,,,,,,,,,,,,,163.87166109999998,None,num_add,11.814425100001245,,,,,,,,,,,,,,,,,,,,,,,,,,,,,,,,,,,,,,,,,,,,,,,,,,,,,,,,,,,,,,,,,,,,,,,,,,,,,,,,,,,,,,,,,,,,,,,,,,,,,,,,,,,22,001,1,19,450,500,2022_Oct_17_1221,Experiment,2021.1.4,360.004896059338,
,,,,,,,,,,,,,,,,,,,,,,,,,,,,,,,,,,,,,,,,,,,,,,,,,,,,,,,,,,175.6957010999995,None,num_add,8.118491499999436,175.6957010999995,None,,,,,,,,,,,,,,,,,,,,,,,,,,,,,,,,,,,,,,,,,,,,,,,,,,,,,,,,,,,,,,,,,,,,,,,,,,,,,,,,,,,,,,,,,,,,,,,,,,,,,22,001,1,19,450,500,2022_Oct_17_1221,Experiment,2021.1.4,360.004896059338,
,,,,,,,,,,,,,,,,,,,,,,,,,,,,,,,,,,,,,,,,,,,,,,,,,,,,,,,,,,,,,,,,183.83764189999965,None,num_add,12.512474200000725,,,,,,,,,,,,,,,,,,,,,,,,,,,,,,,,,,,,,,,,,,,,,,,,,,,,,,,,,,,,,,,,,,,,,,,,,,,,,,,,,,,,,,,,,,,,,,,,,22,001,1,19,450,500,2022_Oct_17_1221,Experiment,2021.1.4,360.004896059338,
,,,,,,,,,,,,,,,,,,,,,,,,,,,,,,,,,,,,,,,,,,,,,,,,,,,,,,,,,,,,,,,,,,,,196.36156699999992,None,space,44.67633009999918,,,,,,,,,,,,,,,,,,,,,,,,,,,,,,,,,,,,,,,,,,,,,,,,,,,,,,,,,,,,,,,,,,,,,,,,,,,,,,,,,,,,,,,,,,,,,22,001,1,19,450,500,2022_Oct_17_1221,Experiment,2021.1.4,360.004896059338,
images\S22_M_S_03.png,images\S22_M_S_03_scrambled.png,22,Sad,0.3,M,0,0,practice,on,2,0.5,0.75,0.5,0.87,3,,,,,,,,,,,0,0,0,4,,,,,,,,,,,,,,,,,,,,,,,,,,,,,,,,,,,,,,,,,,,241.21992769999997,241.7253997000007,241.7253997000007,242.47798800000055,242.47798800000055,242.9833909000008,242.9833909000008,243.85812000000078,243.85812000000078,None,num_4,1.3326835000007122,243.85812000000078,None,,,,,,,,,,,,,,,,,,,,,,,,,,,,,,,,,,,,,,,,,,,,,,,,,,,,,,,,,,,,,,,,,,,,,,,,,,,,,,,22,001,1,19,450,500,2022_Oct_17_1221,Experiment,2021.1.4,360.004896059338,
images\S22_M_S_03.png,images\S22_M_S_03_scrambled.png,22,Sad,0.3,M,0,0,practice,on,2,0.5,0.75,0.5,0.794,3,,,,,,,,,,,0,1,1,7,,,,,,,,,,,,,,,,,,,,,,,,,,,,,,,,,,,,,,,,,,,245.2465300999993,245.7463798000008,245.7463798000008,246.4961459999995,246.4961459999995,246.99880769999982,246.99880769999982,247.79856540000037,247.79856540000037,None,None,,247.79856540000037,None,,,,,,,,,,,,,,,,,,,,,,,,,,,,,,,,,,,,,,,,,,,,,,,,,,,,,,,,,,,,,,,,,,,,,,,,,,,,,,,22,001,1,19,450,500,2022_Oct_17_1221,Experiment,2021.1.4,360.004896059338,
images\S22_M_S_02.png,images\S22_M_S_02_scrambled.png,22,Sad,0.2,M,0,0,practice,off,1,0.5,0.75,0.5,0.751,3,,,,,,,,,,,0,2,2,3,,,,,,,,,,,,,,,,,,,,,,,,,,,,,,,,,,,,,,,,,,,250.88090759999977,251.38645440000073,251.38645440000073,252.13885389999996,252.13885389999996,252.64151610000044,252.64151610000044,253.39957529999992,253.39957529999992,250.88090759999977,num_6,0.8306936000008136,253.39957529999992,250.88090759999977,,,,,,,,,,,,,,,,,,,,,,,,,,,,,,,,,,,,,,,,,,,,,,,,,,,,,,,,,,,,,,,,,,,,,,,,,,,,,,,22,001,1,19,450,500,2022_Oct_17_1221,Experiment,2021.1.4,360.004896059338,
images\S21_F_H_01.png,images\S21_F_H_01_scrambled.png,21,Happy,-0.1,F,0,0,practice,off,1,0.5,0.75,0.5,0.853,3,,,,,,,,,,,0,3,3,0,,,,,,,,,,,,,,,,,,,,,,,,,,,,,,,,,,,,,,,,,,,254.34373779999987,254.8463546999992,254.8463546999992,255.5961284999994,255.5961284999994,256.0987850999991,256.0987850999991,256.95406580000054,256.95406580000054,None,num_6,0.6285265000005893,256.95406580000054,None,,,,,,,,,,,,,,,,,,,,,,,,,,,,,,,,,,,,,,,,,,,,,,,,,,,,,,,,,,,,,,,,,,,,,,,,,,,,,,,22,001,1,19,450,500,2022_Oct_17_1221,Experiment,2021.1.4,360.004896059338,
images\S22_M_S_01.png,images\S22_M_S_01_scrambled.png,22,Sad,0.1,M,0,0,practice,on,2,0.5,0.75,0.5,0.867,3,,,,,,,,,,,0,4,4,5,,,,,,,,,,,,,,,,,,,,,,,,,,,,,,,,,,,,,,,,,,,257.6677144999994,258.1731634000007,258.1731634000007,258.92288559999906,258.92288559999906,259.4283199999991,259.4283199999991,260.2975315999993,260.2975315999993,None,num_6,1.357044099999257,260.2975315999993,None,,,,,,,,,,,,,,,,,,,,,,,,,,,,,,,,,,,,,,,,,,,,,,,,,,,,,,,,,,,,,,,,,,,,,,,,,,,,,,,22,001,1,19,450,500,2022_Oct_17_1221,Experiment,2021.1.4,360.004896059338,
images\S21_F_H_02.png,images\S21_F_H_02_scrambled.png,21,Happy,-0.2,F,0,0,practice,off,1,0.5,0.75,0.5,0.91,3,,,,,,,,,,,0,5,5,1,,,,,,,,,,,,,,,,,,,,,,,,,,,,,,,,,,,,,,,,,,,261.76922299999933,262.27464429999964,262.27464429999964,263.0299618000008,263.0299618000008,263.5326965999993,263.5326965999993,264.4489924999998,264.4489924999998,None,num_4,0.621546500000477,264.4489924999998,None,,,,,,,,,,,,,,,,,,,,,,,,,,,,,,,,,,,,,,,,,,,,,,,,,,,,,,,,,,,,,,,,,,,,,,,,,,,,,,,22,001,1,19,450,500,2022_Oct_17_1221,Experiment,2021.1.4,360.004896059338,
images\S22_M_S_02.png,images\S22_M_S_02_scrambled.png,22,Sad,0.2,M,0,0,practice,on,2,0.5,0.75,0.5,0.783,3,,,,,,,,,,,0,6,6,6,,,,,,,,,,,,,,,,,,,,,,,,,,,,,,,,,,,,,,,,,,,265.1237555000007,265.6291779000003,265.6291779000003,266.38450080000075,266.38450080000075,266.8872241000008,266.8872241000008,267.6729663999995,267.6729663999995,None,num_6,0.4858614000004309,267.6729663999995,None,,,,,,,,,,,,,,,,,,,,,,,,,,,,,,,,,,,,,,,,,,,,,,,,,,,,,,,,,,,,,,,,,,,,,,,,,,,,,,,22,001,1,19,450,500,2022_Oct_17_1221,Experiment,2021.1.4,360.004896059338,
images\S22_M_H_02.png,images\S22_M_H_02_scrambled.png,22,Happy,-0.2,M,0,0,practice,off,1,0.5,0.75,0.5,0.883,3,,,,,,,,,,,0,7,7,2,,,,,,,,,,,,,,,,,,,,,,,,,,,,,,,,,,,,,,,,,,,268.2505756999999,268.75324270000056,268.75324270000056,269.50856209999984,269.50856209999984,270.0111343999997,270.0111343999997,270.89711270000043,270.89711270000043,None,num_6,0.3899486000009347,270.89711270000043,None,,,,,,,,,,,,,,,,,,,,,,,,,,,,,,,,,,,,,,,,,,,,,,,,,,,,,,,,,,,,,,,,,,,,,,,,,,,,,,,22,001,1,19,450,500,2022_Oct_17_1221,Experiment,2021.1.4,360.004896059338,
,,,,,,,,,,,,,,,,,,,,,,,,,,,,,,,,,,,,,,,,,,,,,,,,,,,,,,,,,,,,,,,,,,,,,,,,,,,,,,,,,,,,,,271.3135136000001,None,space,59.3884779,,,,,,,,,,,,,,,,,,,,,,,,,,,,,,,,,,,,,,,,,,,,,,,,,,,,,,,,,,,,,,,,,,,,,,,,,,,22,001,1,19,450,500,2022_Oct_17_1221,Experiment,2021.1.4,360.004896059338,
images\S7_F_H_03.png,images\S7_F_H_03_scrambled.png,7,happy,30,female,6,,399,off,1,0.5,0.75,0.5,0.875,3,398,1,1,1,0,0,0,0,6,,,,,,0,0,0,0,,,,,,,,,,,,,,,,,,,,,,,,,,,,,,,,,,,,,,,,,,,,,,,,,,,,,,,,,331.2034404999995,331.70882619999975,331.70882619999975,332.45861180000065,332.45861180000065,332.96126790000017,332.96126790000017,333.8359507999994,333.8359507999994,None,num_6,0.3865291999991314,333.8359507999994,None,happy,0,Happy,334.2386237999999,None,None,334.2386237999999,None,,,,,,,,,,,,,,,,,,,,,,,,,,,,,,,,,,,,,,,,,,,,,,,,,,,,,22,001,1,19,450,500,2022_Oct_17_1221,Experiment,2021.1.4,360.004896059338,
images\S5_F_S_03.png,images\S5_F_S_03_scrambled.png,5,sad,-30,female,1,,270,off,1,0.5,0.75,0.5,0.796,3,269,2,1,1,0,0,0,0,1,,,,,,0,1,1,1,,,,,,,,,,,,,,,,,,,,,,,,,,,,,,,,,,,,,,,,,,,,,,,,,,,,,,,,,334.3247042999992,334.8245356999996,334.8245356999996,335.57721200000015,335.57721200000015,336.08261049999965,336.08261049999965,336.8823704999995,336.8823704999995,None,num_4,0.26794020000124874,336.8823704999995,None,sad,0,Sad,337.182330099999,None,None,337.182330099999,None,,,,,,,,,,,,,,,,,,,,,,,,,,,,,,,,,,,,,,,,,,,,,,,,,,,,,22,001,1,19,450,500,2022_Oct_17_1221,Experiment,2021.1.4,360.004896059338,
images\S10_M_H_03.png,images\S10_M_H_03_scrambled.png,10,happy,30,male,6,,117,on,2,0.5,0.75,0.5,0.792,3,116,1,1,1,2,2,32,128,166,,,,,,0,2,2,2,,,,,,,,,,,,,,,,,,,,,,,,,,,,,,,,,,,,,,,,,,,,,,,,,,,,,,,,,337.27100380000047,337.77085409999927,337.77085409999927,338.52062210000076,338.52062210000076,339.0232500000002,339.0232500000002,339.8175386999992,339.8175386999992,None,num_6,0.4850010999998631,339.8175386999992,None,happy,0,Happy,340.31732329999903,None,None,340.31732329999903,None,,,,,,,,,,,,,,,,,,,,,,,,,,,,,,,,,,,,,,,,,,,,,,,,,,,,,22,001,1,19,450,500,2022_Oct_17_1221,Experiment,2021.1.4,360.004896059338,
images\S4_M_S_03.png,images\S4_M_S_03_scrambled.png,4,sad,-30,male,1,,204,on,2,0.5,0.75,0.5,0.846,3,203,2,1,1,2,2,32,128,161,,,,,,0,3,3,3,,,,,,,,,,,,,,,,,,,,,,,,,,,,,,,,,,,,,,,,,,,,,,,,,,,,,,,,,340.4033882999993,340.90600579999955,340.90600579999955,341.6585894,341.6585894,342.1612215999994,342.1612215999994,343.01373330000024,343.01373330000024,None,num_4,0.37723710000136634,343.01373330000024,None,sad,0,Sad,343.4108910000003,None,None,343.4108910000003,None,,,,,,,,,,,,,,,,,,,,,,,,,,,,,,,,,,,,,,,,,,,,,,,,,,,,,22,001,1,19,450,500,2022_Oct_17_1221,Experiment,2021.1.4,360.004896059338,
images\S2_M_S_01.png,images\S2_M_S_01_scrambled.png,2,sad,-10,male,3,,70,on,2,0.5,0.75,0.5,0.758,3,69,3,1,1,2,2,32,128,163,,,,,,0,4,4,4,,,,,,,,,,,,,,,,,,,,,,,,,,,,,,,,,,,,,,,,,,,,,,,,,,,,,,,,,343.52464359999976,344.03004259999943,344.03004259999943,344.7853737000005,344.7853737000005,345.2880401000002,345.2880401000002,346.05177639999965,346.05177639999965,None,num_6,0.28298259999974107,346.05177639999965,None,happy,0,Sad,346.34881329999956,None,None,346.34881329999956,None,,,,,,,,,,,,,,,,,,,,,,,,,,,,,,,,,,,,,,,,,,,,,,,,,,,,,22,001,1,19,450,500,2022_Oct_17_1221,Experiment,2021.1.4,360.004896059338,
images\S9_F_H_02.png,images\S9_F_H_02_scrambled.png,9,happy,20,female,5,,110,on,2,0.5,0.75,0.5,0.815,3,109,4,1,1,2,2,32,128,165,,,,,,0,5,5,5,,,,,,,,,,,,,,,,,,,,,,,,,,,,,,,,,,,,,,,,,,,,,,,,,,,,,,,,,346.4598530000003,346.9652619999997,346.9652619999997,347.71784149999985,347.71784149999985,348.21766410000055,348.21766410000055,349.0368245999998,349.0368245999998,None,num_6,0.20223339999938617,349.0368245999998,None,happy,0,Happy,349.2591466000002,None,None,349.2591466000002,None,,,,,,,,,,,,,,,,,,,,,,,,,,,,,,,,,,,,,,,,,,,,,,,,,,,,,22,001,1,19,450,500,2022_Oct_17_1221,Experiment,2021.1.4,360.004896059338,
images\S5_F_S_03.png,images\S5_F_S_03_scrambled.png,5,sad,-30,female,1,,390,off,1,0.5,0.75,0.5,0.927,3,389,1,1,1,0,0,0,0,1,,,,,,0,6,6,6,,,,,,,,,,,,,,,,,,,,,,,,,,,,,,,,,,,,,,,,,,,,,,,,,,,,,,,,,349.31175129999974,349.81439429999955,349.81439429999955,350.56972040000073,350.56972040000073,351.07234229999995,351.07234229999995,352.0027291999995,352.0027291999995,None,num_4,0.41158770000038203,352.0027291999995,None,sad,0,Sad,352.42745889999895,None,None,352.42745889999895,None,,,,,,,,,,,,,,,,,,,,,,,,,,,,,,,,,,,,,,,,,,,,,,,,,,,,,22,001,1,19,450,500,2022_Oct_17_1221,Experiment,2021.1.4,360.004896059338,
images\S6_M_S_03.png,images\S6_M_S_03_scrambled.png,6,sad,-30,male,1,,336,on,2,0.5,0.75,0.5,0.866,3,335,1,1,2,2,2,32,128,161,,,,,,0,7,7,7,,,,,,,,,,,,,,,,,,,,,,,,,,,,,,,,,,,,,,,,,,,,,,,,,,,,,,,,,352.5385169000001,353.0411597000002,353.0411597000002,353.7966243999999,353.7966243999999,354.29637080000066,354.29637080000066,355.16832500000055,355.16832500000055,None,num_4,0.21432610000010754,355.16832500000055,None,sad,0,Sad,355.3932715999992,None,None,355.3932715999992,None,,,,,,,,,,,,,,,,,,,,,,,,,,,,,,,,,,,,,,,,,,,,,,,,,,,,,22,001,1,19,450,500,2022_Oct_17_1221,Experiment,2021.1.4,360.004896059338,
images\S4_M_H_01.png,images\S4_M_H_01_scrambled.png,4,happy,10,male,4,,139,off,1,0.5,0.75,0.5,0.91,3,138,1,1,1,0,0,0,0,4,,,,,,0,8,8,8,,,,,,,,,,,,,,,,,,,,,,,,,,,,,,,,,,,,,,,,,,,,,,,,,,,,,,,,,355.5042962000007,356.0070500999991,356.0070500999991,356.7566829999996,356.7566829999996,357.2621137999995,357.2621137999995,358.17850929999986,358.17850929999986,None,num_6,0.45201340000130585,358.17850929999986,None,happy,0,Happy,358.6449937999998,None,None,358.6449937999998,None,,,,,,,,,,,,,,,,,,,,,,,,,,,,,,,,,,,,,,,,,,,,,,,,,,,,,22,001,1,19,450,500,2022_Oct_17_1221,Experiment,2021.1.4,360.004896059338,
images\S2_M_S_02.png,images\S2_M_S_02_scrambled.png,2,sad,-20,male,2,,551,on,2,0.5,0.75,0.5,0.773,3,550,1,1,1,2,2,32,128,162,,,,,,0,9,9,9,,,,,,,,,,,,,,,,,,,,,,,,,,,,,,,,,,,,,,,,,,,,,,,,,,,,,,,,,358.75329240000065,359.25870919999943,359.25870919999943,360.01128570000037,360.01128570000037,360.51390600000013,360.51390600000013,361.2886744999996,361.2886744999996,None,num_4,0.2858897000005527,361.2886744999996,None,sad,0,Sad,361.58855570000014,None,None,361.58855570000014,None,,,,,,,,,,,,,,,,,,,,,,,,,,,,,,,,,,,,,,,,,,,,,,,,,,,,,22,001,1,19,450,500,2022_Oct_17_1221,Experiment,2021.1.4,360.004896059338,
images\blank.jpg,images\blank.jpg,none,none,none,none,0,,608,on,2,0.5,0.75,0.5,0.944,0,607,2,1,1,3,3,48,192,240,,,,,,0,10,10,10,,,,,,,,,,,,,,,,,,,,,,,,,,,,,,,,,,,,,,,,,,,,,,,,,,,,,,,,,361.72506219999923,362.2272255000007,362.2272255000007,362.98263340000085,362.98263340000085,363.48799379999946,363.48799379999946,364.4349669000003,364.4349669000003,364.4349669000003,None,,364.4349669000003,None,miss,0,,367.43681570000047,None,None,367.43681570000047,None,,,,,,,,,,,,,,,,,,,,,,,,,,,,,,,,,,,,,,,,,,,,,,,,,,,,,22,001,1,19,450,500,2022_Oct_17_1221,Experiment,2021.1.4,360.004896059338,
images\S9_F_S_01.png,images\S9_F_S_01_scrambled.png,9,sad,-10,female,3,,52,off,1,0.5,0.75,0.5,0.827,3,51,1,1,1,0,0,0,0,3,,,,,,0,11,11,11,,,,,,,,,,,,,,,,,,,,,,,,,,,,,,,,,,,,,,,,,,,,,,,,,,,,,,,,,367.6006567000004,368.1032070000001,368.1032070000001,368.8585533000005,368.8585533000005,369.3611347999995,369.3611347999995,370.19424120000076,370.19424120000076,None,num_6,0.21234779999940656,370.19424120000076,367.6006567000004,happy,0,Sad,370.4108620000003,None,None,370.4108620000003,None,,,,,,,,,,,,,,,,,,,,,,,,,,,,,,,,,,,,,,,,,,,,,,,,,,,,,22,001,1,19,450,500,2022_Oct_17_1221,Experiment,2021.1.4,360.004896059338,
images\S9_F_S_03.png,images\S9_F_S_03_scrambled.png,9,sad,-30,female,1,,414,off,1,0.5,0.75,0.5,0.81,3,413,2,2,1,0,0,0,0,1,,,,,,0,12,12,12,,,,,,,,,,,,,,,,,,,,,,,,,,,,,,,,,,,,,,,,,,,,,,,,,,,,,,,,,370.4969163000005,370.9995515999999,370.9995515999999,371.75210230000084,371.75210230000084,372.25195600000006,372.25195600000006,373.0655712000007,373.0655712000007,None,num_4,0.2454660999992484,373.0655712000007,None,sad,0,Sad,373.33778679999926,None,None,373.33778679999926,None,,,,,,,,,,,,,,,,,,,,,,,,,,,,,,,,,,,,,,,,,,,,,,,,,,,,,22,001,1,19,450,500,2022_Oct_17_1221,Experiment,2021.1.4,360.004896059338,
images\S1_F_S_02.png,images\S1_F_S_02_scrambled.png,1,sad,-20,female,2,,365,off,1,0.5,0.75,0.5,0.81,3,364,3,1,1,0,0,0,0,2,,,,,,0,13,13,13,,,,,,,,,,,,,,,,,,,,,,,,,,,,,,,,,,,,,,,,,,,,,,,,,,,,,,,,,373.44878229999995,373.9542024000002,373.9542024000002,374.70394320000014,374.70394320000014,375.20381950000046,375.20381950000046,376.0202222000007,376.0202222000007,None,num_6,0.3943571999989217,376.0202222000007,None,happy,0,Sad,376.42009800000017,None,None,376.42009800000017,None,,,,,,,,,,,,,,,,,,,,,,,,,,,,,,,,,,,,,,,,,,,,,,,,,,,,,22,001,1,19,450,500,2022_Oct_17_1221,Experiment,2021.1.4,360.004896059338,
images\S10_M_S_02.png,images\S10_M_S_02_scrambled.png,10,sad,-20,male,2,,299,off,1,0.5,0.75,0.5,0.942,3,298,4,1,2,0,0,0,0,2,,,,,,0,14,14,14,,,,,,,,,,,,,,,,,,,,,,,,,,,,,,,,,,,,,,,,,,,,,,,,,,,,,,,,,376.5061721000002,377.0060212999997,377.0060212999997,377.75855860000047,377.75855860000047,378.2584052000002,378.2584052000002,379.2026872000006,379.2026872000006,None,num_6,0.23622189999878174,379.2026872000006,None,happy,0,Sad,379.45258099999995,None,None,379.45258099999995,None,,,,,,,,,,,,,,,,,,,,,,,,,,,,,,,,,,,,,,,,,,,,,,,,,,,,,22,001,1,19,450,500,2022_Oct_17_1221,Experiment,2021.1.4,360.004896059338,
images\S8_M_S_02.png,images\S8_M_S_02_scrambled.png,8,sad,-20,male,2,,527,off,1,0.5,0.75,0.5,0.836,3,526,5,1,3,0,0,0,0,2,,,,,,0,15,15,15,,,,,,,,,,,,,,,,,,,,,,,,,,,,,,,,,,,,,,,,,,,,,,,,,,,,,,,,,379.5635631999994,380.06898940000065,380.06898940000065,380.81873090000045,380.81873090000045,381.3241615000006,381.3241615000006,382.15998880000006,382.15998880000006,None,num_4,0.3905126999998174,382.15998880000006,None,sad,0,Sad,382.56540909999893,None,None,382.56540909999893,None,,,,,,,,,,,,,,,,,,,,,,,,,,,,,,,,,,,,,,,,,,,,,,,,,,,,,22,001,1,19,450,500,2022_Oct_17_1221,Experiment,2021.1.4,360.004896059338,
images\S4_M_S_01.png,images\S4_M_S_01_scrambled.png,4,sad,-10,male,3,,82,on,2,0.5,0.75,0.5,0.856,3,81,1,1,1,2,2,32,128,163,,,,,,0,16,16,16,,,,,,,,,,,,,,,,,,,,,,,,,,,,,,,,,,,,,,,,,,,,,,,,,,,,,,,,,382.67648870000085,383.17634220000036,383.17634220000036,383.93178629999966,383.93178629999966,384.43720199999916,384.43720199999916,385.29795229999945,385.29795229999945,None,num_4,0.23665790000086417,385.29795229999945,None,sad,0,Sad,385.5645664999993,None,None,385.5645664999993,None,,,,,,,,,,,,,,,,,,,,,,,,,,,,,,,,,,,,,,,,,,,,,,,,,,,,,22,001,1,19,450,500,2022_Oct_17_1221,Experiment,2021.1.4,360.004896059338,
images\blank.jpg,images\blank.jpg,none,none,none,none,0,,632,on,2,0.5,0.75,0.5,0.781,0,631,2,1,1,3,3,48,192,240,,,,,,0,17,17,17,,,,,,,,,,,,,,,,,,,,,,,,,,,,,,,,,,,,,,,,,,,,,,,,,,,,,,,,,385.65359870000066,386.1532036999997,386.1532036999997,386.9057582000005,386.9057582000005,387.4084124000001,387.4084124000001,388.1887157000001,388.1887157000001,388.1887157000001,None,,388.1887157000001,None,miss,0,,391.1905819999989,None,None,391.1905819999989,None,,,,,,,,,,,,,,,,,,,,,,,,,,,,,,,,,,,,,,,,,,,,,,,,,,,,,22,001,1,19,450,500,2022_Oct_17_1221,Experiment,2021.1.4,360.004896059338,
images\blank.jpg,images\blank.jpg,none,none,none,none,0,,640,on,2,0.5,0.75,0.5,0.841,0,639,3,2,2,3,3,48,192,240,,,,,,0,18,18,18,,,,,,,,,,,,,,,,,,,,,,,,,,,,,,,,,,,,,,,,,,,,,,,,,,,,,,,,,391.2099885000007,391.70982320000076,391.70982320000076,392.4595903999998,392.4595903999998,392.96234860000004,392.96234860000004,393.8064426000001,393.8064426000001,393.8064426000001,None,,393.8064426000001,391.2099885000007,miss,0,,396.81111569999996,None,None,396.81111569999996,None,,,,,,,,,,,,,,,,,,,,,,,,,,,,,,,,,,,,,,,,,,,,,,,,,,,,,22,001,1,19,450,500,2022_Oct_17_1221,Experiment,2021.1.4,360.004896059338,
images\S7_F_S_01.png,images\S7_F_S_01_scrambled.png,7,sad,-10,female,3,,220,on,2,0.5,0.75,0.5,0.927,3,219,4,1,1,2,2,32,128,163,,,,,,0,19,19,19,,,,,,,,,,,,,,,,,,,,,,,,,,,,,,,,,,,,,,,,,,,,,,,,,,,,,,,,,396.9749577999992,397.4802858999992,397.4802858999992,398.23287899999923,398.23287899999923,398.7382637999999,398.7382637999999,399.66853119999905,399.66853119999905,None,num_6,0.20196720000058122,399.66853119999905,396.9749577999992,happy,0,Sad,399.8794861999992,None,None,399.8794861999992,None,,,,,,,,,,,,,,,,,,,,,,,,,,,,,,,,,,,,,,,,,,,,,,,,,,,,,22,001,1,19,450,500,2022_Oct_17_1221,Experiment,2021.1.4,360.004896059338,
images\S4_M_H_01.png,images\S4_M_H_01_scrambled.png,4,happy,10,male,4,,19,off,1,0.5,0.75,0.5,0.934,3,18,1,1,1,0,0,0,0,4,,,,,,0,20,20,20,,,,,,,,,,,,,,,,,,,,,,,,,,,,,,,,,,,,,,,,,,,,,,,,,,,,,,,,,399.92674479999914,400.42658780000056,400.42658780000056,401.1791639000003,401.1791639000003,401.68190420000064,401.68190420000064,402.6203562999999,402.6203562999999,None,num_6,0.37817200000063167,402.6203562999999,None,happy,0,Happy,403.01190930000047,None,None,403.01190930000047,None,,,,,,,,,,,,,,,,,,,,,,,,,,,,,,,,,,,,,,,,,,,,,,,,,,,,,22,001,1,19,450,500,2022_Oct_17_1221,Experiment,2021.1.4,360.004896059338,
images\S5_F_H_02.png,images\S5_F_H_02_scrambled.png,5,happy,20,female,5,,566,on,2,0.5,0.75,0.5,0.769,3,565,1,1,1,2,2,32,128,165,,,,,,0,21,21,21,,,,,,,,,,,,,,,,,,,,,,,,,,,,,,,,,,,,,,,,,,,,,,,,,,,,,,,,,403.0979969,403.6033967000003,403.6033967000003,404.35874499999954,404.35874499999954,404.8641437999995,404.8641437999995,405.63612920000014,405.63612920000014,None,num_6,0.2665047999998933,405.63612920000014,None,happy,0,Happy,405.9165583999995,None,None,405.9165583999995,None,,,,,,,,,,,,,,,,,,,,,,,,,,,,,,,,,,,,,,,,,,,,,,,,,,,,,22,001,1,19,450,500,2022_Oct_17_1221,Experiment,2021.1.4,360.004896059338,
images\S6_M_H_01.png,images\S6_M_H_01_scrambled.png,6,happy,10,male,4,,391,off,1,0.5,0.75,0.5,0.88,3,390,1,1,1,0,0,0,0,4,,,,,,0,22,22,22,,,,,,,,,,,,,,,,,,,,,,,,,,,,,,,,,,,,,,,,,,,,,,,,,,,,,,,,,406.02764899999966,406.5330897999993,406.5330897999993,407.2884133000007,407.2884133000007,407.79379920000065,407.79379920000065,408.67962649999936,408.67962649999936,None,num_6,0.43108289999872795,408.67962649999936,None,happy,0,Happy,409.12120389999944,None,None,409.12120389999944,None,,,,,,,,,,,,,,,,,,,,,,,,,,,,,,,,,,,,,,,,,,,,,,,,,,,,,22,001,1,19,450,500,2022_Oct_17_1221,Experiment,2021.1.4,360.004896059338,
images\S6_M_H_02.png,images\S6_M_H_02_scrambled.png,6,happy,20,male,5,,32,off,1,0.5,0.75,0.5,0.941,3,31,2,2,1,0,0,0,0,5,,,,,,0,23,23,23,,,,,,,,,,,,,,,,,,,,,,,,,,,,,,,,,,,,,,,,,,,,,,,,,,,,,,,,,409.20722620000015,409.70984879999924,409.70984879999924,410.46252939999977,410.46252939999977,410.9678392000005,410.9678392000005,411.91481190000013,411.91481190000013,None,num_6,0.3240712999995594,411.91481190000013,None,happy,0,Happy,412.25922950000023,None,None,412.25922950000023,None,,,,,,,,,,,,,,,,,,,,,,,,,,,,,,,,,,,,,,,,,,,,,,,,,,,,,22,001,1,19,450,500,2022_Oct_17_1221,Experiment,2021.1.4,360.004896059338,
images\S1_F_H_03.png,images\S1_F_H_03_scrambled.png,1,happy,30,female,6,,3,off,1,0.5,0.75,0.5,0.76,3,2,3,1,1,0,0,0,0,6,,,,,,0,24,24,24,,,,,,,,,,,,,,,,,,,,,,,,,,,,,,,,,,,,,,,,,,,,,,,,,,,,,,,,,412.37013130000014,412.87283639999987,412.87283639999987,413.6253230000002,413.6253230000002,414.12798420000036,414.12798420000036,414.8916272999995,414.8916272999995,None,num_6,0.27530990000013844,414.8916272999995,None,happy,0,Happy,415.19152499999876,None,None,415.19152499999876,None,,,,,,,,,,,,,,,,,,,,,,,,,,,,,,,,,,,,,,,,,,,,,,,,,,,,,22,001,1,19,450,500,2022_Oct_17_1221,Experiment,2021.1.4,360.004896059338,
images\S6_M_H_01.png,images\S6_M_H_01_scrambled.png,6,happy,10,male,4,,511,off,1,0.5,0.75,0.5,0.861,3,510,4,1,1,0,0,0,0,4,,,,,,0,25,25,25,,,,,,,,,,,,,,,,,,,,,,,,,,,,,,,,,,,,,,,,,,,,,,,,,,,,,,,,,415.24425039999915,415.7496762999999,415.7496762999999,416.5049994000001,416.5049994000001,417.0076907999992,417.0076907999992,417.87125240000023,417.87125240000023,None,num_6,0.343210299999555,417.87125240000023,None,happy,0,Happy,418.2294615999992,None,None,418.2294615999992,None,,,,,,,,,,,,,,,,,,,,,,,,,,,,,,,,,,,,,,,,,,,,,,,,,,,,,22,001,1,19,450,500,2022_Oct_17_1221,Experiment,2021.1.4,360.004896059338,
images\blank.jpg,images\blank.jpg,none,none,none,none,0,,603,on,2,0.5,0.75,0.5,0.94,0,602,1,1,1,3,3,48,192,240,,,,,,0,26,26,26,,,,,,,,,,,,,,,,,,,,,,,,,,,,,,,,,,,,,,,,,,,,,,,,,,,,,,,,,418.31297359999917,418.8126021999997,418.8126021999997,419.5651579000005,419.5651579000005,420.06784379999954,420.06784379999954,421.0120645999996,421.0120645999996,421.0120645999996,None,,421.0120645999996,None,miss,0,,424.0165920999996,None,None,424.0165920999996,None,,,,,,,,,,,,,,,,,,,,,,,,,,,,,,,,,,,,,,,,,,,,,,,,,,,,,22,001,1,19,450,500,2022_Oct_17_1221,Experiment,2021.1.4,360.004896059338,
images\S9_F_H_03.png,images\S9_F_H_03_scrambled.png,9,happy,30,female,6,,231,on,2,0.5,0.75,0.5,0.763,3,230,2,1,1,2,2,32,128,166,,,,,,0,27,27,27,,,,,,,,,,,,,,,,,,,,,,,,,,,,,,,,,,,,,,,,,,,,,,,,,,,,,,,,,424.16381340000044,424.66916429999947,424.66916429999947,425.4244791000001,425.4244791000001,425.9270792999996,425.9270792999996,426.6906988999999,426.6906988999999,None,num_6,0.3476927000010619,426.6906988999999,424.16381340000044,happy,0,Happy,427.0518035999994,None,None,427.0518035999994,None,,,,,,,,,,,,,,,,,,,,,,,,,,,,,,,,,,,,,,,,,,,,,,,,,,,,,22,001,1,19,450,500,2022_Oct_17_1221,Experiment,2021.1.4,360.004896059338,
images\S4_M_H_01.png,images\S4_M_H_01_scrambled.png,4,happy,10,male,4,,319,on,2,0.5,0.75,0.5,0.788,3,318,3,1,1,2,2,32,128,164,,,,,,0,28,28,28,,,,,,,,,,,,,,,,,,,,,,,,,,,,,,,,,,,,,,,,,,,,,,,,,,,,,,,,,427.0989453000002,427.6043633999998,427.6043633999998,428.3570314999997,428.3570314999997,428.8624249000004,428.8624249000004,429.6566340999998,429.6566340999998,None,num_4,0.2217705000002752,429.6566340999998,None,sad,0,Happy,429.8869756,None,None,429.8869756,None,,,,,,,,,,,,,,,,,,,,,,,,,,,,,,,,,,,,,,,,,,,,,,,,,,,,,22,001,1,19,450,500,2022_Oct_17_1221,Experiment,2021.1.4,360.004896059338,
images\S4_M_S_03.png,images\S4_M_S_03_scrambled.png,4,sad,-30,male,1,,84,on,2,0.5,0.75,0.5,0.9,3,83,4,2,1,2,2,32,128,161,,,,,,0,29,29,29,,,,,,,,,,,,,,,,,,,,,,,,,,,,,,,,,,,,,,,,,,,,,,,,,,,,,,,,,429.9341827999997,430.4396044999994,430.4396044999994,431.19226159999926,431.19226159999926,431.69198870000037,431.69198870000037,432.59449400000085,432.59449400000085,None,num_4,0.04425170000104117,432.59449400000085,None,sad,0,Sad,432.66125700000015,None,None,432.66125700000015,None,,,,,,,,,,,,,,,,,,,,,,,,,,,,,,,,,,,,,,,,,,,,,,,,,,,,,22,001,1,19,450,500,2022_Oct_17_1221,Experiment,2021.1.4,360.004896059338,
images\S4_M_S_01.png,images\S4_M_S_01_scrambled.png,4,sad,-10,male,3,,262,off,1,0.5,0.75,0.5,0.908,3,261,1,3,1,0,0,0,0,3,,,,,,0,30,30,30,,,,,,,,,,,,,,,,,,,,,,,,,,,,,,,,,,,,,,,,,,,,,,,,,,,,,,,,,432.71388599999955,433.21653929999957,433.21653929999957,433.9662798999998,433.9662798999998,434.47180449999905,434.47180449999905,435.3825859000008,435.3825859000008,None,num_4,0.40844619999916176,435.3825859000008,None,sad,0,Sad,435.80462650000044,None,None,435.80462650000044,None,,,,,,,,,,,,,,,,,,,,,,,,,,,,,,,,,,,,,,,,,,,,,,,,,,,,,22,001,1,19,450,500,2022_Oct_17_1221,Experiment,2021.1.4,360.004896059338,
images\S10_M_S_01.png,images\S10_M_S_01_scrambled.png,10,sad,-10,male,3,,58,off,1,0.5,0.75,0.5,0.854,3,57,2,1,2,0,0,0,0,3,,,,,,0,31,31,31,,,,,,,,,,,,,,,,,,,,,,,,,,,,,,,,,,,,,,,,,,,,,,,,,,,,,,,,,435.9101260999996,436.41282390000015,436.41282390000015,437.1681167000006,437.1681167000006,437.6735088000005,437.6735088000005,438.5316769000001,438.5316769000001,None,num_6,0.45100080000156595,438.5316769000001,None,happy,0,Sad,438.98972540000034,None,None,438.98972540000034,None,,,,,,,,,,,,,,,,,,,,,,,,,,,,,,,,,,,,,,,,,,,,,,,,,,,,,22,001,1,19,450,500,2022_Oct_17_1221,Experiment,2021.1.4,360.004896059338,
images\S3_F_H_03.png,images\S3_F_H_03_scrambled.png,3,happy,30,female,6,,495,off,1,0.5,0.75,0.5,0.792,3,494,3,1,1,0,0,0,0,6,,,,,,0,32,32,32,,,,,,,,,,,,,,,,,,,,,,,,,,,,,,,,,,,,,,,,,,,,,,,,,,,,,,,,,439.0785942000002,439.5840253999995,439.5840253999995,440.33934339999905,440.33934339999905,440.8447354,440.8447354,441.6389479999998,441.6389479999998,None,num_6,0.327971400000024,441.6389479999998,None,happy,0,Happy,441.9916172999987,None,None,441.9916172999987,None,,,,,,,,,,,,,,,,,,,,,,,,,,,,,,,,,,,,,,,,,,,,,,,,,,,,,22,001,1,19,450,500,2022_Oct_17_1221,Experiment,2021.1.4,360.004896059338,
images\S5_F_S_03.png,images\S5_F_S_03_scrambled.png,5,sad,-30,female,1,,90,on,2,0.5,0.75,0.5,0.929,3,89,1,1,1,2,2,32,128,161,,,,,,0,33,33,33,,,,,,,,,,,,,,,,,,,,,,,,,,,,,,,,,,,,,,,,,,,,,,,,,,,,,,,,,442.04434480000054,442.5497985999991,442.5497985999991,443.3023831999999,443.3023831999999,443.8077701000002,443.8077701000002,444.7435588999997,444.7435588999997,None,num_4,0.1671186999992642,444.7435588999997,None,sad,0,Sad,444.92401369999897,None,None,444.92401369999897,None,,,,,,,,,,,,,,,,,,,,,,,,,,,,,,,,,,,,,,,,,,,,,,,,,,,,,22,001,1,19,450,500,2022_Oct_17_1221,Experiment,2021.1.4,360.004896059338,
images\S7_F_H_02.png,images\S7_F_H_02_scrambled.png,7,happy,20,female,5,,98,on,2,0.5,0.75,0.5,0.868,3,97,2,1,1,2,2,32,128,165,,,,,,0,34,34,34,,,,,,,,,,,,,,,,,,,,,,,,,,,,,,,,,,,,,,,,,,,,,,,,,,,,,,,,,445.0295435000007,445.53495490000023,445.53495490000023,446.2875657000004,446.2875657000004,446.7929287999996,446.7929287999996,447.66770779999933,447.66770779999933,None,num_6,0.0673028000001068,447.66770779999933,None,happy,0,Happy,447.75659419999903,None,None,447.75659419999903,None,,,,,,,,,,,,,,,,,,,,,,,,,,,,,,,,,,,,,,,,,,,,,,,,,,,,,22,001,1,19,450,500,2022_Oct_17_1221,Experiment,2021.1.4,360.004896059338,
images\S8_M_S_01.png,images\S8_M_S_01_scrambled.png,8,sad,-10,male,3,,46,off,1,0.5,0.75,0.5,0.798,3,45,1,1,1,0,0,0,0,3,,,,,,0,35,35,35,,,,,,,,,,,,,,,,,,,,,,,,,,,,,,,,,,,,,,,,,,,,,,,,,,,,,,,,,447.86755749999975,448.37301689999913,448.37301689999913,449.1255598000007,449.1255598000007,449.6281827999992,449.6281827999992,450.42792740000004,450.42792740000004,None,num_4,0.20272900000054506,450.42792740000004,None,sad,0,Sad,450.64448399999964,None,None,450.64448399999964,None,,,,,,,,,,,,,,,,,,,,,,,,,,,,,,,,,,,,,,,,,,,,,,,,,,,,,22,001,1,19,450,500,2022_Oct_17_1221,Experiment,2021.1.4,360.004896059338,
images\S4_M_H_02.png,images\S4_M_H_02_scrambled.png,4,happy,20,male,5,,80,on,2,0.5,0.75,0.5,0.756,3,79,1,1,1,2,2,32,128,165,,,,,,0,36,36,36,,,,,,,,,,,,,,,,,,,,,,,,,,,,,,,,,,,,,,,,,,,,,,,,,,,,,,,,,450.7333464000003,451.23599529999956,451.23599529999956,451.9857422999994,451.9857422999994,452.4883991000006,452.4883991000006,453.24926349999987,453.24926349999987,None,num_6,0.18119750000005297,453.24926349999987,None,happy,0,Happy,453.44089300000013,None,None,453.44089300000013,None,,,,,,,,,,,,,,,,,,,,,,,,,,,,,,,,,,,,,,,,,,,,,,,,,,,,,22,001,1,19,450,500,2022_Oct_17_1221,Experiment,2021.1.4,360.004896059338,
images\S1_F_S_03.png,images\S1_F_S_03_scrambled.png,1,sad,-30,female,1,,486,off,1,0.5,0.75,0.5,0.875,3,485,1,1,1,0,0,0,0,1,,,,,,0,37,37,37,,,,,,,,,,,,,,,,,,,,,,,,,,,,,,,,,,,,,,,,,,,,,,,,,,,,,,,,,453.5269318999999,454.0268053,454.0268053,454.7765696999995,454.7765696999995,455.27919649999967,455.27919649999967,456.1594819999991,456.1594819999991,None,num_4,0.3833199999990029,456.1594819999991,None,sad,0,Sad,456.55394019999875,None,None,456.55394019999875,None,,,,,,,,,,,,,,,,,,,,,,,,,,,,,,,,,,,,,,,,,,,,,,,,,,,,,22,001,1,19,450,500,2022_Oct_17_1221,Experiment,2021.1.4,360.004896059338,
images\S1_F_H_01.png,images\S1_F_H_01_scrambled.png,1,happy,10,female,4,,301,on,2,0.5,0.75,0.5,0.925,3,300,1,2,1,2,2,32,128,164,,,,,,0,38,38,38,,,,,,,,,,,,,,,,,,,,,,,,,,,,,,,,,,,,,,,,,,,,,,,,,,,,,,,,,456.6648096000008,457.1674958000003,457.1674958000003,457.92284909999944,457.92284909999944,458.42823150000004,458.42823150000004,459.3556998999993,459.3556998999993,None,num_6,0.37123869999959425,459.3556998999993,None,happy,0,Happy,459.7445728999999,None,None,459.7445728999999,None,,,,,,,,,,,,,,,,,,,,,,,,,,,,,,,,,,,,,,,,,,,,,,,,,,,,,22,001,1,19,450,500,2022_Oct_17_1221,Experiment,2021.1.4,360.004896059338,
images\S7_F_H_01.png,images\S7_F_H_01_scrambled.png,7,happy,10,female,4,,277,off,1,0.5,0.75,0.5,0.868,3,276,1,1,2,0,0,0,0,4,,,,,,0,39,39,39,,,,,,,,,,,,,,,,,,,,,,,,,,,,,,,,,,,,,,,,,,,,,,,,,,,,,,,,,459.8555400999994,460.35816820000036,460.35816820000036,461.11351979999927,461.11351979999927,461.61609900000076,461.61609900000076,462.4881064000001,462.4881064000001,None,num_6,0.39052020000053744,462.4881064000001,None,happy,0,Happy,462.89349639999926,None,None,462.89349639999926,None,,,,,,,,,,,,,,,,,,,,,,,,,,,,,,,,,,,,,,,,,,,,,,,,,,,,,22,001,1,19,450,500,2022_Oct_17_1221,Experiment,2021.1.4,360.004896059338,
images\S10_M_H_03.png,images\S10_M_H_03_scrambled.png,10,happy,30,male,6,,477,on,2,0.5,0.75,0.5,0.773,3,476,1,1,1,2,2,32,128,166,,,,,,0,40,40,40,,,,,,,,,,,,,,,,,,,,,,,,,,,,,,,,,,,,,,,,,,,,,,,,,,,,,,,,,462.94070499999907,463.4462203999992,463.4462203999992,464.19867049999993,464.19867049999993,464.7040806999994,464.7040806999994,465.48172030000023,465.48172030000023,None,num_6,0.3572265000002517,465.48172030000023,None,happy,0,Happy,465.85941449999956,None,None,465.85941449999956,None,,,,,,,,,,,,,,,,,,,,,,,,,,,,,,,,,,,,,,,,,,,,,,,,,,,,,22,001,1,19,450,500,2022_Oct_17_1221,Experiment,2021.1.4,360.004896059338,
images\S8_M_H_02.png,images\S8_M_H_02_scrambled.png,8,happy,20,male,5,,104,on,2,0.5,0.75,0.5,0.949,3,103,2,1,1,2,2,32,128,165,,,,,,0,41,41,41,,,,,,,,,,,,,,,,,,,,,,,,,,,,,,,,,,,,,,,,,,,,,,,,,,,,,,,,,465.97031249999964,466.4730142999997,466.4730142999997,467.2255513,467.2255513,467.7281254999998,467.7281254999998,468.6834211000005,468.6834211000005,None,num_6,0.20319709999967017,468.6834211000005,None,happy,0,Happy,468.89724309999946,None,None,468.89724309999946,None,,,,,,,,,,,,,,,,,,,,,,,,,,,,,,,,,,,,,,,,,,,,,,,,,,,,,22,001,1,19,450,500,2022_Oct_17_1221,Experiment,2021.1.4,360.004896059338,
images\S9_F_S_01.png,images\S9_F_S_01_scrambled.png,9,sad,-10,female,3,,172,off,1,0.5,0.75,0.5,0.777,3,171,1,1,1,0,0,0,0,3,,,,,,0,42,42,42,,,,,,,,,,,,,,,,,,,,,,,,,,,,,,,,,,,,,,,,,,,,,,,,,,,,,,,,,468.9444117999992,469.44703169999957,469.44703169999957,470.19683690000056,470.19683690000056,470.69945860000007,470.69945860000007,471.47976109999945,471.47976109999945,None,num_4,0.23098769999887736,471.47976109999945,None,sad,0,Sad,471.72410679999956,None,None,471.72410679999956,None,,,,,,,,,,,,,,,,,,,,,,,,,,,,,,,,,,,,,,,,,,,,,,,,,,,,,22,001,1,19,450,500,2022_Oct_17_1221,Experiment,2021.1.4,360.004896059338,
images\S8_M_H_02.png,images\S8_M_H_02_scrambled.png,8,happy,20,male,5,,524,off,1,0.5,0.75,0.5,0.807,3,523,2,1,1,0,0,0,0,5,,,,,,0,43,43,43,,,,,,,,,,,,,,,,,,,,,,,,,,,,,,,,,,,,,,,,,,,,,,,,,,,,,,,,,471.77132150000034,472.27685910000037,472.27685910000037,473.0292977000008,473.0292977000008,473.5320214000003,473.5320214000003,474.3428124000002,474.3428124000002,None,num_6,0.2477273000004061,474.3428124000002,None,happy,0,Happy,474.60377819999957,None,None,474.60377819999957,None,,,,,,,,,,,,,,,,,,,,,,,,,,,,,,,,,,,,,,,,,,,,,,,,,,,,,22,001,1,19,450,500,2022_Oct_17_1221,Experiment,2021.1.4,360.004896059338,
images\S9_F_S_03.png,images\S9_F_S_03_scrambled.png,9,sad,-30,female,1,,234,on,2,0.5,0.75,0.5,0.822,3,233,1,1,1,2,2,32,128,161,,,,,,0,44,44,44,,,,,,,,,,,,,,,,,,,,,,,,,,,,,,,,,,,,,,,,,,,,,,,,,,,,,,,,,474.6509977000005,475.1536544999999,475.1536544999999,475.9062818000002,475.9062818000002,476.4116871999995,476.4116871999995,477.23629470000014,477.23629470000014,None,num_4,0.19461510000110138,477.23629470000014,None,sad,0,Sad,477.44457529999926,None,None,477.44457529999926,None,,,,,,,,,,,,,,,,,,,,,,,,,,,,,,,,,,,,,,,,,,,,,,,,,,,,,22,001,1,19,450,500,2022_Oct_17_1221,Experiment,2021.1.4,360.004896059338,
images\blank.jpg,images\blank.jpg,none,none,none,none,0,,604,on,2,0.5,0.75,0.5,0.878,0,603,2,1,1,3,3,48,192,240,,,,,,0,45,45,45,,,,,,,,,,,,,,,,,,,,,,,,,,,,,,,,,,,,,,,,,,,,,,,,,,,,,,,,,477.5280956000006,478.0333200999994,478.0333200999994,478.78864409999915,478.78864409999915,479.2884415000008,479.2884415000008,480.16600429999926,480.16600429999926,480.16600429999926,None,,480.16600429999926,None,miss,0,,483.16784740000077,None,None,483.16784740000077,None,,,,,,,,,,,,,,,,,,,,,,,,,,,,,,,,,,,,,,,,,,,,,,,,,,,,,22,001,1,19,450,500,2022_Oct_17_1221,Experiment,2021.1.4,360.004896059338,
images\S4_M_S_03.png,images\S4_M_S_03_scrambled.png,4,sad,-30,male,1,,384,off,1,0.5,0.75,0.5,0.844,3,383,1,1,1,0,0,0,0,1,,,,,,0,46,46,46,,,,,,,,,,,,,,,,,,,,,,,,,,,,,,,,,,,,,,,,,,,,,,,,,,,,,,,,,483.28468860000066,483.78709979999985,483.78709979999985,484.5368352000005,484.5368352000005,485.04236590000073,485.04236590000073,485.8892367999997,485.8892367999997,None,num_4,0.3493865000000369,485.8892367999997,483.28468860000066,sad,0,Sad,486.2529717999998,None,None,486.2529717999998,None,,,,,,,,,,,,,,,,,,,,,,,,,,,,,,,,,,,,,,,,,,,,,,,,,,,,,22,001,1,19,450,500,2022_Oct_17_1221,Experiment,2021.1.4,360.004896059338,
images\S3_F_H_01.png,images\S3_F_H_01_scrambled.png,3,happy,10,female,4,,493,off,1,0.5,0.75,0.5,0.831,3,492,2,1,1,0,0,0,0,4,,,,,,0,47,47,47,,,,,,,,,,,,,,,,,,,,,,,,,,,,,,,,,,,,,,,,,,,,,,,,,,,,,,,,,486.3362880000004,486.8389057000004,486.8389057000004,487.59159929999987,487.59159929999987,488.09407889999966,488.09407889999966,488.92728250000073,488.92728250000073,None,num_6,0.39947310000025027,488.92728250000073,None,happy,0,Happy,489.340918699999,None,None,489.340918699999,None,,,,,,,,,,,,,,,,,,,,,,,,,,,,,,,,,,,,,,,,,,,,,,,,,,,,,22,001,1,19,450,500,2022_Oct_17_1221,Experiment,2021.1.4,360.004896059338,
images\S3_F_S_02.png,images\S3_F_S_02_scrambled.png,3,sad,-20,female,2,,17,off,1,0.5,0.75,0.5,0.917,3,16,3,2,1,0,0,0,0,2,,,,,,0,48,48,48,,,,,,,,,,,,,,,,,,,,,,,,,,,,,,,,,,,,,,,,,,,,,,,,,,,,,,,,,489.42700370000057,489.9296453999996,489.9296453999996,490.68229989999963,490.68229989999963,491.18765800000074,491.18765800000074,492.1068615000004,492.1068615000004,None,num_4,0.5320544000005611,492.1068615000004,None,sad,0,Sad,492.6622729999996,None,None,492.6622729999996,None,,,,,,,,,,,,,,,,,,,,,,,,,,,,,,,,,,,,,,,,,,,,,,,,,,,,,22,001,1,19,450,500,2022_Oct_17_1221,Experiment,2021.1.4,360.004896059338,
images\S10_M_H_03.png,images\S10_M_H_03_scrambled.png,10,happy,30,male,6,,357,on,2,0.5,0.75,0.5,0.835,3,356,1,1,1,2,2,32,128,166,,,,,,0,49,49,49,,,,,,,,,,,,,,,,,,,,,,,,,,,,,,,,,,,,,,,,,,,,,,,,,,,,,,,,,492.7121026999994,493.21471510000083,493.21471510000083,493.9673973000008,493.9673973000008,494.47274819999984,494.47274819999984,495.3141097000007,495.3141097000007,None,num_6,0.12452189999930852,495.3141097000007,None,happy,0,Happy,495.4529187,None,None,495.4529187,None,,,,,,,,,,,,,,,,,,,,,,,,,,,,,,,,,,,,,,,,,,,,,,,,,,,,,22,001,1,19,450,500,2022_Oct_17_1221,Experiment,2021.1.4,360.004896059338,
images\S9_F_H_03.png,images\S9_F_H_03_scrambled.png,9,happy,30,female,6,,351,on,2,0.5,0.75,0.5,0.899,3,350,2,1,2,2,2,32,128,166,,,,,,0,50,50,50,,,,,,,,,,,,,,,,,,,,,,,,,,,,,,,,,,,,,,,,,,,,,,,,,,,,,,,,,495.5001343999993,496.0027503000001,496.0027503000001,496.75254440000026,496.75254440000026,497.25515219999943,497.25515219999943,498.1577749999997,498.1577749999997,None,num_6,0.18471660000068368,498.1577749999997,None,happy,0,Happy,498.3575847999993,None,None,498.3575847999993,None,,,,,,,,,,,,,,,,,,,,,,,,,,,,,,,,,,,,,,,,,,,,,,,,,,,,,22,001,1,19,450,500,2022_Oct_17_1221,Experiment,2021.1.4,360.004896059338,
images\S8_M_S_02.png,images\S8_M_S_02_scrambled.png,8,sad,-20,male,2,,107,on,2,0.5,0.75,0.5,0.934,3,106,3,1,1,2,2,32,128,162,,,,,,0,51,51,51,,,,,,,,,,,,,,,,,,,,,,,,,,,,,,,,,,,,,,,,,,,,,,,,,,,,,,,,,498.4047986000005,498.9075603000001,498.9075603000001,499.66280949999964,499.66280949999964,500.16816990000007,500.16816990000007,501.1039949999995,501.1039949999995,None,num_4,0.22262149999914982,501.1039949999995,None,sad,0,Sad,501.34000549999945,None,None,501.34000549999945,None,,,,,,,,,,,,,,,,,,,,,,,,,,,,,,,,,,,,,,,,,,,,,,,,,,,,,22,001,1,19,450,500,2022_Oct_17_1221,Experiment,2021.1.4,360.004896059338,
images\S3_F_H_03.png,images\S3_F_H_03_scrambled.png,3,happy,30,female,6,,255,off,1,0.5,0.75,0.5,0.846,3,254,1,1,1,0,0,0,0,6,,,,,,0,52,52,52,,,,,,,,,,,,,,,,,,,,,,,,,,,,,,,,,,,,,,,,,,,,,,,,,,,,,,,,,501.38721649999934,501.8926943999995,501.8926943999995,502.64240000000063,502.64240000000063,503.1478083999991,503.1478083999991,503.9976053999999,503.9976053999999,None,num_6,0.35283049999998184,503.9976053999999,None,happy,0,Happy,504.36131719999975,None,None,504.36131719999975,None,,,,,,,,,,,,,,,,,,,,,,,,,,,,,,,,,,,,,,,,,,,,,,,,,,,,,22,001,1,19,450,500,2022_Oct_17_1221,Experiment,2021.1.4,360.004896059338,
images\S1_F_S_02.png,images\S1_F_S_02_scrambled.png,1,sad,-20,female,2,,485,off,1,0.5,0.75,0.5,0.819,3,484,2,1,1,0,0,0,0,2,,,,,,0,53,53,53,,,,,,,,,,,,,,,,,,,,,,,,,,,,,,,,,,,,,,,,,,,,,,,,,,,,,,,,,504.4085077,504.91112989999965,504.91112989999965,505.66090090000034,505.66090090000034,506.1635580000002,506.1635580000002,506.9827385000008,506.9827385000008,None,num_4,0.3514433000000281,506.9827385000008,None,sad,0,Sad,507.3687831999996,None,None,507.3687831999996,None,,,,,,,,,,,,,,,,,,,,,,,,,,,,,,,,,,,,,,,,,,,,,,,,,,,,,22,001,1,19,450,500,2022_Oct_17_1221,Experiment,2021.1.4,360.004896059338,
images\S4_M_S_02.png,images\S4_M_S_02_scrambled.png,4,sad,-20,male,2,,203,on,2,0.5,0.75,0.5,0.935,3,202,1,1,2,2,2,32,128,162,,,,,,0,54,54,54,,,,,,,,,,,,,,,,,,,,,,,,,,,,,,,,,,,,,,,,,,,,,,,,,,,,,,,,,507.46590040000046,507.9657415999991,507.9657415999991,508.71550469999966,508.71550469999966,509.2181836,509.2181836,510.15953660000014,510.15953660000014,None,num_4,0.2630375000007916,510.15953660000014,None,sad,0,Sad,510.4372102999998,None,None,510.4372102999998,None,,,,,,,,,,,,,,,,,,,,,,,,,,,,,,,,,,,,,,,,,,,,,,,,,,,,,22,001,1,19,450,500,2022_Oct_17_1221,Experiment,2021.1.4,360.004896059338,
images\S2_M_S_02.png,images\S2_M_S_02_scrambled.png,2,sad,-20,male,2,,11,off,1,0.5,0.75,0.5,0.827,3,10,1,1,3,0,0,0,0,2,,,,,,0,55,55,55,,,,,,,,,,,,,,,,,,,,,,,,,,,,,,,,,,,,,,,,,,,,,,,,,,,,,,,,,510.4844150000008,510.9871621000002,510.9871621000002,511.73683399999936,511.73683399999936,512.2366507999996,512.2366507999996,513.0669696999994,513.0669696999994,None,num_4,0.307796099999905,513.0669696999994,None,sad,0,Sad,513.3974929999993,None,None,513.3974929999993,None,,,,,,,,,,,,,,,,,,,,,,,,,,,,,,,,,,,,,,,,,,,,,,,,,,,,,22,001,1,19,450,500,2022_Oct_17_1221,Experiment,2021.1.4,360.004896059338,
images\S8_M_H_01.png,images\S8_M_H_01_scrambled.png,8,happy,10,male,4,,223,on,2,0.5,0.75,0.5,0.864,3,222,1,1,1,2,2,32,128,164,,,,,,0,56,56,56,,,,,,,,,,,,,,,,,,,,,,,,,,,,,,,,,,,,,,,,,,,,,,,,,,,,,,,,,513.4973769999997,514.000016,514.000016,514.7526579999994,514.7526579999994,515.2579946000005,515.2579946000005,516.1243632000005,516.1243632000005,None,num_6,0.23431970000092406,516.1243632000005,None,happy,0,Happy,516.3688646000002,None,None,516.3688646000002,None,,,,,,,,,,,,,,,,,,,,,,,,,,,,,,,,,,,,,,,,,,,,,,,,,,,,,22,001,1,19,450,500,2022_Oct_17_1221,Experiment,2021.1.4,360.004896059338,
images\S3_F_S_01.png,images\S3_F_S_01_scrambled.png,3,sad,-10,female,3,,556,on,2,0.5,0.75,0.5,0.909,3,555,2,1,1,2,2,32,128,163,,,,,,0,57,57,57,,,,,,,,,,,,,,,,,,,,,,,,,,,,,,,,,,,,,,,,,,,,,,,,,,,,,,,,,516.4880632000004,516.9907528000003,516.9907528000003,517.7433192000008,517.7433192000008,518.2459139999992,518.2459139999992,519.1567477000008,519.1567477000008,None,num_4,0.2257579999986774,519.1567477000008,None,sad,0,Sad,519.4011902000002,None,None,519.4011902000002,None,,,,,,,,,,,,,,,,,,,,,,,,,,,,,,,,,,,,,,,,,,,,,,,,,,,,,22,001,1,19,450,500,2022_Oct_17_1221,Experiment,2021.1.4,360.004896059338,
images\S4_M_S_03.png,images\S4_M_S_03_scrambled.png,4,sad,-30,male,1,,324,on,2,0.5,0.75,0.5,0.865,3,323,3,1,1,2,2,32,128,161,,,,,,0,58,58,58,,,,,,,,,,,,,,,,,,,,,,,,,,,,,,,,,,,,,,,,,,,,,,,,,,,,,,,,,519.4510986999994,519.9537490000002,519.9537490000002,520.7062717999997,520.7062717999997,521.2089255999999,521.2089255999999,522.0780644000006,522.0780644000006,None,num_4,0.18490080000083253,522.0780644000006,None,sad,0,Sad,522.2863852999984,None,None,522.2863852999984,None,,,,,,,,,,,,,,,,,,,,,,,,,,,,,,,,,,,,,,,,,,,,,,,,,,,,,22,001,1,19,450,500,2022_Oct_17_1221,Experiment,2021.1.4,360.004896059338,
images\S9_F_S_03.png,images\S9_F_S_03_scrambled.png,9,sad,-30,female,1,,294,off,1,0.5,0.75,0.5,0.85,3,293,1,1,2,0,0,0,0,1,,,,,,0,59,59,59,,,,,,,,,,,,,,,,,,,,,,,,,,,,,,,,,,,,,,,,,,,,,,,,,,,,,,,,,522.3447359000002,522.8445018999992,522.8445018999992,523.5998385000003,523.5998385000003,524.1025437000008,524.1025437000008,524.9577895999992,524.9577895999992,None,num_4,0.24897770000097807,524.9577895999992,None,sad,0,Sad,525.2215699,None,None,525.2215699,None,,,,,,,,,,,,,,,,,,,,,,,,,,,,,,,,,,,,,,,,,,,,,,,,,,,,,22,001,1,19,450,500,2022_Oct_17_1221,Experiment,2021.1.4,360.004896059338,
images\S3_F_H_01.png,images\S3_F_H_01_scrambled.png,3,happy,10,female,4,,193,on,2,0.5,0.75,0.5,0.766,3,192,1,1,1,2,2,32,128,164,,,,,,0,60,60,60,,,,,,,,,,,,,,,,,,,,,,,,,,,,,,,,,,,,,,,,,,,,,,,,,,,,,,,,,525.2715504000007,525.7741860000006,525.7741860000006,526.5268520999998,526.5268520999998,527.0322345999994,527.0322345999994,527.7985365000004,527.7985365000004,None,num_6,0.3364514999993844,527.7985365000004,None,happy,0,Happy,528.1623617999998,None,None,528.1623617999998,None,,,,,,,,,,,,,,,,,,,,,,,,,,,,,,,,,,,,,,,,,,,,,,,,,,,,,22,001,1,19,450,500,2022_Oct_17_1221,Experiment,2021.1.4,360.004896059338,
images\S1_F_S_02.png,images\S1_F_S_02_scrambled.png,1,sad,-20,female,2,,425,on,2,0.5,0.75,0.5,0.752,3,424,2,1,1,2,2,32,128,162,,,,,,0,61,61,61,,,,,,,,,,,,,,,,,,,,,,,,,,,,,,,,,,,,,,,,,,,,,,,,,,,,,,,,,528.2179376999993,528.7177009000006,528.7177009000006,529.4730724000001,529.4730724000001,529.9784698000003,529.9784698000003,530.7337850999993,530.7337850999993,None,num_6,0.2409736999998131,530.7337850999993,None,happy,0,Sad,530.9836645999999,None,None,530.9836645999999,None,,,,,,,,,,,,,,,,,,,,,,,,,,,,,,,,,,,,,,,,,,,,,,,,,,,,,22,001,1,19,450,500,2022_Oct_17_1221,Experiment,2021.1.4,360.004896059338,
images\S9_F_S_01.png,images\S9_F_S_01_scrambled.png,9,sad,-10,female,3,,592,on,2,0.5,0.75,0.5,0.804,3,591,3,1,1,2,2,32,128,163,,,,,,0,62,62,62,,,,,,,,,,,,,,,,,,,,,,,,,,,,,,,,,,,,,,,,,,,,,,,,,,,,,,,,,531.0337419999996,531.5390826000003,531.5390826000003,532.2917211000004,532.2917211000004,532.7971225000001,532.7971225000001,533.6079195999991,533.6079195999991,None,num_6,0.27076109999870823,533.6079195999991,None,happy,0,Sad,533.8883232999992,None,None,533.8883232999992,None,,,,,,,,,,,,,,,,,,,,,,,,,,,,,,,,,,,,,,,,,,,,,,,,,,,,,22,001,1,19,450,500,2022_Oct_17_1221,Experiment,2021.1.4,360.004896059338,
images\S8_M_S_03.png,images\S8_M_S_03_scrambled.png,8,sad,-30,male,1,,348,on,2,0.5,0.75,0.5,0.79,3,347,4,1,1,2,2,32,128,161,,,,,,0,63,63,63,,,,,,,,,,,,,,,,,,,,,,,,,,,,,,,,,,,,,,,,,,,,,,,,,,,,,,,,,533.9993790000008,534.5021562000002,534.5021562000002,535.2574843000002,535.2574843000002,535.7600172999992,535.7600172999992,536.5541783999997,536.5541783999997,None,num_4,0.22860469999977795,536.5541783999997,None,sad,0,Sad,536.7985722999994,None,None,536.7985722999994,None,,,,,,,,,,,,,,,,,,,,,,,,,,,,,,,,,,,,,,,,,,,,,,,,,,,,,22,001,1,19,450,500,2022_Oct_17_1221,Experiment,2021.1.4,360.004896059338,
images\S5_F_S_01.png,images\S5_F_S_01_scrambled.png,5,sad,-10,female,3,,208,on,2,0.5,0.75,0.5,0.95,3,207,5,1,1,2,2,32,128,163,,,,,,0,64,64,64,,,,,,,,,,,,,,,,,,,,,,,,,,,,,,,,,,,,,,,,,,,,,,,,,,,,,,,,,536.9040719999994,537.4094896999995,537.4094896999995,538.1620311000006,538.1620311000006,538.6675111000004,538.6675111000004,539.6227519999993,539.6227519999993,None,num_4,0.22443630000088888,539.6227519999993,None,sad,0,Sad,539.8727774999984,None,None,539.8727774999984,None,,,,,,,,,,,,,,,,,,,,,,,,,,,,,,,,,,,,,,,,,,,,,,,,,,,,,22,001,1,19,450,500,2022_Oct_17_1221,Experiment,2021.1.4,360.004896059338,
images\S5_F_S_03.png,images\S5_F_S_03_scrambled.png,5,sad,-30,female,1,,330,on,2,0.5,0.75,0.5,0.788,3,329,6,2,1,2,2,32,128,161,,,,,,0,65,65,65,,,,,,,,,,,,,,,,,,,,,,,,,,,,,,,,,,,,,,,,,,,,,,,,,,,,,,,,,539.9253630000003,540.4280295000008,540.4280295000008,541.1777638999993,541.1777638999993,541.6804229000008,541.6804229000008,542.4745951000004,542.4745951000004,None,num_4,0.23582859999987704,542.4745951000004,None,sad,0,Sad,542.7217384999996,None,None,542.7217384999996,None,,,,,,,,,,,,,,,,,,,,,,,,,,,,,,,,,,,,,,,,,,,,,,,,,,,,,22,001,1,19,450,500,2022_Oct_17_1221,Experiment,2021.1.4,360.004896059338,
images\S1_F_H_01.png,images\S1_F_H_01_scrambled.png,1,happy,10,female,4,,121,off,1,0.5,0.75,0.5,0.816,3,120,1,1,1,0,0,0,0,4,,,,,,0,66,66,66,,,,,,,,,,,,,,,,,,,,,,,,,,,,,,,,,,,,,,,,,,,,,,,,,,,,,,,,,542.7717154999991,543.2743544000004,543.2743544000004,544.0270122000002,544.0270122000002,544.5267205,544.5267205,545.3487232999996,545.3487232999996,None,num_6,0.3059747999996034,545.3487232999996,None,happy,0,Happy,545.6653428000001,None,None,545.6653428000001,None,,,,,,,,,,,,,,,,,,,,,,,,,,,,,,,,,,,,,,,,,,,,,,,,,,,,,22,001,1,19,450,500,2022_Oct_17_1221,Experiment,2021.1.4,360.004896059338,
images\S10_M_S_02.png,images\S10_M_S_02_scrambled.png,10,sad,-20,male,2,,179,off,1,0.5,0.75,0.5,0.904,3,178,2,1,1,0,0,0,0,2,,,,,,0,67,67,67,,,,,,,,,,,,,,,,,,,,,,,,,,,,,,,,,,,,,,,,,,,,,,,,,,,,,,,,,545.7152509999996,546.2178707000003,546.2178707000003,546.9732399999994,546.9732399999994,547.4786339999991,547.4786339999991,548.3867781999998,548.3867781999998,None,num_6,0.4601148000001558,548.3867781999998,None,happy,0,Sad,548.8532953999998,None,None,548.8532953999998,None,,,,,,,,,,,,,,,,,,,,,,,,,,,,,,,,,,,,,,,,,,,,,,,,,,,,,22,001,1,19,450,500,2022_Oct_17_1221,Experiment,2021.1.4,360.004896059338,
images\S4_M_S_01.png,images\S4_M_S_01_scrambled.png,4,sad,-10,male,3,,382,off,1,0.5,0.75,0.5,0.809,3,381,3,1,1,0,0,0,0,3,,,,,,0,68,68,68,,,,,,,,,,,,,,,,,,,,,,,,,,,,,,,,,,,,,,,,,,,,,,,,,,,,,,,,,548.9170448000004,549.4225392999997,549.4225392999997,550.1749997999996,550.1749997999996,550.6776711999992,550.6776711999992,551.4857026999998,551.4857026999998,None,num_4,0.38490620000084164,551.4857026999998,None,sad,0,Sad,551.8883823999996,None,None,551.8883823999996,None,,,,,,,,,,,,,,,,,,,,,,,,,,,,,,,,,,,,,,,,,,,,,,,,,,,,,22,001,1,19,450,500,2022_Oct_17_1221,Experiment,2021.1.4,360.004896059338,
images\S10_M_S_02.png,images\S10_M_S_02_scrambled.png,10,sad,-20,male,2,,599,on,2,0.5,0.75,0.5,0.822,3,598,1,1,1,2,2,32,128,162,,,,,,0,69,69,69,,,,,,,,,,,,,,,,,,,,,,,,,,,,,,,,,,,,,,,,,,,,,,,,,,,,,,,,,551.9355615999993,552.4353938999993,552.4353938999993,553.1879955999993,553.1879955999993,553.6933790000003,553.6933790000003,554.5181429999993,554.5181429999993,None,num_6,0.2727224999998725,554.5181429999993,None,happy,0,Sad,554.7985556999988,None,None,554.7985556999988,None,,,,,,,,,,,,,,,,,,,,,,,,,,,,,,,,,,,,,,,,,,,,,,,,,,,,,22,001,1,19,450,500,2022_Oct_17_1221,Experiment,2021.1.4,360.004896059338,
images\S5_F_H_02.png,images\S5_F_H_02_scrambled.png,5,happy,20,female,5,,386,off,1,0.5,0.75,0.5,0.895,3,385,1,1,1,0,0,0,0,5,,,,,,0,70,70,70,,,,,,,,,,,,,,,,,,,,,,,,,,,,,,,,,,,,,,,,,,,,,,,,,,,,,,,,,554.8457768999997,555.3484389000005,555.3484389000005,556.1037589000007,556.1037589000007,556.6036084999996,556.6036084999996,557.5033306999994,557.5033306999994,None,num_6,0.43930659999932686,557.5033306999994,None,happy,0,Happy,557.9532128000002,None,None,557.9532128000002,None,,,,,,,,,,,,,,,,,,,,,,,,,,,,,,,,,,,,,,,,,,,,,,,,,,,,,22,001,1,19,450,500,2022_Oct_17_1221,Experiment,2021.1.4,360.004896059338,
images\S7_F_S_03.png,images\S7_F_S_03_scrambled.png,7,sad,-30,female,1,,42,off,1,0.5,0.75,0.5,0.789,3,41,2,1,1,0,0,0,0,1,,,,,,0,71,71,71,,,,,,,,,,,,,,,,,,,,,,,,,,,,,,,,,,,,,,,,,,,,,,,,,,,,,,,,,558.0364633000008,558.5391189000002,558.5391189000002,559.2916688000005,559.2916688000005,559.7915047999995,559.7915047999995,560.5829443999992,560.5829443999992,None,num_4,0.17550630000005185,560.5829443999992,None,sad,0,Sad,560.7689987999994,None,None,560.7689987999994,None,,,,,,,,,,,,,,,,,,,,,,,,,,,,,,,,,,,,,,,,,,,,,,,,,,,,,22,001,1,19,450,500,2022_Oct_17_1221,Experiment,2021.1.4,360.004896059338,
images\S3_F_H_01.png,images\S3_F_H_01_scrambled.png,3,happy,10,female,4,,433,on,2,0.5,0.75,0.5,0.865,3,432,1,1,1,2,2,32,128,164,,,,,,0,72,72,72,,,,,,,,,,,,,,,,,,,,,,,,,,,,,,,,,,,,,,,,,,,,,,,,,,,,,,,,,560.8161557000003,561.3188147000001,561.3188147000001,562.0741053000002,562.0741053000002,562.5767300000007,562.5767300000007,563.4459487000004,563.4459487000004,None,num_6,0.2805487000005087,563.4459487000004,None,happy,0,Happy,563.7375934000003,None,None,563.7375934000003,None,,,,,,,,,,,,,,,,,,,,,,,,,,,,,,,,,,,,,,,,,,,,,,,,,,,,,22,001,1,19,450,500,2022_Oct_17_1221,Experiment,2021.1.4,360.004896059338,
images\blank.jpg,images\blank.jpg,none,none,none,none,0,,633,on,2,0.5,0.75,0.5,0.918,0,632,2,1,1,3,3,48,192,240,,,,,,0,73,73,73,,,,,,,,,,,,,,,,,,,,,,,,,,,,,,,,,,,,,,,,,,,,,,,,,,,,,,,,,563.8210108000003,564.3234591,564.3234591,565.0787691999994,565.0787691999994,565.5814004999993,565.5814004999993,566.5033390999997,566.5033390999997,566.5033390999997,None,,566.5033390999997,None,miss,0,,569.5051718999991,None,None,569.5051718999991,None,,,,,,,,,,,,,,,,,,,,,,,,,,,,,,,,,,,,,,,,,,,,,,,,,,,,,22,001,1,19,450,500,2022_Oct_17_1221,Experiment,2021.1.4,360.004896059338,
images\S9_F_S_02.png,images\S9_F_S_02_scrambled.png,9,sad,-20,female,2,,293,off,1,0.5,0.75,0.5,0.855,3,292,1,1,1,0,0,0,0,2,,,,,,0,74,74,74,,,,,,,,,,,,,,,,,,,,,,,,,,,,,,,,,,,,,,,,,,,,,,,,,,,,,,,,,569.6553253999991,570.1577407000004,570.1577407000004,570.9102755000004,570.9102755000004,571.4129477000006,571.4129477000006,572.2737748,572.2737748,None,num_4,0.22069900000133202,572.2737748,569.6553253999991,sad,0,Sad,572.507034899999,None,None,572.507034899999,None,,,,,,,,,,,,,,,,,,,,,,,,,,,,,,,,,,,,,,,,,,,,,,,,,,,,,22,001,1,19,450,500,2022_Oct_17_1221,Experiment,2021.1.4,360.004896059338,
images\S6_M_H_02.png,images\S6_M_H_02_scrambled.png,6,happy,20,male,5,,92,on,2,0.5,0.75,0.5,0.808,3,91,1,1,1,2,2,32,128,165,,,,,,0,75,75,75,,,,,,,,,,,,,,,,,,,,,,,,,,,,,,,,,,,,,,,,,,,,,,,,,,,,,,,,,572.5708813000001,573.0735413000002,573.0735413000002,573.8288649000006,573.8288649000006,574.3314786999999,574.3314786999999,575.1423095999999,575.1423095999999,None,num_6,0.15242870000110997,575.1423095999999,None,happy,0,Happy,575.311803899999,None,None,575.311803899999,None,,,,,,,,,,,,,,,,,,,,,,,,,,,,,,,,,,,,,,,,,,,,,,,,,,,,,22,001,1,19,450,500,2022_Oct_17_1221,Experiment,2021.1.4,360.004896059338,
images\S4_M_S_02.png,images\S4_M_S_02_scrambled.png,4,sad,-20,male,2,,143,off,1,0.5,0.75,0.5,0.898,3,142,1,1,1,0,0,0,0,2,,,,,,0,76,76,76,,,,,,,,,,,,,,,,,,,,,,,,,,,,,,,,,,,,,,,,,,,,,,,,,,,,,,,,,575.3589315000008,575.8587573000004,575.8587573000004,576.6085005999994,576.6085005999994,577.1083894999992,577.1083894999992,578.0081444999996,578.0081444999996,None,num_4,0.19034620000093128,578.0081444999996,None,sad,0,Sad,578.2108473999989,None,None,578.2108473999989,None,,,,,,,,,,,,,,,,,,,,,,,,,,,,,,,,,,,,,,,,,,,,,,,,,,,,,22,001,1,19,450,500,2022_Oct_17_1221,Experiment,2021.1.4,360.004896059338,
images\S5_F_H_02.png,images\S5_F_H_02_scrambled.png,5,happy,20,female,5,,26,off,1,0.5,0.75,0.5,0.765,3,25,2,1,1,0,0,0,0,5,,,,,,0,77,77,77,,,,,,,,,,,,,,,,,,,,,,,,,,,,,,,,,,,,,,,,,,,,,,,,,,,,,,,,,578.2580164999999,578.7606519000001,578.7606519000001,579.5104183999993,579.5104183999993,580.0130315999995,580.0130315999995,580.7823726000006,580.7823726000006,None,num_6,0.23256099999889557,580.7823726000006,None,happy,0,Happy,581.0294007000003,None,None,581.0294007000003,None,,,,,,,,,,,,,,,,,,,,,,,,,,,,,,,,,,,,,,,,,,,,,,,,,,,,,22,001,1,19,450,500,2022_Oct_17_1221,Experiment,2021.1.4,360.004896059338,
images\S5_F_H_02.png,images\S5_F_H_02_scrambled.png,5,happy,20,female,5,,446,on,2,0.5,0.75,0.5,0.843,3,445,1,2,2,2,2,32,128,165,,,,,,0,78,78,78,,,,,,,,,,,,,,,,,,,,,,,,,,,,,,,,,,,,,,,,,,,,,,,,,,,,,,,,,581.0766287999995,581.5792440999994,581.5792440999994,582.3345649000003,582.3345649000003,582.8373164999994,582.8373164999994,583.6841612000007,583.6841612000007,None,num_6,0.23462629999994533,583.6841612000007,None,happy,0,Happy,583.9424358,None,None,583.9424358,None,,,,,,,,,,,,,,,,,,,,,,,,,,,,,,,,,,,,,,,,,,,,,,,,,,,,,22,001,1,19,450,500,2022_Oct_17_1221,Experiment,2021.1.4,360.004896059338,
images\S6_M_S_02.png,images\S6_M_S_02_scrambled.png,6,sad,-20,male,2,,335,on,2,0.5,0.75,0.5,0.918,3,334,2,1,1,2,2,32,128,162,,,,,,0,79,79,79,,,,,,,,,,,,,,,,,,,,,,,,,,,,,,,,,,,,,,,,,,,,,,,,,,,,,,,,,584.0284663000002,584.5283137999995,584.5283137999995,585.2836771000002,585.2836771000002,585.7862970000006,585.7862970000006,586.7082164000003,586.7082164000003,None,num_4,0.17852159999893047,586.7082164000003,None,sad,0,Sad,586.9082167,None,None,586.9082167,None,,,,,,,,,,,,,,,,,,,,,,,,,,,,,,,,,,,,,,,,,,,,,,,,,,,,,22,001,1,19,450,500,2022_Oct_17_1221,Experiment,2021.1.4,360.004896059338,
images\S2_M_S_02.png,images\S2_M_S_02_scrambled.png,2,sad,-20,male,2,,191,on,2,0.5,0.75,0.5,0.831,3,190,3,1,2,2,2,32,128,162,,,,,,0,80,80,80,,,,,,,,,,,,,,,,,,,,,,,,,,,,,,,,,,,,,,,,,,,,,,,,,,,,,,,,,586.9720073999997,587.4746489000008,587.4746489000008,588.2271953,588.2271953,588.7298018999991,588.7298018999991,589.5629250000002,589.5629250000002,None,num_4,0.14815719999933208,589.5629250000002,None,sad,0,Sad,589.7406608999983,None,None,589.7406608999983,None,,,,,,,,,,,,,,,,,,,,,,,,,,,,,,,,,,,,,,,,,,,,,,,,,,,,,22,001,1,19,450,500,2022_Oct_17_1221,Experiment,2021.1.4,360.004896059338,
images\S3_F_H_03.png,images\S3_F_H_03_scrambled.png,3,happy,30,female,6,,75,on,2,0.5,0.75,0.5,0.865,3,74,4,1,1,2,2,32,128,166,,,,,,0,81,81,81,,,,,,,,,,,,,,,,,,,,,,,,,,,,,,,,,,,,,,,,,,,,,,,,,,,,,,,,,589.7933670000002,590.2987971000002,590.2987971000002,591.0541042000004,591.0541042000004,591.5568280000007,591.5568280000007,592.4286838999997,592.4286838999997,None,num_6,0.05770440000014787,592.4286838999997,None,happy,0,Happy,592.500857099999,None,None,592.500857099999,None,,,,,,,,,,,,,,,,,,,,,,,,,,,,,,,,,,,,,,,,,,,,,,,,,,,,,22,001,1,19,450,500,2022_Oct_17_1221,Experiment,2021.1.4,360.004896059338,
images\S5_F_S_02.png,images\S5_F_S_02_scrambled.png,5,sad,-20,female,2,,149,off,1,0.5,0.75,0.5,0.924,3,148,1,1,1,0,0,0,0,2,,,,,,0,82,82,82,,,,,,,,,,,,,,,,,,,,,,,,,,,,,,,,,,,,,,,,,,,,,,,,,,,,,,,,,592.5814007000008,593.0840435999999,593.0840435999999,593.8365608999993,593.8365608999993,594.3364469999997,594.3364469999997,595.2639328000005,595.2639328000005,None,num_6,0.45464069999979984,595.2639328000005,None,happy,0,Sad,595.7276290999994,None,None,595.7276290999994,None,,,,,,,,,,,,,,,,,,,,,,,,,,,,,,,,,,,,,,,,,,,,,,,,,,,,,22,001,1,19,450,500,2022_Oct_17_1221,Experiment,2021.1.4,360.004896059338,
images\S2_M_S_02.png,images\S2_M_S_02_scrambled.png,2,sad,-20,male,2,,491,off,1,0.5,0.75,0.5,0.767,3,490,2,1,2,0,0,0,0,2,,,,,,0,83,83,83,,,,,,,,,,,,,,,,,,,,,,,,,,,,,,,,,,,,,,,,,,,,,,,,,,,,,,,,,595.7748520999994,596.2775717999994,596.2775717999994,597.0328437999997,597.0328437999997,597.5354539,597.5354539,598.3046562,598.3046562,None,num_4,0.19021879999854718,598.3046562,None,sad,0,Sad,598.5213826999992,None,None,598.5213826999992,None,,,,,,,,,,,,,,,,,,,,,,,,,,,,,,,,,,,,,,,,,,,,,,,,,,,,,22,001,1,19,450,500,2022_Oct_17_1221,Experiment,2021.1.4,360.004896059338,
images\S6_M_H_02.png,images\S6_M_H_02_scrambled.png,6,happy,20,male,5,,212,on,2,0.5,0.75,0.5,0.752,3,211,1,1,1,2,2,32,128,165,,,,,,0,84,84,84,,,,,,,,,,,,,,,,,,,,,,,,,,,,,,,,,,,,,,,,,,,,,,,,,,,,,,,,,598.5739997000001,599.0794155000003,599.0794155000003,599.8320810999994,599.8320810999994,600.3318144000004,600.3318144000004,601.0872536999996,601.0872536999996,None,num_6,0.5032357999989472,601.0872536999996,None,happy,0,Happy,601.6036146999987,None,None,601.6036146999987,None,,,,,,,,,,,,,,,,,,,,,,,,,,,,,,,,,,,,,,,,,,,,,,,,,,,,,22,001,1,19,450,500,2022_Oct_17_1221,Experiment,2021.1.4,360.004896059338,
images\S7_F_H_02.png,images\S7_F_H_02_scrambled.png,7,happy,20,female,5,,38,off,1,0.5,0.75,0.5,0.861,3,37,1,1,2,0,0,0,0,5,,,,,,0,85,85,85,,,,,,,,,,,,,,,,,,,,,,,,,,,,,,,,,,,,,,,,,,,,,,,,,,,,,,,,,601.6536068000005,602.156223,602.156223,602.9088001,602.9088001,603.4114246999998,603.4114246999998,604.2778417999998,604.2778417999998,None,num_6,0.40060059999996156,604.2778417999998,None,happy,0,Happy,604.6943617999997,None,None,604.6943617999997,None,,,,,,,,,,,,,,,,,,,,,,,,,,,,,,,,,,,,,,,,,,,,,,,,,,,,,22,001,1,19,450,500,2022_Oct_17_1221,Experiment,2021.1.4,360.004896059338,
images\S6_M_H_01.png,images\S6_M_H_01_scrambled.png,6,happy,10,male,4,,31,off,1,0.5,0.75,0.5,0.773,3,30,2,1,1,0,0,0,0,4,,,,,,0,86,86,86,,,,,,,,,,,,,,,,,,,,,,,,,,,,,,,,,,,,,,,,,,,,,,,,,,,,,,,,,604.7415433999995,605.2470709999998,605.2470709999998,606.0023865999992,606.0023865999992,606.5048874000004,606.5048874000004,607.2825252000002,607.2825252000002,None,num_6,0.31605130000025383,607.2825252000002,None,happy,0,Happy,607.6156901999994,None,None,607.6156901999994,None,,,,,,,,,,,,,,,,,,,,,,,,,,,,,,,,,,,,,,,,,,,,,,,,,,,,,22,001,1,19,450,500,2022_Oct_17_1221,Experiment,2021.1.4,360.004896059338,
images\S10_M_H_01.png,images\S10_M_H_01_scrambled.png,10,happy,10,male,4,,175,off,1,0.5,0.75,0.5,0.916,3,174,3,1,2,0,0,0,0,4,,,,,,0,87,87,87,,,,,,,,,,,,,,,,,,,,,,,,,,,,,,,,,,,,,,,,,,,,,,,,,,,,,,,,,607.6989706000004,608.1988127000004,608.1988127000004,608.9514806999996,608.9514806999996,609.4540187000002,609.4540187000002,610.3731810999998,610.3731810999998,None,num_6,0.4332463999999163,610.3731810999998,None,happy,0,Happy,610.8174645999999,None,None,610.8174645999999,None,,,,,,,,,,,,,,,,,,,,,,,,,,,,,,,,,,,,,,,,,,,,,,,,,,,,,22,001,1,19,450,500,2022_Oct_17_1221,Experiment,2021.1.4,360.004896059338,
images\S2_M_S_01.png,images\S2_M_S_01_scrambled.png,2,sad,-10,male,3,,550,on,2,0.5,0.75,0.5,0.765,3,549,1,1,1,2,2,32,128,163,,,,,,0,88,88,88,,,,,,,,,,,,,,,,,,,,,,,,,,,,,,,,,,,,,,,,,,,,,,,,,,,,,,,,,610.8646618999992,611.3700714000006,611.3700714000006,612.1198482,612.1198482,612.6225300000006,612.6225300000006,613.3917825999997,613.3917825999997,None,num_6,0.43864229999962845,613.3917825999997,None,happy,0,Sad,613.8415309999992,None,None,613.8415309999992,None,,,,,,,,,,,,,,,,,,,,,,,,,,,,,,,,,,,,,,,,,,,,,,,,,,,,,22,001,1,19,450,500,2022_Oct_17_1221,Experiment,2021.1.4,360.004896059338,
images\S10_M_S_02.png,images\S10_M_S_02_scrambled.png,10,sad,-20,male,2,,119,on,2,0.5,0.75,0.5,0.901,3,118,2,1,1,2,2,32,128,162,,,,,,0,89,89,89,,,,,,,,,,,,,,,,,,,,,,,,,,,,,,,,,,,,,,,,,,,,,,,,,,,,,,,,,613.9081688999995,614.4107967,614.4107967,615.1605691999994,615.1605691999994,615.6632114999993,615.6632114999993,616.5684892000008,616.5684892000008,None,num_6,0.31004180000127235,616.5684892000008,None,happy,0,Sad,616.8878142999997,None,None,616.8878142999997,None,,,,,,,,,,,,,,,,,,,,,,,,,,,,,,,,,,,,,,,,,,,,,,,,,,,,,22,001,1,19,450,500,2022_Oct_17_1221,Experiment,2021.1.4,360.004896059338,
images\S3_F_S_02.png,images\S3_F_S_02_scrambled.png,3,sad,-20,female,2,,497,off,1,0.5,0.75,0.5,0.803,3,496,1,1,2,0,0,0,0,2,,,,,,0,90,90,90,,,,,,,,,,,,,,,,,,,,,,,,,,,,,,,,,,,,,,,,,,,,,,,,,,,,,,,,,616.9350085000005,617.4404343000006,617.4404343000006,618.1929689999997,618.1929689999997,618.6983922,618.6983922,619.5036956999993,619.5036956999993,None,num_4,0.3987082999992708,619.5036956999993,None,sad,0,Sad,619.9174533999994,None,None,619.9174533999994,None,,,,,,,,,,,,,,,,,,,,,,,,,,,,,,,,,,,,,,,,,,,,,,,,,,,,,22,001,1,19,450,500,2022_Oct_17_1221,Experiment,2021.1.4,360.004896059338,
images\S6_M_S_01.png,images\S6_M_S_01_scrambled.png,6,sad,-10,male,3,,334,on,2,0.5,0.75,0.5,0.922,3,333,1,1,1,2,2,32,128,163,,,,,,0,91,91,91,,,,,,,,,,,,,,,,,,,,,,,,,,,,,,,,,,,,,,,,,,,,,,,,,,,,,,,,,619.9979638999994,620.5033750999992,620.5033750999992,621.2587119,621.2587119,621.7585276999998,621.7585276999998,622.6832704999997,622.6832704999997,None,num_4,0.49157039999954577,622.6832704999997,None,sad,0,Sad,623.1971365999993,None,None,623.1971365999993,None,,,,,,,,,,,,,,,,,,,,,,,,,,,,,,,,,,,,,,,,,,,,,,,,,,,,,22,001,1,19,450,500,2022_Oct_17_1221,Experiment,2021.1.4,360.004896059338,
images\S7_F_H_02.png,images\S7_F_H_02_scrambled.png,7,happy,20,female,5,,458,on,2,0.5,0.75,0.5,0.846,3,457,2,1,1,2,2,32,128,165,,,,,,0,92,92,92,,,,,,,,,,,,,,,,,,,,,,,,,,,,,,,,,,,,,,,,,,,,,,,,,,,,,,,,,623.246955999999,623.7524854000003,623.7524854000003,624.5077672000007,624.5077672000007,625.0131146999993,625.0131146999993,625.8628719999997,625.8628719999997,None,num_6,0.21553560000029393,625.8628719999997,None,happy,0,Happy,626.0905475999999,None,None,626.0905475999999,None,,,,,,,,,,,,,,,,,,,,,,,,,,,,,,,,,,,,,,,,,,,,,,,,,,,,,22,001,1,19,450,500,2022_Oct_17_1221,Experiment,2021.1.4,360.004896059338,
images\S4_M_S_02.png,images\S4_M_S_02_scrambled.png,4,sad,-20,male,2,,23,off,1,0.5,0.75,0.5,0.753,3,22,1,1,1,0,0,0,0,2,,,,,,0,93,93,93,,,,,,,,,,,,,,,,,,,,,,,,,,,,,,,,,,,,,,,,,,,,,,,,,,,,,,,,,626.1377429999993,626.6403730000002,626.6403730000002,627.3929143999994,627.3929143999994,627.8983518999994,627.8983518999994,628.6536594000008,628.6536594000008,None,num_4,0.28948660000060045,628.6536594000008,None,sad,0,Sad,628.9536534999999,None,None,628.9536534999999,None,,,,,,,,,,,,,,,,,,,,,,,,,,,,,,,,,,,,,,,,,,,,,,,,,,,,,22,001,1,19,450,500,2022_Oct_17_1221,Experiment,2021.1.4,360.004896059338,
images\S3_F_H_02.png,images\S3_F_H_02_scrambled.png,3,happy,20,female,5,,134,off,1,0.5,0.75,0.5,0.947,3,133,2,1,1,0,0,0,0,5,,,,,,0,94,94,94,,,,,,,,,,,,,,,,,,,,,,,,,,,,,,,,,,,,,,,,,,,,,,,,,,,,,,,,,629.0645834999996,629.5700319000007,629.5700319000007,630.3226964000005,630.3226964000005,630.8224083000005,630.8224083000005,631.7749994000005,631.7749994000005,None,num_4,0.35955640000065614,631.7749994000005,None,sad,0,Happy,632.1387049,None,None,632.1387049,None,,,,,,,,,,,,,,,,,,,,,,,,,,,,,,,,,,,,,,,,,,,,,,,,,,,,,22,001,1,19,450,500,2022_Oct_17_1221,Experiment,2021.1.4,360.004896059338,
images\S7_F_H_03.png,images\S7_F_H_03_scrambled.png,7,happy,30,female,6,,459,on,2,0.5,0.75,0.5,0.77,3,458,1,1,1,2,2,32,128,166,,,,,,0,95,95,95,,,,,,,,,,,,,,,,,,,,,,,,,,,,,,,,,,,,,,,,,,,,,,,,,,,,,,,,,632.185883099999,632.6885091999993,632.6885091999993,633.4411017000002,633.4411017000002,633.9437132000003,633.9437132000003,634.7156580999999,634.7156580999999,None,num_6,0.4028945999998541,634.7156580999999,None,happy,0,Happy,635.1321958,None,None,635.1321958,None,,,,,,,,,,,,,,,,,,,,,,,,,,,,,,,,,,,,,,,,,,,,,,,,,,,,,22,001,1,19,450,500,2022_Oct_17_1221,Experiment,2021.1.4,360.004896059338,
images\blank.jpg,images\blank.jpg,none,none,none,none,0,,643,on,2,0.5,0.75,0.5,0.929,0,642,2,1,1,3,3,48,192,240,,,,,,0,96,96,96,,,,,,,,,,,,,,,,,,,,,,,,,,,,,,,,,,,,,,,,,,,,,,,,,,,,,,,,,635.2156878999995,635.7181670999998,635.7181670999998,636.4679065,636.4679065,636.9733379999998,636.9733379999998,637.9091496000001,637.9091496000001,637.9091496000001,None,,637.9091496000001,None,miss,0,,640.9082143000003,None,None,640.9082143000003,None,,,,,,,,,,,,,,,,,,,,,,,,,,,,,,,,,,,,,,,,,,,,,,,,,,,,,22,001,1,19,450,500,2022_Oct_17_1221,Experiment,2021.1.4,360.004896059338,
images\S7_F_S_01.png,images\S7_F_S_01_scrambled.png,7,sad,-10,female,3,,280,off,1,0.5,0.75,0.5,0.918,3,279,1,1,1,0,0,0,0,3,,,,,,0,97,97,97,,,,,,,,,,,,,,,,,,,,,,,,,,,,,,,,,,,,,,,,,,,,,,,,,,,,,,,,,641.0222317999996,641.5246965999995,641.5246965999995,642.2773390999992,642.2773390999992,642.7826786999995,642.7826786999995,643.7101956000006,643.7101956000006,None,num_6,0.1687060999993264,643.7101956000006,641.0222317999996,happy,0,Sad,643.8879520000005,None,None,643.8879520000005,None,,,,,,,,,,,,,,,,,,,,,,,,,,,,,,,,,,,,,,,,,,,,,,,,,,,,,22,001,1,19,450,500,2022_Oct_17_1221,Experiment,2021.1.4,360.004896059338,
images\S6_M_H_01.png,images\S6_M_H_01_scrambled.png,6,happy,10,male,4,,331,on,2,0.5,0.75,0.5,0.791,3,330,1,1,1,2,2,32,128,164,,,,,,0,98,98,98,,,,,,,,,,,,,,,,,,,,,,,,,,,,,,,,,,,,,,,,,,,,,,,,,,,,,,,,,643.9461618000005,644.4487778000002,644.4487778000002,645.201452199999,645.201452199999,645.7012107999999,645.7012107999999,646.4953822000007,646.4953822000007,None,num_6,0.24702990000150749,646.4953822000007,None,happy,0,Happy,646.7536649000004,None,None,646.7536649000004,None,,,,,,,,,,,,,,,,,,,,,,,,,,,,,,,,,,,,,,,,,,,,,,,,,,,,,22,001,1,19,450,500,2022_Oct_17_1221,Experiment,2021.1.4,360.004896059338,
images\S1_F_H_03.png,images\S1_F_H_03_scrambled.png,1,happy,30,female,6,,543,on,2,0.5,0.75,0.5,0.848,3,542,2,1,1,2,2,32,128,166,,,,,,0,99,99,99,,,,,,,,,,,,,,,,,,,,,,,,,,,,,,,,,,,,,,,,,,,,,,,,,,,,,,,,,646.8008355999991,647.3006869000001,647.3006869000001,648.0504586000006,648.0504586000006,648.5530686000002,648.5530686000002,649.4028567000005,649.4028567000005,None,num_6,0.2279757000014797,649.4028567000005,None,happy,0,Happy,649.6445864999997,None,None,649.6445864999997,None,,,,,,,,,,,,,,,,,,,,,,,,,,,,,,,,,,,,,,,,,,,,,,,,,,,,,22,001,1,19,450,500,2022_Oct_17_1221,Experiment,2021.1.4,360.004896059338,
images\S1_F_H_03.png,images\S1_F_H_03_scrambled.png,1,happy,30,female,6,,123,off,1,0.5,0.75,0.5,0.78,3,122,1,2,2,0,0,0,0,6,,,,,,0,100,100,100,,,,,,,,,,,,,,,,,,,,,,,,,,,,,,,,,,,,,,,,,,,,,,,,,,,,,,,,,649.6916111999999,650.1971362000004,650.1971362000004,650.9467765999998,650.9467765999998,651.4466236000007,651.4466236000007,652.2325758000006,652.2325758000006,None,num_6,0.27806689999852097,652.2325758000006,None,happy,0,Happy,652.524091299999,None,None,652.524091299999,None,,,,,,,,,,,,,,,,,,,,,,,,,,,,,,,,,,,,,,,,,,,,,,,,,,,,,22,001,1,19,450,500,2022_Oct_17_1221,Experiment,2021.1.4,360.004896059338,
images\S7_F_H_01.png,images\S7_F_H_01_scrambled.png,7,happy,10,female,4,,397,off,1,0.5,0.75,0.5,0.769,3,396,2,1,1,0,0,0,0,4,,,,,,0,101,101,101,,,,,,,,,,,,,,,,,,,,,,,,,,,,,,,,,,,,,,,,,,,,,,,,,,,,,,,,,652.5712839999997,653.0739341000008,653.0739341000008,653.8264734000004,653.8264734000004,654.3263339999994,654.3263339999994,655.0983226000008,655.0983226000008,None,num_6,0.3161416000002646,655.0983226000008,None,happy,0,Happy,655.4287481999992,None,None,655.4287481999992,None,,,,,,,,,,,,,,,,,,,,,,,,,,,,,,,,,,,,,,,,,,,,,,,,,,,,,22,001,1,19,450,500,2022_Oct_17_1221,Experiment,2021.1.4,360.004896059338,
images\S3_F_H_03.png,images\S3_F_H_03_scrambled.png,3,happy,30,female,6,,315,on,2,0.5,0.75,0.5,0.752,3,314,1,1,1,2,2,32,128,166,,,,,,0,102,102,102,,,,,,,,,,,,,,,,,,,,,,,,,,,,,,,,,,,,,,,,,,,,,,,,,,,,,,,,,655.4759470000008,655.9785685000006,655.9785685000006,656.7311491,656.7311491,657.2337308000006,657.2337308000006,657.9890472000006,657.9890472000006,None,num_6,0.31350149999889254,657.9890472000006,None,happy,0,Happy,658.3167547000004,None,None,658.3167547000004,None,,,,,,,,,,,,,,,,,,,,,,,,,,,,,,,,,,,,,,,,,,,,,,,,,,,,,22,001,1,19,450,500,2022_Oct_17_1221,Experiment,2021.1.4,360.004896059338,
images\S8_M_H_01.png,images\S8_M_H_01_scrambled.png,8,happy,10,male,4,,163,off,1,0.5,0.75,0.5,0.94,3,162,1,1,1,0,0,0,0,4,,,,,,0,103,103,103,,,,,,,,,,,,,,,,,,,,,,,,,,,,,,,,,,,,,,,,,,,,,,,,,,,,,,,,,658.3639445999997,658.8665956999994,658.8665956999994,659.6191395999995,659.6191395999995,660.1217629000002,660.1217629000002,661.0686951000007,661.0686951000007,None,num_6,0.31365639999967243,661.0686951000007,None,happy,0,Happy,661.3963529999993,None,None,661.3963529999993,None,,,,,,,,,,,,,,,,,,,,,,,,,,,,,,,,,,,,,,,,,,,,,,,,,,,,,22,001,1,19,450,500,2022_Oct_17_1221,Experiment,2021.1.4,360.004896059338,
images\S6_M_S_01.png,images\S6_M_S_01_scrambled.png,6,sad,-10,male,3,,514,off,1,0.5,0.75,0.5,0.803,3,513,2,1,1,0,0,0,0,3,,,,,,0,104,104,104,,,,,,,,,,,,,,,,,,,,,,,,,,,,,,,,,,,,,,,,,,,,,,,,,,,,,,,,,661.4435482999997,661.9489785000005,661.9489785000005,662.7016208999994,662.7016208999994,663.2013518000003,663.2013518000003,664.0067787000007,664.0067787000007,None,num_6,0.31977290000031644,664.0067787000007,None,happy,0,Sad,664.3343132999994,None,None,664.3343132999994,None,,,,,,,,,,,,,,,,,,,,,,,,,,,,,,,,,,,,,,,,,,,,,,,,,,,,,22,001,1,19,450,500,2022_Oct_17_1221,Experiment,2021.1.4,360.004896059338,
images\S8_M_S_03.png,images\S8_M_S_03_scrambled.png,8,sad,-30,male,1,,168,off,1,0.5,0.75,0.5,0.89,3,167,3,1,1,0,0,0,0,1,,,,,,0,105,105,105,,,,,,,,,,,,,,,,,,,,,,,,,,,,,,,,,,,,,,,,,,,,,,,,,,,,,,,,,664.3815551999996,664.8841898999999,664.8841898999999,665.6395004999995,665.6395004999995,666.1393408999993,666.1393408999993,667.0335340000001,667.0335340000001,None,num_4,0.3246457000004739,667.0335340000001,None,sad,0,Sad,667.3890283999997,None,None,667.3890283999997,None,,,,,,,,,,,,,,,,,,,,,,,,,,,,,,,,,,,,,,,,,,,,,,,,,,,,,22,001,1,19,450,500,2022_Oct_17_1221,Experiment,2021.1.4,360.004896059338,
images\S5_F_H_02.png,images\S5_F_H_02_scrambled.png,5,happy,20,female,5,,86,on,2,0.5,0.75,0.5,0.882,3,85,1,1,1,2,2,32,128,165,,,,,,0,106,106,106,,,,,,,,,,,,,,,,,,,,,,,,,,,,,,,,,,,,,,,,,,,,,,,,,,,,,,,,,667.4499770999992,667.9527306,667.9527306,668.7080277000005,668.7080277000005,669.2134110000006,669.2134110000006,670.0992222000004,670.0992222000004,None,num_6,0.21960049999870535,670.0992222000004,None,happy,0,Happy,670.332476499999,None,None,670.332476499999,None,,,,,,,,,,,,,,,,,,,,,,,,,,,,,,,,,,,,,,,,,,,,,,,,,,,,,22,001,1,19,450,500,2022_Oct_17_1221,Experiment,2021.1.4,360.004896059338,
images\S8_M_S_02.png,images\S8_M_S_02_scrambled.png,8,sad,-20,male,2,,47,off,1,0.5,0.75,0.5,0.884,3,46,1,1,1,0,0,0,0,2,,,,,,0,107,107,107,,,,,,,,,,,,,,,,,,,,,,,,,,,,,,,,,,,,,,,,,,,,,,,,,,,,,,,,,670.3796946000002,670.8851030000005,670.8851030000005,671.6377597999999,671.6377597999999,672.1430657000001,672.1430657000001,673.0317808,673.0317808,None,num_4,0.4225341999990633,673.0317808,None,sad,0,Sad,673.4648926000001,None,None,673.4648926000001,None,,,,,,,,,,,,,,,,,,,,,,,,,,,,,,,,,,,,,,,,,,,,,,,,,,,,,22,001,1,19,450,500,2022_Oct_17_1221,Experiment,2021.1.4,360.004896059338,
images\S6_M_S_01.png,images\S6_M_S_01_scrambled.png,6,sad,-10,male,3,,34,off,1,0.5,0.75,0.5,0.812,3,33,2,1,1,0,0,0,0,3,,,,,,0,108,108,108,,,,,,,,,,,,,,,,,,,,,,,,,,,,,,,,,,,,,,,,,,,,,,,,,,,,,,,,,673.5120607999997,674.0119090999997,674.0119090999997,674.7616742999999,674.7616742999999,675.2671996000008,675.2671996000008,676.0835358000004,676.0835358000004,None,num_4,0.33102899999903457,676.0835358000004,None,sad,0,Sad,676.4362067999987,None,None,676.4362067999987,None,,,,,,,,,,,,,,,,,,,,,,,,,,,,,,,,,,,,,,,,,,,,,,,,,,,,,22,001,1,19,450,500,2022_Oct_17_1221,Experiment,2021.1.4,360.004896059338,
images\S7_F_H_02.png,images\S7_F_H_02_scrambled.png,7,happy,20,female,5,,338,on,2,0.5,0.75,0.5,0.816,3,337,1,1,1,2,2,32,128,165,,,,,,0,109,109,109,,,,,,,,,,,,,,,,,,,,,,,,,,,,,,,,,,,,,,,,,,,,,,,,,,,,,,,,,676.4889363999991,676.9916716999996,676.9916716999996,677.7470064000008,677.7470064000008,678.2523927999991,678.2523927999991,679.0742496000003,679.0742496000003,None,num_6,0.1402152999999089,679.0742496000003,None,happy,0,Happy,679.2381233,None,None,679.2381233,None,,,,,,,,,,,,,,,,,,,,,,,,,,,,,,,,,,,,,,,,,,,,,,,,,,,,,22,001,1,19,450,500,2022_Oct_17_1221,Experiment,2021.1.4,360.004896059338,
images\S9_F_S_03.png,images\S9_F_S_03_scrambled.png,9,sad,-30,female,1,,54,off,1,0.5,0.75,0.5,0.949,3,53,1,1,1,0,0,0,0,1,,,,,,0,110,110,110,,,,,,,,,,,,,,,,,,,,,,,,,,,,,,,,,,,,,,,,,,,,,,,,,,,,,,,,,679.3019540999994,679.8074312999997,679.8074312999997,680.562721799999,680.562721799999,681.0681126,681.0681126,682.0233740000003,682.0233740000003,None,num_6,0.4632776999987982,682.0233740000003,None,happy,0,Sad,682.5011013999996,None,None,682.5011013999996,None,,,,,,,,,,,,,,,,,,,,,,,,,,,,,,,,,,,,,,,,,,,,,,,,,,,,,22,001,1,19,450,500,2022_Oct_17_1221,Experiment,2021.1.4,360.004896059338,
images\S1_F_S_03.png,images\S1_F_S_03_scrambled.png,1,sad,-30,female,1,,366,off,1,0.5,0.75,0.5,0.802,3,365,2,1,2,0,0,0,0,1,,,,,,0,111,111,111,,,,,,,,,,,,,,,,,,,,,,,,,,,,,,,,,,,,,,,,,,,,,,,,,,,,,,,,,682.5565053999999,683.0591561000001,683.0591561000001,683.8116640999997,683.8116640999997,684.3143165999991,684.3143165999991,685.1224741999995,685.1224741999995,None,num_4,0.22825509999893256,685.1224741999995,None,sad,0,Sad,685.3639600999987,None,None,685.3639600999987,None,,,,,,,,,,,,,,,,,,,,,,,,,,,,,,,,,,,,,,,,,,,,,,,,,,,,,22,001,1,19,450,500,2022_Oct_17_1221,Experiment,2021.1.4,360.004896059338,
images\S3_F_S_02.png,images\S3_F_S_02_scrambled.png,3,sad,-20,female,2,,437,on,2,0.5,0.75,0.5,0.816,3,436,1,1,1,2,2,32,128,162,,,,,,0,112,112,112,,,,,,,,,,,,,,,,,,,,,,,,,,,,,,,,,,,,,,,,,,,,,,,,,,,,,,,,,685.4111838000008,685.9138337999993,685.9138337999993,686.6635776000003,686.6635776000003,687.1634250000006,687.1634250000006,687.9827335999998,687.9827335999998,None,num_4,0.20814619999873685,687.9827335999998,None,sad,0,Sad,688.2104443999986,None,None,688.2104443999986,None,,,,,,,,,,,,,,,,,,,,,,,,,,,,,,,,,,,,,,,,,,,,,,,,,,,,,22,001,1,19,450,500,2022_Oct_17_1221,Experiment,2021.1.4,360.004896059338,
images\S1_F_S_02.png,images\S1_F_S_02_scrambled.png,1,sad,-20,female,2,,545,on,2,0.5,0.75,0.5,0.863,3,544,2,1,2,2,2,32,128,162,,,,,,0,113,113,113,,,,,,,,,,,,,,,,,,,,,,,,,,,,,,,,,,,,,,,,,,,,,,,,,,,,,,,,,688.2630836000008,688.7685278000008,688.7685278000008,689.5210272000004,689.5210272000004,690.0236977000004,690.0236977000004,690.8900642999997,690.8900642999997,None,num_4,0.16472950000024866,690.8900642999997,None,sad,0,Sad,691.0762371999997,None,None,691.0762371999997,None,,,,,,,,,,,,,,,,,,,,,,,,,,,,,,,,,,,,,,,,,,,,,,,,,,,,,22,001,1,19,450,500,2022_Oct_17_1221,Experiment,2021.1.4,360.004896059338,
images\S5_F_H_03.png,images\S5_F_H_03_scrambled.png,5,happy,30,female,6,,447,on,2,0.5,0.75,0.5,0.787,3,446,3,1,1,2,2,32,128,166,,,,,,0,114,114,114,,,,,,,,,,,,,,,,,,,,,,,,,,,,,,,,,,,,,,,,,,,,,,,,,,,,,,,,,691.1844086000001,691.6898321999997,691.6898321999997,692.4423697000002,692.4423697000002,692.9478101000004,692.9478101000004,693.7391934999996,693.7391934999996,None,num_6,0.25909600000159116,693.7391934999996,None,happy,0,Happy,694.0085582000003,None,None,694.0085582000003,None,,,,,,,,,,,,,,,,,,,,,,,,,,,,,,,,,,,,,,,,,,,,,,,,,,,,,22,001,1,19,450,500,2022_Oct_17_1221,Experiment,2021.1.4,360.004896059338,
images\S6_M_H_03.png,images\S6_M_H_03_scrambled.png,6,happy,30,male,6,,573,on,2,0.5,0.75,0.5,0.868,3,572,4,1,2,2,2,32,128,166,,,,,,0,115,115,115,,,,,,,,,,,,,,,,,,,,,,,,,,,,,,,,,,,,,,,,,,,,,,,,,,,,,,,,,694.1196177999991,694.6223590999998,694.6223590999998,695.3720343999994,695.3720343999994,695.8774988000005,695.8774988000005,696.749381399999,696.749381399999,None,num_6,0.1294992999992246,696.749381399999,None,happy,0,Happy,696.9022393999999,None,None,696.9022393999999,None,,,,,,,,,,,,,,,,,,,,,,,,,,,,,,,,,,,,,,,,,,,,,,,,,,,,,22,001,1,19,450,500,2022_Oct_17_1221,Experiment,2021.1.4,360.004896059338,
images\S6_M_H_03.png,images\S6_M_H_03_scrambled.png,6,happy,30,male,6,,213,on,2,0.5,0.75,0.5,0.896,3,212,5,2,3,2,2,32,128,166,,,,,,0,116,116,116,,,,,,,,,,,,,,,,,,,,,,,,,,,,,,,,,,,,,,,,,,,,,,,,,,,,,,,,,696.9520905000008,697.4547065000006,697.4547065000006,698.2044654000001,698.2044654000001,698.7071075999993,698.7071075999993,699.6069537000003,699.6069537000003,None,num_6,0.2554001000007702,699.6069537000003,None,happy,0,Happy,699.8734139,None,None,699.8734139,None,,,,,,,,,,,,,,,,,,,,,,,,,,,,,,,,,,,,,,,,,,,,,,,,,,,,,22,001,1,19,450,500,2022_Oct_17_1221,Experiment,2021.1.4,360.004896059338,
images\S5_F_S_01.png,images\S5_F_S_01_scrambled.png,5,sad,-10,female,3,,448,on,2,0.5,0.75,0.5,0.817,3,447,6,1,1,2,2,32,128,163,,,,,,0,117,117,117,,,,,,,,,,,,,,,,,,,,,,,,,,,,,,,,,,,,,,,,,,,,,,,,,,,,,,,,,699.9372636999997,700.4399185000002,700.4399185000002,701.1924600000002,701.1924600000002,701.6978841,701.6978841,702.5171334000006,702.5171334000006,None,num_6,0.2494953000004898,702.5171334000006,None,happy,0,Sad,702.7781200999993,None,None,702.7781200999993,None,,,,,,,,,,,,,,,,,,,,,,,,,,,,,,,,,,,,,,,,,,,,,,,,,,,,,22,001,1,19,450,500,2022_Oct_17_1221,Experiment,2021.1.4,360.004896059338,
images\blank.jpg,images\blank.jpg,none,none,none,none,0,,649,on,2,0.5,0.75,0.5,0.814,0,648,7,1,1,3,3,48,192,240,,,,,,0,118,118,118,,,,,,,,,,,,,,,,,,,,,,,,,,,,,,,,,,,,,,,,,,,,,,,,,,,,,,,,,702.8671245000005,703.3695664000006,703.3695664000006,704.1221865000007,704.1221865000007,704.6275860999995,704.6275860999995,705.4411603000008,705.4411603000008,705.4411603000008,None,,705.4411603000008,None,miss,0,,708.4402027999993,None,None,708.4402027999993,None,,,,,,,,,,,,,,,,,,,,,,,,,,,,,,,,,,,,,,,,,,,,,,,,,,,,,22,001,1,19,450,500,2022_Oct_17_1221,Experiment,2021.1.4,360.004896059338,
images\S2_M_H_01.png,images\S2_M_H_01_scrambled.png,2,happy,10,male,4,,487,off,1,0.5,0.75,0.5,0.926,3,486,1,1,1,0,0,0,0,4,,,,,,0,119,119,119,,,,,,,,,,,,,,,,,,,,,,,,,,,,,,,,,,,,,,,,,,,,,,,,,,,,,,,,,708.5903550000003,709.0928299999996,709.0928299999996,709.8425750000006,709.8425750000006,710.3480134999991,710.3480134999991,711.2782729999999,711.2782729999999,None,num_6,0.544360300000335,711.2782729999999,708.5903550000003,happy,0,Happy,711.8363915000001,None,None,711.8363915000001,None,,,,,,,,,,,,,,,,,,,,,,,,,,,,,,,,,,,,,,,,,,,,,,,,,,,,,22,001,1,19,450,500,2022_Oct_17_1221,Experiment,2021.1.4,360.004896059338,
images\S7_F_S_02.png,images\S7_F_S_02_scrambled.png,7,sad,-20,female,2,,341,on,2,0.5,0.75,0.5,0.886,3,340,1,1,1,2,2,32,128,162,,,,,,0,120,120,120,,,,,,,,,,,,,,,,,,,,,,,,,,,,,,,,,,,,,,,,,,,,,,,,,,,,,,,,,711.9197170999996,712.4224518999999,712.4224518999999,713.1749068999998,713.1749068999998,713.6775617999992,713.6775617999992,714.5661562000005,714.5661562000005,None,num_4,0.30415369999900577,714.5661562000005,None,sad,0,Sad,714.888255599999,None,None,714.888255599999,None,,,,,,,,,,,,,,,,,,,,,,,,,,,,,,,,,,,,,,,,,,,,,,,,,,,,,22,001,1,19,450,500,2022_Oct_17_1221,Experiment,2021.1.4,360.004896059338,
images\S3_F_H_01.png,images\S3_F_H_01_scrambled.png,3,happy,10,female,4,,133,off,1,0.5,0.75,0.5,0.887,3,132,1,1,1,0,0,0,0,4,,,,,,0,121,121,121,,,,,,,,,,,,,,,,,,,,,,,,,,,,,,,,,,,,,,,,,,,,,,,,,,,,,,,,,714.9354380000004,715.4380669000002,715.4380669000002,716.1878369000005,716.1878369000005,716.6876976999993,716.6876976999993,717.5790861999994,717.5790861999994,None,num_4,0.17176060000019788,717.5790861999994,None,sad,0,Happy,717.7624318000002,None,None,717.7624318000002,None,,,,,,,,,,,,,,,,,,,,,,,,,,,,,,,,,,,,,,,,,,,,,,,,,,,,,22,001,1,19,450,500,2022_Oct_17_1221,Experiment,2021.1.4,360.004896059338,
images\S6_M_S_03.png,images\S6_M_S_03_scrambled.png,6,sad,-30,male,1,,576,on,2,0.5,0.75,0.5,0.783,3,575,1,1,1,2,2,32,128,161,,,,,,0,122,122,122,,,,,,,,,,,,,,,,,,,,,,,,,,,,,,,,,,,,,,,,,,,,,,,,,,,,,,,,,717.8234412000002,718.3288730999993,718.3288730999993,719.0785961999991,719.0785961999991,719.5812564000007,719.5812564000007,720.3671871999995,720.3671871999995,None,num_4,0.3111496999990777,720.3671871999995,None,sad,0,Sad,720.6892499999987,None,None,720.6892499999987,None,,,,,,,,,,,,,,,,,,,,,,,,,,,,,,,,,,,,,,,,,,,,,,,,,,,,,22,001,1,19,450,500,2022_Oct_17_1221,Experiment,2021.1.4,360.004896059338,
images\S8_M_S_01.png,images\S8_M_S_01_scrambled.png,8,sad,-10,male,3,,346,on,2,0.5,0.75,0.5,0.773,3,345,2,1,1,2,2,32,128,163,,,,,,0,123,123,123,,,,,,,,,,,,,,,,,,,,,,,,,,,,,,,,,,,,,,,,,,,,,,,,,,,,,,,,,720.7392027000005,721.2419673999993,721.2419673999993,721.9915982000002,721.9915982000002,722.4914735000002,722.4914735000002,723.2690117000002,723.2690117000002,None,num_6,0.36987060000137717,723.2690117000002,None,happy,0,Sad,723.652208599999,None,None,723.652208599999,None,,,,,,,,,,,,,,,,,,,,,,,,,,,,,,,,,,,,,,,,,,,,,,,,,,,,,22,001,1,19,450,500,2022_Oct_17_1221,Experiment,2021.1.4,360.004896059338,
images\S8_M_S_02.png,images\S8_M_S_02_scrambled.png,8,sad,-20,male,2,,407,off,1,0.5,0.75,0.5,0.838,3,406,1,2,1,0,0,0,0,2,,,,,,0,124,124,124,,,,,,,,,,,,,,,,,,,,,,,,,,,,,,,,,,,,,,,,,,,,,,,,,,,,,,,,,723.7132915999991,724.2187228999992,724.2187228999992,724.9713733999997,724.9713733999997,725.4767209000001,725.4767209000001,726.3180773000004,726.3180773000004,None,num_4,0.4483337000001484,726.3180773000004,None,sad,0,Sad,726.7817878999987,None,None,726.7817878999987,None,,,,,,,,,,,,,,,,,,,,,,,,,,,,,,,,,,,,,,,,,,,,,,,,,,,,,22,001,1,19,450,500,2022_Oct_17_1221,Experiment,2021.1.4,360.004896059338,
images\S7_F_H_01.png,images\S7_F_H_01_scrambled.png,7,happy,10,female,4,,337,on,2,0.5,0.75,0.5,0.939,3,336,1,1,1,2,2,32,128,164,,,,,,0,125,125,125,,,,,,,,,,,,,,,,,,,,,,,,,,,,,,,,,,,,,,,,,,,,,,,,,,,,,,,,,726.8317767999997,727.3316261,727.3316261,728.0842069999999,728.0842069999999,728.5867913999991,728.5867913999991,729.5253854000002,729.5253854000002,None,num_6,0.28922359999887703,729.5253854000002,None,happy,0,Happy,729.8447504999986,None,None,729.8447504999986,None,,,,,,,,,,,,,,,,,,,,,,,,,,,,,,,,,,,,,,,,,,,,,,,,,,,,,22,001,1,19,450,500,2022_Oct_17_1221,Experiment,2021.1.4,360.004896059338,
images\S1_F_S_03.png,images\S1_F_S_03_scrambled.png,1,sad,-30,female,1,,6,off,1,0.5,0.75,0.5,0.871,3,5,1,1,1,0,0,0,0,1,,,,,,0,126,126,126,,,,,,,,,,,,,,,,,,,,,,,,,,,,,,,,,,,,,,,,,,,,,,,,,,,,,,,,,729.9058353,730.4056763000008,730.4056763000008,731.1554976000007,731.1554976000007,731.6581196999996,731.6581196999996,732.5328463999995,732.5328463999995,None,num_4,0.30575039999894216,732.5328463999995,None,sad,0,Sad,732.8661154999983,None,None,732.8661154999983,None,,,,,,,,,,,,,,,,,,,,,,,,,,,,,,,,,,,,,,,,,,,,,,,,,,,,,22,001,1,19,450,500,2022_Oct_17_1221,Experiment,2021.1.4,360.004896059338,
images\S9_F_S_03.png,images\S9_F_S_03_scrambled.png,9,sad,-30,female,1,,594,on,2,0.5,0.75,0.5,0.814,3,593,1,1,2,2,2,32,128,161,,,,,,0,127,127,127,,,,,,,,,,,,,,,,,,,,,,,,,,,,,,,,,,,,,,,,,,,,,,,,,,,,,,,,,732.9188004999996,733.4242075000002,733.4242075000002,734.1768735000005,734.1768735000005,734.6822756000001,734.6822756000001,735.4957716999998,735.4957716999998,None,num_4,0.3105760000016744,735.4957716999998,None,sad,0,Sad,735.8179635999996,None,None,735.8179635999996,None,,,,,,,,,,,,,,,,,,,,,,,,,,,,,,,,,,,,,,,,,,,,,,,,,,,,,22,001,1,19,450,500,2022_Oct_17_1221,Experiment,2021.1.4,360.004896059338,
images\S1_F_H_02.png,images\S1_F_H_02_scrambled.png,1,happy,20,female,5,,62,on,2,0.5,0.75,0.5,0.788,3,61,2,1,1,2,2,32,128,165,,,,,,0,128,128,128,,,,,,,,,,,,,,,,,,,,,,,,,,,,,,,,,,,,,,,,,,,,,,,,,,,,,,,,,735.9289797000001,736.4344110999991,736.4344110999991,737.1870715999994,737.1870715999994,737.6867992000007,737.6867992000007,738.4782360999998,738.4782360999998,None,num_6,0.27235639999889827,738.4782360999998,None,happy,0,Happy,738.7670231000003,None,None,738.7670231000003,None,,,,,,,,,,,,,,,,,,,,,,,,,,,,,,,,,,,,,,,,,,,,,,,,,,,,,22,001,1,19,450,500,2022_Oct_17_1221,Experiment,2021.1.4,360.004896059338,
images\S8_M_H_03.png,images\S8_M_H_03_scrambled.png,8,happy,30,male,6,,405,off,1,0.5,0.75,0.5,0.788,3,404,1,1,1,0,0,0,0,6,,,,,,0,129,129,129,,,,,,,,,,,,,,,,,,,,,,,,,,,,,,,,,,,,,,,,,,,,,,,,,,,,,,,,,738.878068,739.3806946000004,739.3806946000004,740.1304796999993,740.1304796999993,740.6331195999992,740.6331195999992,741.4245332999999,741.4245332999999,None,num_6,0.16625150000072608,741.4245332999999,None,happy,0,Happy,741.6161700999986,None,None,741.6161700999986,None,,,,,,,,,,,,,,,,,,,,,,,,,,,,,,,,,,,,,,,,,,,,,,,,,,,,,22,001,1,19,450,500,2022_Oct_17_1221,Experiment,2021.1.4,360.004896059338,
images\blank.jpg,images\blank.jpg,none,none,none,none,0,,619,on,2,0.5,0.75,0.5,0.922,0,618,1,1,1,3,3,48,192,240,,,,,,0,130,130,130,,,,,,,,,,,,,,,,,,,,,,,,,,,,,,,,,,,,,,,,,,,,,,,,,,,,,,,,,741.7051864000005,742.2076835999997,742.2076835999997,742.9573684999996,742.9573684999996,743.4628279000008,743.4628279000008,744.3875707000007,744.3875707000007,744.3875707000007,None,,744.3875707000007,None,miss,0,,747.3949525000007,None,space,747.3949525000007,None,20.610832899999878,,,,,,,,,,,,,,,,,,,,,,,,,,,,,,,,,,,,,,,,,,,,,,,,,,,,22,001,1,19,450,500,2022_Oct_17_1221,Experiment,2021.1.4,360.004896059338,
images\S4_M_S_02.png,images\S4_M_S_02_scrambled.png,4,sad,-20,male,2,,443,on,2,0.5,0.75,0.5,0.894,3,442,2,1,1,2,2,32,128,162,,,,,,0,131,131,131,,,,,,,,,,,,,,,,,,,,,,,,,,,,,,,,,,,,,,,,,,,,,,,,,,,,,,,,,768.1193703999998,768.6245046000004,768.6245046000004,769.379820099999,769.379820099999,769.8825541000006,769.8825541000006,770.7822897999995,770.7822897999995,None,num_4,0.22411639999882027,770.7822897999995,None,sad,0,Sad,771.0209683000004,None,None,771.0209683000004,None,,,,,,,,,,,,,,,,,,,,,,,,,,,,,,,,,,,,,,,,,,,,,,,,,,,,,22,001,1,19,450,500,2022_Oct_17_1221,Experiment,2021.1.4,360.004896059338,
images\S2_M_H_03.png,images\S2_M_H_03_scrambled.png,2,happy,30,male,6,,369,off,1,0.5,0.75,0.5,0.85,3,368,1,1,1,0,0,0,0,6,,,,,,0,132,132,132,,,,,,,,,,,,,,,,,,,,,,,,,,,,,,,,,,,,,,,,,,,,,,,,,,,,,,,,,771.1292696,771.6318902000003,771.6318902000003,772.3873452000007,772.3873452000007,772.8898518000005,772.8898518000005,773.7424339999998,773.7424339999998,None,num_6,0.5360794000007445,773.7424339999998,None,happy,0,Happy,774.2921827000001,None,None,774.2921827000001,None,,,,,,,,,,,,,,,,,,,,,,,,,,,,,,,,,,,,,,,,,,,,,,,,,,,,,22,001,1,19,450,500,2022_Oct_17_1221,Experiment,2021.1.4,360.004896059338,
images\S6_M_S_01.png,images\S6_M_S_01_scrambled.png,6,sad,-10,male,3,,154,off,1,0.5,0.75,0.5,0.85,3,153,2,1,1,0,0,0,0,3,,,,,,0,133,133,133,,,,,,,,,,,,,,,,,,,,,,,,,,,,,,,,,,,,,,,,,,,,,,,,,,,,,,,,,774.3394081999995,774.8448102999992,774.8448102999992,775.5974301999995,775.5974301999995,776.1027818000002,776.1027818000002,776.9580444000003,776.9580444000003,None,num_6,0.26419540000097186,776.9580444000003,None,happy,0,Sad,777.2301530999989,None,None,777.2301530999989,None,,,,,,,,,,,,,,,,,,,,,,,,,,,,,,,,,,,,,,,,,,,,,,,,,,,,,22,001,1,19,450,500,2022_Oct_17_1221,Experiment,2021.1.4,360.004896059338,
images\S3_F_H_03.png,images\S3_F_H_03_scrambled.png,3,happy,30,female,6,,195,on,2,0.5,0.75,0.5,0.802,3,194,1,1,1,2,2,32,128,166,,,,,,0,134,134,134,,,,,,,,,,,,,,,,,,,,,,,,,,,,,,,,,,,,,,,,,,,,,,,,,,,,,,,,,777.2773803,777.7772454000005,777.7772454000005,778.5298117000002,778.5298117000002,779.0324916999998,779.0324916999998,779.8377555999996,779.8377555999996,None,num_6,0.2733726000005845,779.8377555999996,None,happy,0,Happy,780.1321798999986,None,None,780.1321798999986,None,,,,,,,,,,,,,,,,,,,,,,,,,,,,,,,,,,,,,,,,,,,,,,,,,,,,,22,001,1,19,450,500,2022_Oct_17_1221,Experiment,2021.1.4,360.004896059338,
images\S6_M_S_02.png,images\S6_M_S_02_scrambled.png,6,sad,-20,male,2,,275,off,1,0.5,0.75,0.5,0.814,3,274,1,1,1,0,0,0,0,2,,,,,,0,135,135,135,,,,,,,,,,,,,,,,,,,,,,,,,,,,,,,,,,,,,,,,,,,,,,,,,,,,,,,,,780.1820427999992,780.6875421000004,780.6875421000004,781.4428074999996,781.4428074999996,781.9481914000007,781.9481914000007,782.7674547999995,782.7674547999995,None,num_4,0.22295459999986633,782.7674547999995,None,sad,0,Sad,783.0033945999995,None,None,783.0033945999995,None,,,,,,,,,,,,,,,,,,,,,,,,,,,,,,,,,,,,,,,,,,,,,,,,,,,,,22,001,1,19,450,500,2022_Oct_17_1221,Experiment,2021.1.4,360.004896059338,
images\S3_F_S_03.png,images\S3_F_S_03_scrambled.png,3,sad,-30,female,1,,318,on,2,0.5,0.75,0.5,0.911,3,317,1,1,1,2,2,32,128,161,,,,,,0,136,136,136,,,,,,,,,,,,,,,,,,,,,,,,,,,,,,,,,,,,,,,,,,,,,,,,,,,,,,,,,783.0867151000002,783.5865460999994,783.5865460999994,784.3420009999991,784.3420009999991,784.8417372000004,784.8417372000004,785.7581444000007,785.7581444000007,None,num_4,0.3609777999990911,785.7581444000007,None,sad,0,Sad,786.144286799999,None,None,786.144286799999,None,,,,,,,,,,,,,,,,,,,,,,,,,,,,,,,,,,,,,,,,,,,,,,,,,,,,,22,001,1,19,450,500,2022_Oct_17_1221,Experiment,2021.1.4,360.004896059338,
images\S9_F_S_03.png,images\S9_F_S_03_scrambled.png,9,sad,-30,female,1,,354,on,2,0.5,0.75,0.5,0.853,3,353,2,1,2,2,2,32,128,161,,,,,,0,137,137,137,,,,,,,,,,,,,,,,,,,,,,,,,,,,,,,,,,,,,,,,,,,,,,,,,,,,,,,,,786.1968579000004,786.6994967999999,786.6994967999999,787.4521681999995,787.4521681999995,787.9546687000002,787.9546687000002,788.8127643000007,788.8127643000007,None,num_4,0.17033489999994345,788.8127643000007,None,sad,0,Sad,788.9933973999988,None,None,788.9933973999988,None,,,,,,,,,,,,,,,,,,,,,,,,,,,,,,,,,,,,,,,,,,,,,,,,,,,,,22,001,1,19,450,500,2022_Oct_17_1221,Experiment,2021.1.4,360.004896059338,
images\S9_F_H_01.png,images\S9_F_H_01_scrambled.png,9,happy,10,female,4,,289,off,1,0.5,0.75,0.5,0.875,3,288,1,2,1,0,0,0,0,4,,,,,,0,138,138,138,,,,,,,,,,,,,,,,,,,,,,,,,,,,,,,,,,,,,,,,,,,,,,,,,,,,,,,,,789.1042983000007,789.6096957999998,789.6096957999998,790.3623657000007,790.3623657000007,790.8648849000001,790.8648849000001,791.7451610999997,791.7451610999997,None,num_6,0.2772765999998228,791.7451610999997,None,happy,0,Happy,792.0367201,None,None,792.0367201,None,,,,,,,,,,,,,,,,,,,,,,,,,,,,,,,,,,,,,,,,,,,,,,,,,,,,,22,001,1,19,450,500,2022_Oct_17_1221,Experiment,2021.1.4,360.004896059338,
images\S8_M_H_01.png,images\S8_M_H_01_scrambled.png,8,happy,10,male,4,,343,on,2,0.5,0.75,0.5,0.844,3,342,1,1,2,2,2,32,128,164,,,,,,0,139,139,139,,,,,,,,,,,,,,,,,,,,,,,,,,,,,,,,,,,,,,,,,,,,,,,,,,,,,,,,,792.0839371000002,792.5837919999994,792.5837919999994,793.3391367999993,793.3391367999993,793.8389666999992,793.8389666999992,794.6887253999994,794.6887253999994,None,num_6,0.22210350000023027,794.6887253999994,None,happy,0,Happy,794.930398199999,None,None,794.930398199999,None,,,,,,,,,,,,,,,,,,,,,,,,,,,,,,,,,,,,,,,,,,,,,,,,,,,,,22,001,1,19,450,500,2022_Oct_17_1221,Experiment,2021.1.4,360.004896059338,
