image_face,image_scram,avatar,emo,emotion,sex,trigeeg,dac,trial_no,NMES,stimtime,baseline,iti,face,scr_face,resp_time,index,count_NMES,count_avatar,count_emotion,dac1,dac2,dac1_output,dac2_output,trigs_out,nmes,practice_trials.thisRepN,practice_trials.thisTrialN,practice_trials.thisN,practice_trials.thisIndex,real_trials.thisRepN,real_trials.thisTrialN,real_trials.thisN,real_trials.thisIndex,trials.thisRepN,trials.thisTrialN,trials.thisN,trials.thisIndex,position,Welcome.started,Welcome.stopped,Welcome_resp.keys,Welcome_resp.rt,text_2.started,text_2.stopped,form_2.index,form_2.itemText,form_2.type,form_2.response,form_2.rt,key_resp_4.keys,key_resp_4.rt,key_resp_4.started,key_resp_4.stopped,instructions.started,instructions.stopped,end_instr.keys,end_instr.rt,instructions_2.started,instructions_2.stopped,end_instr_2.keys,end_instr_2.rt,end_instr_2.started,end_instr_2.stopped,instruct_keypress.started,instruct_keypress.stopped,end_instruct_keypress.keys,end_instruct_keypress.rt,start_practice.started,start_practice.stopped,start_practice_resp.keys,start_practice_resp.rt,prac_baseline.started,prac_baseline.stopped,prac_iti.started,prac_iti.stopped,prac_stimulus.started,prac_stimulus.stopped,prac_scram_stim.started,prac_scram_stim.stopped,prac_stimulus_resp.started,prac_stimulus_resp.stopped,prac_resp.keys,prac_resp.rt,prac_resp.started,prac_resp.stopped,transition_to_real.started,transition_to_real.stopped,end_transition_to_real.keys,end_transition_to_real.rt,fixation_cross.started,fixation_cross.stopped,tr_iti.started,tr_iti.stopped,stimulus.started,stimulus.stopped,scram_stim.started,scram_stim.stopped,response_txt.started,response_txt.stopped,response.keys,response.rt,response.started,response.stopped,participant_Resp,grouping,corAnswer,break_msg.started,break_msg.stopped,end_break.keys,end_break.started,end_break.stopped,end_break.rt,text.started,text.stopped,key_resp_3.keys,key_resp_3.rt,key_resp_3.started,key_resp_3.stopped,fix_cross_comf.started,fix_cross_comf.stopped,stimulation_comf.started,stimulation_comf.stopped,rate_instr.started,rate_instr.stopped,comfort_rating.response,comfort_rating.rt,comfort_rating.started,comfort_rating.stopped,resp_form.keys,resp_form.rt,resp_form.started,resp_form.stopped,survey_instructions.started,survey_instructions.stopped,key_resp_2.keys,key_resp_2.rt,key_resp_2.started,key_resp_2.stopped,form.index,form.itemText,form.type,form.response,form.rt,key_resp.keys,key_resp.rt,key_resp.started,key_resp.stopped,text_3.started,text_3.stopped,rate_smile.response,rate_smile.rt,rate_smile.started,rate_smile.stopped,key_resp_5.keys,key_resp_5.rt,key_resp_5.started,key_resp_5.stopped,end_msg.started,end_msg.stopped,end_resp.keys,end_resp.rt,end_resp.started,end_resp.stopped,participant,session,gender,age,LEFT,RIGHT,date,expName,psychopyVersion,frameRate,
,,,,,,,,,,,,,,,,,,,,,,,,,,,,,,,,,,,,,,H-S,56.94600360000004,None,num_add,11.221235200000592,,,,,,,,,,,,,,,,,,,,,,,,,,,,,,,,,,,,,,,,,,,,,,,,,,,,,,,,,,,,,,,,,,,,,,,,,,,,,,,,,,,,,,,,,,,,,,,,,,,,,,,,,,,,,,,,,,,,,,,,,,23,001,0,27,400,425,2022_Oct_17_1427,Experiment,2021.1.4,360.40841483647597,
,,,,,,,,,,,,,,,,,,,,,,,,,,,,,,,,,,,,,,,,,,,68.17408710000018,70.22069040000133,1,"This scale consistes of a number of words that describe different feelings and emotion. Read each item and then list the number from the scale below each word. Indicate (by clicking) to what extend you feel this way RIGHT NOW, that is, AT THE PRESENT MOMENT.",description,,,,,,,,,,,,,,,,,,,,,,,,,,,,,,,,,,,,,,,,,,,,,,,,,,,,,,,,,,,,,,,,,,,,,,,,,,,,,,,,,,,,,,,,,,,,,,,,,,,,,,,,,,,,,,,,,,,,,23,001,0,27,400,425,2022_Oct_17_1427,Experiment,2021.1.4,360.40841483647597,
,,,,,,,,,,,,,,,,,,,,,,,,,,,,,,,,,,,,,,,,,,,,,2,Interested,rating,4.0,18.358002100001613,,,,,,,,,,,,,,,,,,,,,,,,,,,,,,,,,,,,,,,,,,,,,,,,,,,,,,,,,,,,,,,,,,,,,,,,,,,,,,,,,,,,,,,,,,,,,,,,,,,,,,,,,,,,,,,,,,,23,001,0,27,400,425,2022_Oct_17_1427,Experiment,2021.1.4,360.40841483647597,
,,,,,,,,,,,,,,,,,,,,,,,,,,,,,,,,,,,,,,,,,,,,,3,Distressed,rating,2.0,21.11002720000033,,,,,,,,,,,,,,,,,,,,,,,,,,,,,,,,,,,,,,,,,,,,,,,,,,,,,,,,,,,,,,,,,,,,,,,,,,,,,,,,,,,,,,,,,,,,,,,,,,,,,,,,,,,,,,,,,,,23,001,0,27,400,425,2022_Oct_17_1427,Experiment,2021.1.4,360.40841483647597,
,,,,,,,,,,,,,,,,,,,,,,,,,,,,,,,,,,,,,,,,,,,,,4,Excited,rating,2.0,24.898886299999504,,,,,,,,,,,,,,,,,,,,,,,,,,,,,,,,,,,,,,,,,,,,,,,,,,,,,,,,,,,,,,,,,,,,,,,,,,,,,,,,,,,,,,,,,,,,,,,,,,,,,,,,,,,,,,,,,,,23,001,0,27,400,425,2022_Oct_17_1427,Experiment,2021.1.4,360.40841483647597,
,,,,,,,,,,,,,,,,,,,,,,,,,,,,,,,,,,,,,,,,,,,,,5,Upset,rating,1.0,29.247067000000243,,,,,,,,,,,,,,,,,,,,,,,,,,,,,,,,,,,,,,,,,,,,,,,,,,,,,,,,,,,,,,,,,,,,,,,,,,,,,,,,,,,,,,,,,,,,,,,,,,,,,,,,,,,,,,,,,,,23,001,0,27,400,425,2022_Oct_17_1427,Experiment,2021.1.4,360.40841483647597,
,,,,,,,,,,,,,,,,,,,,,,,,,,,,,,,,,,,,,,,,,,,,,6,Strong,rating,2.0,37.89057270000012,,,,,,,,,,,,,,,,,,,,,,,,,,,,,,,,,,,,,,,,,,,,,,,,,,,,,,,,,,,,,,,,,,,,,,,,,,,,,,,,,,,,,,,,,,,,,,,,,,,,,,,,,,,,,,,,,,,23,001,0,27,400,425,2022_Oct_17_1427,Experiment,2021.1.4,360.40841483647597,
,,,,,,,,,,,,,,,,,,,,,,,,,,,,,,,,,,,,,,,,,,,,,7,Guilty,rating,1.0,12.97692879999886,,,,,,,,,,,,,,,,,,,,,,,,,,,,,,,,,,,,,,,,,,,,,,,,,,,,,,,,,,,,,,,,,,,,,,,,,,,,,,,,,,,,,,,,,,,,,,,,,,,,,,,,,,,,,,,,,,,23,001,0,27,400,425,2022_Oct_17_1427,Experiment,2021.1.4,360.40841483647597,
,,,,,,,,,,,,,,,,,,,,,,,,,,,,,,,,,,,,,,,,,,,,,8,Scared,rating,1.0,14.42111709999881,,,,,,,,,,,,,,,,,,,,,,,,,,,,,,,,,,,,,,,,,,,,,,,,,,,,,,,,,,,,,,,,,,,,,,,,,,,,,,,,,,,,,,,,,,,,,,,,,,,,,,,,,,,,,,,,,,,23,001,0,27,400,425,2022_Oct_17_1427,Experiment,2021.1.4,360.40841483647597,
,,,,,,,,,,,,,,,,,,,,,,,,,,,,,,,,,,,,,,,,,,,,,9,Hostile,rating,1.0,16.36665819999871,,,,,,,,,,,,,,,,,,,,,,,,,,,,,,,,,,,,,,,,,,,,,,,,,,,,,,,,,,,,,,,,,,,,,,,,,,,,,,,,,,,,,,,,,,,,,,,,,,,,,,,,,,,,,,,,,,,23,001,0,27,400,425,2022_Oct_17_1427,Experiment,2021.1.4,360.40841483647597,
,,,,,,,,,,,,,,,,,,,,,,,,,,,,,,,,,,,,,,,,,,,,,10,Enthusiastic,rating,3.0,6.540787100000671,,,,,,,,,,,,,,,,,,,,,,,,,,,,,,,,,,,,,,,,,,,,,,,,,,,,,,,,,,,,,,,,,,,,,,,,,,,,,,,,,,,,,,,,,,,,,,,,,,,,,,,,,,,,,,,,,,,23,001,0,27,400,425,2022_Oct_17_1427,Experiment,2021.1.4,360.40841483647597,
,,,,,,,,,,,,,,,,,,,,,,,,,,,,,,,,,,,,,,,,,,,,,11,Proud,rating,1.0,7.115869299999758,,,,,,,,,,,,,,,,,,,,,,,,,,,,,,,,,,,,,,,,,,,,,,,,,,,,,,,,,,,,,,,,,,,,,,,,,,,,,,,,,,,,,,,,,,,,,,,,,,,,,,,,,,,,,,,,,,,23,001,0,27,400,425,2022_Oct_17_1427,Experiment,2021.1.4,360.40841483647597,
,,,,,,,,,,,,,,,,,,,,,,,,,,,,,,,,,,,,,,,,,,,,,12,Irritable,rating,1.0,6.575725200000306,,,,,,,,,,,,,,,,,,,,,,,,,,,,,,,,,,,,,,,,,,,,,,,,,,,,,,,,,,,,,,,,,,,,,,,,,,,,,,,,,,,,,,,,,,,,,,,,,,,,,,,,,,,,,,,,,,,23,001,0,27,400,425,2022_Oct_17_1427,Experiment,2021.1.4,360.40841483647597,
,,,,,,,,,,,,,,,,,,,,,,,,,,,,,,,,,,,,,,,,,,,,,13,Alert,rating,4.0,7.08805669999856,,,,,,,,,,,,,,,,,,,,,,,,,,,,,,,,,,,,,,,,,,,,,,,,,,,,,,,,,,,,,,,,,,,,,,,,,,,,,,,,,,,,,,,,,,,,,,,,,,,,,,,,,,,,,,,,,,,23,001,0,27,400,425,2022_Oct_17_1427,Experiment,2021.1.4,360.40841483647597,
,,,,,,,,,,,,,,,,,,,,,,,,,,,,,,,,,,,,,,,,,,,,,14,Ashamed,rating,1.0,6.727625999999873,,,,,,,,,,,,,,,,,,,,,,,,,,,,,,,,,,,,,,,,,,,,,,,,,,,,,,,,,,,,,,,,,,,,,,,,,,,,,,,,,,,,,,,,,,,,,,,,,,,,,,,,,,,,,,,,,,,23,001,0,27,400,425,2022_Oct_17_1427,Experiment,2021.1.4,360.40841483647597,
,,,,,,,,,,,,,,,,,,,,,,,,,,,,,,,,,,,,,,,,,,,,,15,Inspired,rating,1.0,7.3020819000012125,,,,,,,,,,,,,,,,,,,,,,,,,,,,,,,,,,,,,,,,,,,,,,,,,,,,,,,,,,,,,,,,,,,,,,,,,,,,,,,,,,,,,,,,,,,,,,,,,,,,,,,,,,,,,,,,,,,23,001,0,27,400,425,2022_Oct_17_1427,Experiment,2021.1.4,360.40841483647597,
,,,,,,,,,,,,,,,,,,,,,,,,,,,,,,,,,,,,,,,,,,,,,16,Nervous,rating,4.0,6.004686099999162,,,,,,,,,,,,,,,,,,,,,,,,,,,,,,,,,,,,,,,,,,,,,,,,,,,,,,,,,,,,,,,,,,,,,,,,,,,,,,,,,,,,,,,,,,,,,,,,,,,,,,,,,,,,,,,,,,,23,001,0,27,400,425,2022_Oct_17_1427,Experiment,2021.1.4,360.40841483647597,
,,,,,,,,,,,,,,,,,,,,,,,,,,,,,,,,,,,,,,,,,,,,,17,Determined,rating,2.0,8.293799600000057,,,,,,,,,,,,,,,,,,,,,,,,,,,,,,,,,,,,,,,,,,,,,,,,,,,,,,,,,,,,,,,,,,,,,,,,,,,,,,,,,,,,,,,,,,,,,,,,,,,,,,,,,,,,,,,,,,,23,001,0,27,400,425,2022_Oct_17_1427,Experiment,2021.1.4,360.40841483647597,
,,,,,,,,,,,,,,,,,,,,,,,,,,,,,,,,,,,,,,,,,,,,,18,Attentive,rating,4.0,13.21053690000008,,,,,,,,,,,,,,,,,,,,,,,,,,,,,,,,,,,,,,,,,,,,,,,,,,,,,,,,,,,,,,,,,,,,,,,,,,,,,,,,,,,,,,,,,,,,,,,,,,,,,,,,,,,,,,,,,,,23,001,0,27,400,425,2022_Oct_17_1427,Experiment,2021.1.4,360.40841483647597,
,,,,,,,,,,,,,,,,,,,,,,,,,,,,,,,,,,,,,,,,,,,,,19,Jittery,rating,3.0,12.799814300000435,,,,,,,,,,,,,,,,,,,,,,,,,,,,,,,,,,,,,,,,,,,,,,,,,,,,,,,,,,,,,,,,,,,,,,,,,,,,,,,,,,,,,,,,,,,,,,,,,,,,,,,,,,,,,,,,,,,23,001,0,27,400,425,2022_Oct_17_1427,Experiment,2021.1.4,360.40841483647597,
,,,,,,,,,,,,,,,,,,,,,,,,,,,,,,,,,,,,,,,,,,,,,20,Active,rating,3.0,10.801286099998833,,,,,,,,,,,,,,,,,,,,,,,,,,,,,,,,,,,,,,,,,,,,,,,,,,,,,,,,,,,,,,,,,,,,,,,,,,,,,,,,,,,,,,,,,,,,,,,,,,,,,,,,,,,,,,,,,,,23,001,0,27,400,425,2022_Oct_17_1427,Experiment,2021.1.4,360.40841483647597,
,,,,,,,,,,,,,,,,,,,,,,,,,,,,,,,,,,,,,,,,,,,,,21,Afraid,rating,1.0,10.94574079999984,,,,,,,,,,,,,,,,,,,,,,,,,,,,,,,,,,,,,,,,,,,,,,,,,,,,,,,,,,,,,,,,,,,,,,,,,,,,,,,,,,,,,,,,,,,,,,,,,,,,,,,,,,,,,,,,,,,23,001,0,27,400,425,2022_Oct_17_1427,Experiment,2021.1.4,360.40841483647597,
,,,,,,,,,,,,,,,,,,,,,,,,,,,,,,,,,,,,,,,,,,,,,22,Press the + button to submit your answers,description,,,,,,,,,,,,,,,,,,,,,,,,,,,,,,,,,,,,,,,,,,,,,,,,,,,,,,,,,,,,,,,,,,,,,,,,,,,,,,,,,,,,,,,,,,,,,,,,,,,,,,,,,,,,,,,,,,,,,23,001,0,27,400,425,2022_Oct_17_1427,Experiment,2021.1.4,360.40841483647597,
,,,,,,,,,,,,,,,,,,,,,,,,,,,,,,,,,,,,,,,,,,,,,,,,,,num_add,74.24253549999958,78.21267310000076,None,,,,,,,,,,,,,,,,,,,,,,,,,,,,,,,,,,,,,,,,,,,,,,,,,,,,,,,,,,,,,,,,,,,,,,,,,,,,,,,,,,,,,,,,,,,,,,,,,,,,,,,,,,,,,,,23,001,0,27,400,425,2022_Oct_17_1427,Experiment,2021.1.4,360.40841483647597,
,,,,,,,,,,,,,,,,,,,,,,,,,,,,,,,,,,,,,,,,,,,,,,,,,,,,,,152.46484540000165,None,num_add,14.326367199999368,,,,,,,,,,,,,,,,,,,,,,,,,,,,,,,,,,,,,,,,,,,,,,,,,,,,,,,,,,,,,,,,,,,,,,,,,,,,,,,,,,,,,,,,,,,,,,,,,,,,,,,,,,,23,001,0,27,400,425,2022_Oct_17_1427,Experiment,2021.1.4,360.40841483647597,
,,,,,,,,,,,,,,,,,,,,,,,,,,,,,,,,,,,,,,,,,,,,,,,,,,,,,,,,,,166.7993406000005,None,num_add,12.639850999999908,166.7993406000005,None,,,,,,,,,,,,,,,,,,,,,,,,,,,,,,,,,,,,,,,,,,,,,,,,,,,,,,,,,,,,,,,,,,,,,,,,,,,,,,,,,,,,,,,,,,,,,,,,,,,,,23,001,0,27,400,425,2022_Oct_17_1427,Experiment,2021.1.4,360.40841483647597,
,,,,,,,,,,,,,,,,,,,,,,,,,,,,,,,,,,,,,,,,,,,,,,,,,,,,,,,,,,,,,,,,179.45933420000074,None,num_add,6.4121081000012055,,,,,,,,,,,,,,,,,,,,,,,,,,,,,,,,,,,,,,,,,,,,,,,,,,,,,,,,,,,,,,,,,,,,,,,,,,,,,,,,,,,,,,,,,,,,,,,,,23,001,0,27,400,425,2022_Oct_17_1427,Experiment,2021.1.4,360.40841483647597,
,,,,,,,,,,,,,,,,,,,,,,,,,,,,,,,,,,,,,,,,,,,,,,,,,,,,,,,,,,,,,,,,,,,,185.8823637000005,None,space,49.97274119999929,,,,,,,,,,,,,,,,,,,,,,,,,,,,,,,,,,,,,,,,,,,,,,,,,,,,,,,,,,,,,,,,,,,,,,,,,,,,,,,,,,,,,,,,,,,,,23,001,0,27,400,425,2022_Oct_17_1427,Experiment,2021.1.4,360.40841483647597,
images\S22_M_S_02.png,images\S22_M_S_02_scrambled.png,22,Sad,0.2,M,0,0,practice,off,1,0.5,0.75,0.5,0.751,3,,,,,,,,,,,0,0,0,3,,,,,,,,,,,,,,,,,,,,,,,,,,,,,,,,,,,,,,,,,,,235.9864065999991,236.4918087999995,236.4918087999995,237.24438539999937,237.24438539999937,237.74979340000027,237.74979340000027,238.50507560000005,238.50507560000005,None,num_4,1.1027622999972664,238.50507560000005,None,,,,,,,,,,,,,,,,,,,,,,,,,,,,,,,,,,,,,,,,,,,,,,,,,,,,,,,,,,,,,,,,,,,,,,,,,,,,,,,23,001,0,27,400,425,2022_Oct_17_1427,Experiment,2021.1.4,360.40841483647597,
images\S22_M_H_02.png,images\S22_M_H_02_scrambled.png,22,Happy,-0.2,M,0,0,practice,off,1,0.5,0.75,0.5,0.883,3,,,,,,,,,,,0,1,1,2,,,,,,,,,,,,,,,,,,,,,,,,,,,,,,,,,,,,,,,,,,,239.66304950000085,240.16289250000227,240.16289250000227,240.9126739000003,240.9126739000003,241.41254909999952,241.41254909999952,242.2984830000005,242.2984830000005,None,num_6,0.3733857999977772,242.2984830000005,None,,,,,,,,,,,,,,,,,,,,,,,,,,,,,,,,,,,,,,,,,,,,,,,,,,,,,,,,,,,,,,,,,,,,,,,,,,,,,,,23,001,0,27,400,425,2022_Oct_17_1427,Experiment,2021.1.4,360.40841483647597,
images\S22_M_S_03.png,images\S22_M_S_03_scrambled.png,22,Sad,0.3,M,0,0,practice,on,2,0.5,0.75,0.5,0.87,3,,,,,,,,,,,0,2,2,4,,,,,,,,,,,,,,,,,,,,,,,,,,,,,,,,,,,,,,,,,,,242.73153099999945,243.23422759999994,243.23422759999994,243.98954060000142,243.98954060000142,244.49212520000037,244.49212520000037,245.36407200000212,245.36407200000212,None,num_6,0.17193099999713013,245.36407200000212,None,,,,,,,,,,,,,,,,,,,,,,,,,,,,,,,,,,,,,,,,,,,,,,,,,,,,,,,,,,,,,,,,,,,,,,,,,,,,,,,23,001,0,27,400,425,2022_Oct_17_1427,Experiment,2021.1.4,360.40841483647597,
images\S21_F_H_02.png,images\S21_F_H_02_scrambled.png,21,Happy,-0.2,F,0,0,practice,off,1,0.5,0.75,0.5,0.91,3,,,,,,,,,,,0,3,3,1,,,,,,,,,,,,,,,,,,,,,,,,,,,,,,,,,,,,,,,,,,,245.60566619999918,246.10828589999983,246.10828589999983,246.85806419999972,246.85806419999972,247.3635904999992,247.3635904999992,248.2798884999993,248.2798884999993,None,num_4,0.09580329999880632,248.2798884999993,None,,,,,,,,,,,,,,,,,,,,,,,,,,,,,,,,,,,,,,,,,,,,,,,,,,,,,,,,,,,,,,,,,,,,,,,,,,,,,,,23,001,0,27,400,425,2022_Oct_17_1427,Experiment,2021.1.4,360.40841483647597,
images\S22_M_S_03.png,images\S22_M_S_03_scrambled.png,22,Sad,0.3,M,0,0,practice,on,2,0.5,0.75,0.5,0.794,3,,,,,,,,,,,0,4,4,7,,,,,,,,,,,,,,,,,,,,,,,,,,,,,,,,,,,,,,,,,,,248.4325743999998,248.93522789999952,248.93522789999952,249.69055520000074,249.69055520000074,250.19327480000175,250.19327480000175,250.987341500002,250.987341500002,None,num_6,1.0925500999983342,250.987341500002,None,,,,,,,,,,,,,,,,,,,,,,,,,,,,,,,,,,,,,,,,,,,,,,,,,,,,,,,,,,,,,,,,,,,,,,,,,,,,,,,23,001,0,27,400,425,2022_Oct_17_1427,Experiment,2021.1.4,360.40841483647597,
images\S21_F_H_01.png,images\S21_F_H_01_scrambled.png,21,Happy,-0.1,F,0,0,practice,off,1,0.5,0.75,0.5,0.853,3,,,,,,,,,,,0,5,5,0,,,,,,,,,,,,,,,,,,,,,,,,,,,,,,,,,,,,,,,,,,,252.1314394000019,252.6340583000001,252.6340583000001,253.38385559999915,253.38385559999915,253.88928459999988,253.88928459999988,254.74742829999923,254.74742829999923,None,num_4,0.3802765000000363,254.74742829999923,None,,,,,,,,,,,,,,,,,,,,,,,,,,,,,,,,,,,,,,,,,,,,,,,,,,,,,,,,,,,,,,,,,,,,,,,,,,,,,,,23,001,0,27,400,425,2022_Oct_17_1427,Experiment,2021.1.4,360.40841483647597,
images\S22_M_S_01.png,images\S22_M_S_01_scrambled.png,22,Sad,0.1,M,0,0,practice,on,2,0.5,0.75,0.5,0.867,3,,,,,,,,,,,0,6,6,5,,,,,,,,,,,,,,,,,,,,,,,,,,,,,,,,,,,,,,,,,,,255.1832775999992,255.6859026000002,255.6859026000002,256.43846660000236,256.43846660000236,256.94106080000165,256.94106080000165,257.8102435000019,257.8102435000019,None,num_6,0.4214224999996077,257.8102435000019,None,,,,,,,,,,,,,,,,,,,,,,,,,,,,,,,,,,,,,,,,,,,,,,,,,,,,,,,,,,,,,,,,,,,,,,,,,,,,,,,23,001,0,27,400,425,2022_Oct_17_1427,Experiment,2021.1.4,360.40841483647597,
images\S22_M_S_02.png,images\S22_M_S_02_scrambled.png,22,Sad,0.2,M,0,0,practice,on,2,0.5,0.75,0.5,0.783,3,,,,,,,,,,,0,7,7,6,,,,,,,,,,,,,,,,,,,,,,,,,,,,,,,,,,,,,,,,,,,258.2851004999993,258.7877521999999,258.7877521999999,259.5374912000025,259.5374912000025,260.04302650000136,260.04302650000136,260.8289031000004,260.8289031000004,None,num_6,0.3707546000005095,260.8289031000004,None,,,,,,,,,,,,,,,,,,,,,,,,,,,,,,,,,,,,,,,,,,,,,,,,,,,,,,,,,,,,,,,,,,,,,,,,,,,,,,,23,001,0,27,400,425,2022_Oct_17_1427,Experiment,2021.1.4,360.40841483647597,
,,,,,,,,,,,,,,,,,,,,,,,,,,,,,,,,,,,,,,,,,,,,,,,,,,,,,,,,,,,,,,,,,,,,,,,,,,,,,,,,,,,,,,261.23142259999986,None,space,30.103792399997474,,,,,,,,,,,,,,,,,,,,,,,,,,,,,,,,,,,,,,,,,,,,,,,,,,,,,,,,,,,,,,,,,,,,,,,,,,,23,001,0,27,400,425,2022_Oct_17_1427,Experiment,2021.1.4,360.40841483647597,
images\S8_M_H_03.png,images\S8_M_H_03_scrambled.png,8,happy,30,male,6,,225,on,2,0.5,0.75,0.5,0.847,3,224,1,1,1,2,2,32,128,166,,,,,,0,0,0,0,,,,,,,,,,,,,,,,,,,,,,,,,,,,,,,,,,,,,,,,,,,,,,,,,,,,,,,,,291.83035460000065,292.3330776999992,292.3330776999992,293.08552280000185,293.08552280000185,293.5882576999993,293.5882576999993,294.44072720000077,294.44072720000077,None,num_4,0.34311109999907785,294.44072720000077,None,happy,1,Happy,294.82119239000167,None,None,294.82119239000167,None,,,,,,,,,,,,,,,,,,,,,,,,,,,,,,,,,,,,,,,,,,,,,,,,,,,,,23,001,0,27,400,425,2022_Oct_17_1427,Experiment,2021.1.4,360.40841483647597,
images\S5_F_H_01.png,images\S5_F_H_01_scrambled.png,5,happy,10,female,4,,145,off,1,0.5,0.75,0.5,0.833,3,144,1,1,1,0,0,0,0,4,,,,,,0,1,1,1,,,,,,,,,,,,,,,,,,,,,,,,,,,,,,,,,,,,,,,,,,,,,,,,,,,,,,,,,294.87386140000126,295.37648680000166,295.37648680000166,296.12908680000146,296.12908680000146,296.63446120000117,296.63446120000117,297.4703057000024,297.4703057000024,None,num_4,0.3136278999991191,297.4703057000024,None,happy,1,Happy,297.79798266000034,None,None,297.79798266000034,None,,,,,,,,,,,,,,,,,,,,,,,,,,,,,,,,,,,,,,,,,,,,,,,,,,,,,23,001,0,27,400,425,2022_Oct_17_1427,Experiment,2021.1.4,360.40841483647597,
images\S10_M_H_01.png,images\S10_M_H_01_scrambled.png,10,happy,10,male,4,,295,off,1,0.5,0.75,0.5,0.856,3,294,2,1,2,0,0,0,0,4,,,,,,0,2,2,2,,,,,,,,,,,,,,,,,,,,,,,,,,,,,,,,,,,,,,,,,,,,,,,,,,,,,,,,,297.8451603000012,298.34793589999936,298.34793589999936,299.09759680000025,299.09759680000025,299.6001879000014,299.6001879000014,300.45837349999965,300.45837349999965,None,num_4,0.3975069000007352,300.45837349999965,None,happy,1,Happy,300.8777034200011,None,None,300.8777034200011,None,,,,,,,,,,,,,,,,,,,,,,,,,,,,,,,,,,,,,,,,,,,,,,,,,,,,,23,001,0,27,400,425,2022_Oct_17_1427,Experiment,2021.1.4,360.40841483647597,
images\S7_F_S_02.png,images\S7_F_S_02_scrambled.png,7,sad,-20,female,2,,41,off,1,0.5,0.75,0.5,0.841,3,40,3,1,1,0,0,0,0,2,,,,,,0,3,3,3,,,,,,,,,,,,,,,,,,,,,,,,,,,,,,,,,,,,,,,,,,,,,,,,,,,,,,,,,300.9442125000005,301.44406120000167,301.44406120000167,302.19384940000054,302.19384940000054,302.6937049999997,302.6937049999997,303.5380203000004,303.5380203000004,None,num_6,0.38171149999834597,303.5380203000004,None,sad,1,Sad,303.93498956000076,None,None,303.93498956000076,None,,,,,,,,,,,,,,,,,,,,,,,,,,,,,,,,,,,,,,,,,,,,,,,,,,,,,23,001,0,27,400,425,2022_Oct_17_1427,Experiment,2021.1.4,360.40841483647597,
images\S8_M_S_02.png,images\S8_M_S_02_scrambled.png,8,sad,-20,male,2,,347,on,2,0.5,0.75,0.5,0.884,3,346,1,1,2,2,2,32,128,162,,,,,,0,4,4,4,,,,,,,,,,,,,,,,,,,,,,,,,,,,,,,,,,,,,,,,,,,,,,,,,,,,,,,,,303.98217190000105,304.48479100000077,304.48479100000077,305.24013820000073,305.24013820000073,305.7455310999994,305.7455310999994,306.63418470000215,306.63418470000215,None,num_6,0.5735072999996191,306.63418470000215,None,sad,1,Sad,307.2228410600019,None,None,307.2228410600019,None,,,,,,,,,,,,,,,,,,,,,,,,,,,,,,,,,,,,,,,,,,,,,,,,,,,,,23,001,0,27,400,425,2022_Oct_17_1427,Experiment,2021.1.4,360.40841483647597,
images\S10_M_H_01.png,images\S10_M_H_01_scrambled.png,10,happy,10,male,4,,55,off,1,0.5,0.75,0.5,0.833,3,54,1,1,1,0,0,0,0,4,,,,,,0,5,5,5,,,,,,,,,,,,,,,,,,,,,,,,,,,,,,,,,,,,,,,,,,,,,,,,,,,,,,,,,307.27005050000116,307.7727947000003,307.7727947000003,308.52810950000094,308.52810950000094,309.03348840000217,309.03348840000217,309.8692940000019,309.8692940000019,None,num_4,0.2672175999978208,309.8692940000019,None,happy,1,Happy,310.16101343000264,None,None,310.16101343000264,None,,,,,,,,,,,,,,,,,,,,,,,,,,,,,,,,,,,,,,,,,,,,,,,,,,,,,23,001,0,27,400,425,2022_Oct_17_1427,Experiment,2021.1.4,360.40841483647597,
images\S3_F_H_02.png,images\S3_F_H_02_scrambled.png,3,happy,20,female,5,,134,off,1,0.5,0.75,0.5,0.947,3,133,2,1,1,0,0,0,0,5,,,,,,0,6,6,6,,,,,,,,,,,,,,,,,,,,,,,,,,,,,,,,,,,,,,,,,,,,,,,,,,,,,,,,,310.21358090000103,310.71621140000025,310.71621140000025,311.46882540000115,311.46882540000115,311.97416740000153,311.97416740000153,312.9239552000017,312.9239552000017,None,num_4,0.2997916000022087,312.9239552000017,None,happy,1,Happy,313.23766735999925,None,None,313.23766735999925,None,,,,,,,,,,,,,,,,,,,,,,,,,,,,,,,,,,,,,,,,,,,,,,,,,,,,,23,001,0,27,400,425,2022_Oct_17_1427,Experiment,2021.1.4,360.40841483647597,
images\S8_M_H_03.png,images\S8_M_H_03_scrambled.png,8,happy,30,male,6,,465,on,2,0.5,0.75,0.5,0.876,3,464,1,1,1,2,2,32,128,166,,,,,,0,7,7,7,,,,,,,,,,,,,,,,,,,,,,,,,,,,,,,,,,,,,,,,,,,,,,,,,,,,,,,,,313.2848586000018,313.7847015999996,313.7847015999996,314.5344814,314.5344814,315.03433720000066,315.03433720000066,315.91182800000206,315.91182800000206,None,num_4,0.4798421000014059,315.91182800000206,None,happy,1,Happy,316.4173059099994,None,None,316.4173059099994,None,,,,,,,,,,,,,,,,,,,,,,,,,,,,,,,,,,,,,,,,,,,,,,,,,,,,,23,001,0,27,400,425,2022_Oct_17_1427,Experiment,2021.1.4,360.40841483647597,
images\S3_F_H_03.png,images\S3_F_H_03_scrambled.png,3,happy,30,female,6,,75,on,2,0.5,0.75,0.5,0.865,3,74,2,1,2,2,2,32,128,166,,,,,,0,8,8,8,,,,,,,,,,,,,,,,,,,,,,,,,,,,,,,,,,,,,,,,,,,,,,,,,,,,,,,,,316.46999250000044,316.9726439999995,316.9726439999995,317.7251594999998,317.7251594999998,318.22500860000036,318.22500860000036,319.09422590000213,319.09422590000213,None,num_4,0.8497641000030853,319.09422590000213,None,happy,1,Happy,319.9579177500018,None,None,319.9579177500018,None,,,,,,,,,,,,,,,,,,,,,,,,,,,,,,,,,,,,,,,,,,,,,,,,,,,,,23,001,0,27,400,425,2022_Oct_17_1427,Experiment,2021.1.4,360.40841483647597,
images\S5_F_S_01.png,images\S5_F_S_01_scrambled.png,5,sad,-10,female,3,,28,off,1,0.5,0.75,0.5,0.861,3,27,1,1,1,0,0,0,0,3,,,,,,0,9,9,9,,,,,,,,,,,,,,,,,,,,,,,,,,,,,,,,,,,,,,,,,,,,,,,,,,,,,,,,,320.0050181000024,320.5076305999992,320.5076305999992,321.2602131000003,321.2602131000003,321.7600309999998,321.7600309999998,322.6237373000022,322.6237373000022,None,num_6,0.7120333999991999,322.6237373000022,None,sad,1,Sad,323.35959212000125,None,None,323.35959212000125,None,,,,,,,,,,,,,,,,,,,,,,,,,,,,,,,,,,,,,,,,,,,,,,,,,,,,,23,001,0,27,400,425,2022_Oct_17_1427,Experiment,2021.1.4,360.40841483647597,
images\S1_F_H_02.png,images\S1_F_H_02_scrambled.png,1,happy,20,female,5,,242,off,1,0.5,0.75,0.5,0.802,3,241,2,1,1,0,0,0,0,5,,,,,,0,10,10,10,,,,,,,,,,,,,,,,,,,,,,,,,,,,,,,,,,,,,,,,,,,,,,,,,,,,,,,,,323.4122953999995,323.9149516000016,323.9149516000016,324.6674750000002,324.6674750000002,325.17300160000195,325.17300160000195,325.97830950000025,325.97830950000025,None,num_4,0.6935293999995338,325.97830950000025,None,happy,1,Happy,326.69747301999996,None,None,326.69747301999996,None,,,,,,,,,,,,,,,,,,,,,,,,,,,,,,,,,,,,,,,,,,,,,,,,,,,,,23,001,0,27,400,425,2022_Oct_17_1427,Experiment,2021.1.4,360.40841483647597,
images\S2_M_S_02.png,images\S2_M_S_02_scrambled.png,2,sad,-20,male,2,,431,on,2,0.5,0.75,0.5,0.775,3,430,1,1,1,2,2,32,128,162,,,,,,0,11,11,11,,,,,,,,,,,,,,,,,,,,,,,,,,,,,,,,,,,,,,,,,,,,,,,,,,,,,,,,,326.7528777999996,327.2527895000003,327.2527895000003,328.0053289000007,328.0053289000007,328.51075110000056,328.51075110000056,329.28839329999937,329.28839329999937,None,num_6,0.6312442000016745,329.28839329999937,None,sad,1,Sad,329.9353868599992,None,None,329.9353868599992,None,,,,,,,,,,,,,,,,,,,,,,,,,,,,,,,,,,,,,,,,,,,,,,,,,,,,,23,001,0,27,400,425,2022_Oct_17_1427,Experiment,2021.1.4,360.40841483647597,
images\blank.jpg,images\blank.jpg,none,none,none,none,0,,603,on,2,0.5,0.75,0.5,0.94,0,602,2,1,1,3,3,48,192,240,,,,,,0,12,12,12,,,,,,,,,,,,,,,,,,,,,,,,,,,,,,,,,,,,,,,,,,,,,,,,,,,,,,,,,330.0188337000018,330.5240653000019,330.5240653000019,331.27376820000245,331.27376820000245,331.77640970000175,331.77640970000175,332.71777549999933,332.71777549999933,332.71777549999933,None,,332.71777549999933,None,miss,1,,335.7196940899994,None,None,335.7196940899994,None,,,,,,,,,,,,,,,,,,,,,,,,,,,,,,,,,,,,,,,,,,,,,,,,,,,,,23,001,0,27,400,425,2022_Oct_17_1427,Experiment,2021.1.4,360.40841483647597,
images\S9_F_H_01.png,images\S9_F_H_01_scrambled.png,9,happy,10,female,4,,349,on,2,0.5,0.75,0.5,0.836,3,348,3,1,1,2,2,32,128,164,,,,,,0,13,13,13,,,,,,,,,,,,,,,,,,,,,,,,,,,,,,,,,,,,,,,,,,,,,,,,,,,,,,,,,335.84199869999975,336.3444328000023,336.3444328000023,337.09979869999916,337.09979869999916,337.6051884999997,337.6051884999997,338.4410097000018,338.4410097000018,None,num_4,0.4068580999992264,338.4410097000018,335.84199869999975,happy,1,Happy,338.8743370200009,None,None,338.8743370200009,None,,,,,,,,,,,,,,,,,,,,,,,,,,,,,,,,,,,,,,,,,,,,,,,,,,,,,23,001,0,27,400,425,2022_Oct_17_1427,Experiment,2021.1.4,360.40841483647597,
images\S8_M_S_01.png,images\S8_M_S_01_scrambled.png,8,sad,-10,male,3,,586,on,2,0.5,0.75,0.5,0.788,3,585,4,1,1,2,2,32,128,163,,,,,,0,14,14,14,,,,,,,,,,,,,,,,,,,,,,,,,,,,,,,,,,,,,,,,,,,,,,,,,,,,,,,,,338.9380860000001,339.43792700000085,339.43792700000085,340.19339050000235,340.19339050000235,340.69587330000104,340.69587330000104,341.48732910000217,341.48732910000217,None,num_6,0.4725002000013774,341.48732910000217,None,sad,1,Sad,341.9704977599995,None,None,341.9704977599995,None,,,,,,,,,,,,,,,,,,,,,,,,,,,,,,,,,,,,,,,,,,,,,,,,,,,,,23,001,0,27,400,425,2022_Oct_17_1427,Experiment,2021.1.4,360.40841483647597,
images\S10_M_H_02.png,images\S10_M_H_02_scrambled.png,10,happy,20,male,5,,536,off,1,0.5,0.75,0.5,0.893,3,535,1,1,1,0,0,0,0,5,,,,,,0,15,15,15,,,,,,,,,,,,,,,,,,,,,,,,,,,,,,,,,,,,,,,,,,,,,,,,,,,,,,,,,342.0176924999996,342.52034730000196,342.52034730000196,343.2756578999997,343.2756578999997,343.77827400000206,343.77827400000206,344.67523750000146,344.67523750000146,None,num_4,0.8206177000029129,344.67523750000146,None,happy,1,Happy,345.50830425999993,None,None,345.50830425999993,None,,,,,,,,,,,,,,,,,,,,,,,,,,,,,,,,,,,,,,,,,,,,,,,,,,,,,23,001,0,27,400,425,2022_Oct_17_1427,Experiment,2021.1.4,360.40841483647597,
images\S6_M_H_02.png,images\S6_M_H_02_scrambled.png,6,happy,20,male,5,,92,on,2,0.5,0.75,0.5,0.808,3,91,1,1,2,2,2,32,128,165,,,,,,0,16,16,16,,,,,,,,,,,,,,,,,,,,,,,,,,,,,,,,,,,,,,,,,,,,,,,,,,,,,,,,,345.55550050000056,346.0582348000007,346.0582348000007,346.80788460000076,346.80788460000076,347.3133930000022,347.3133930000022,348.12415780000265,348.12415780000265,None,num_4,0.4118336999999883,348.12415780000265,None,happy,1,Happy,348.55749362000097,None,None,348.55749362000097,None,,,,,,,,,,,,,,,,,,,,,,,,,,,,,,,,,,,,,,,,,,,,,,,,,,,,,23,001,0,27,400,425,2022_Oct_17_1427,Experiment,2021.1.4,360.40841483647597,
images\S9_F_S_03.png,images\S9_F_S_03_scrambled.png,9,sad,-30,female,1,,594,on,2,0.5,0.75,0.5,0.814,3,593,2,1,1,2,2,32,128,161,,,,,,0,17,17,17,,,,,,,,,,,,,,,,,,,,,,,,,,,,,,,,,,,,,,,,,,,,,,,,,,,,,,,,,348.6101122000018,349.1127510000024,349.1127510000024,349.8624854999998,349.8624854999998,350.3651278000016,350.3651278000016,351.18436660000043,351.18436660000043,None,num_6,0.4394940999991377,351.18436660000043,None,sad,1,Sad,351.6342319600026,None,None,351.6342319600026,None,,,,,,,,,,,,,,,,,,,,,,,,,,,,,,,,,,,,,,,,,,,,,,,,,,,,,23,001,0,27,400,425,2022_Oct_17_1427,Experiment,2021.1.4,360.40841483647597,
images\S10_M_H_01.png,images\S10_M_H_01_scrambled.png,10,happy,10,male,4,,535,off,1,0.5,0.75,0.5,0.797,3,534,1,1,1,0,0,0,0,4,,,,,,0,18,18,18,,,,,,,,,,,,,,,,,,,,,,,,,,,,,,,,,,,,,,,,,,,,,,,,,,,,,,,,,351.68138940000244,352.18406920000234,352.18406920000234,352.9366041000012,352.9366041000012,353.43924190000143,353.43924190000143,354.2389905,354.2389905,None,num_4,0.5132470999997167,354.2389905,None,happy,1,Happy,354.7777057200019,None,None,354.7777057200019,None,,,,,,,,,,,,,,,,,,,,,,,,,,,,,,,,,,,,,,,,,,,,,,,,,,,,,23,001,0,27,400,425,2022_Oct_17_1427,Experiment,2021.1.4,360.40841483647597,
images\S4_M_H_01.png,images\S4_M_H_01_scrambled.png,4,happy,10,male,4,,319,on,2,0.5,0.75,0.5,0.788,3,318,1,1,2,2,2,32,128,164,,,,,,0,19,19,19,,,,,,,,,,,,,,,,,,,,,,,,,,,,,,,,,,,,,,,,,,,,,,,,,,,,,,,,,354.8304192000014,355.33318529999997,355.33318529999997,356.08280900000136,356.08280900000136,356.582687600001,356.582687600001,357.37413689999994,357.37413689999994,None,num_6,0.36156710000068415,357.37413689999994,None,sad,1,Happy,357.74345887000163,None,None,357.74345887000163,None,,,,,,,,,,,,,,,,,,,,,,,,,,,,,,,,,,,,,,,,,,,,,,,,,,,,,23,001,0,27,400,425,2022_Oct_17_1427,Experiment,2021.1.4,360.40841483647597,
images\S6_M_H_03.png,images\S6_M_H_03_scrambled.png,6,happy,30,male,6,,213,on,2,0.5,0.75,0.5,0.896,3,212,2,1,1,2,2,32,128,166,,,,,,0,20,20,20,,,,,,,,,,,,,,,,,,,,,,,,,,,,,,,,,,,,,,,,,,,,,,,,,,,,,,,,,357.8100594000007,358.3128183000026,358.3128183000026,359.0652277999998,359.0652277999998,359.57064809999974,359.57064809999974,360.47038150000117,360.47038150000117,None,num_4,0.4334702999985893,360.47038150000117,None,happy,1,Happy,360.9174414600002,None,None,360.9174414600002,None,,,,,,,,,,,,,,,,,,,,,,,,,,,,,,,,,,,,,,,,,,,,,,,,,,,,,23,001,0,27,400,425,2022_Oct_17_1427,Experiment,2021.1.4,360.40841483647597,
images\S5_F_H_02.png,images\S5_F_H_02_scrambled.png,5,happy,20,female,5,,506,off,1,0.5,0.75,0.5,0.899,3,505,1,1,1,0,0,0,0,5,,,,,,0,21,21,21,,,,,,,,,,,,,,,,,,,,,,,,,,,,,,,,,,,,,,,,,,,,,,,,,,,,,,,,,360.9646549000008,361.4672680999993,361.4672680999993,362.21985909999967,362.21985909999967,362.7196648000008,362.7196648000008,363.6249766000019,363.6249766000019,None,num_4,0.7187785000023723,363.6249766000019,None,happy,1,Happy,364.35534866000125,None,None,364.35534866000125,None,,,,,,,,,,,,,,,,,,,,,,,,,,,,,,,,,,,,,,,,,,,,,,,,,,,,,23,001,0,27,400,425,2022_Oct_17_1427,Experiment,2021.1.4,360.40841483647597,
images\S10_M_S_02.png,images\S10_M_S_02_scrambled.png,10,sad,-20,male,2,,119,on,2,0.5,0.75,0.5,0.901,3,118,1,1,1,2,2,32,128,162,,,,,,0,22,22,22,,,,,,,,,,,,,,,,,,,,,,,,,,,,,,,,,,,,,,,,,,,,,,,,,,,,,,,,,364.4024799000017,364.9051305000012,364.9051305000012,365.6576463000001,365.6576463000001,366.1575380000013,366.1575380000013,367.0655764000021,367.0655764000021,None,num_6,0.4062454999984766,367.0655764000021,None,sad,1,Sad,367.48768116000247,None,None,367.48768116000247,None,,,,,,,,,,,,,,,,,,,,,,,,,,,,,,,,,,,,,,,,,,,,,,,,,,,,,23,001,0,27,400,425,2022_Oct_17_1427,Experiment,2021.1.4,360.40841483647597,
images\S4_M_S_01.png,images\S4_M_S_01_scrambled.png,4,sad,-10,male,3,,442,on,2,0.5,0.75,0.5,0.898,3,441,2,1,1,2,2,32,128,163,,,,,,0,23,23,23,,,,,,,,,,,,,,,,,,,,,,,,,,,,,,,,,,,,,,,,,,,,,,,,,,,,,,,,,367.5376305000009,368.0402787000003,368.0402787000003,368.79001860000244,368.79001860000244,369.29276800000116,369.29276800000116,370.19516739999926,370.19516739999926,None,num_4,0.44453019999855314,370.19516739999926,None,happy,1,Sad,370.6478443699998,None,None,370.6478443699998,None,,,,,,,,,,,,,,,,,,,,,,,,,,,,,,,,,,,,,,,,,,,,,,,,,,,,,23,001,0,27,400,425,2022_Oct_17_1427,Experiment,2021.1.4,360.40841483647597,
images\S4_M_H_01.png,images\S4_M_H_01_scrambled.png,4,happy,10,male,4,,559,on,2,0.5,0.75,0.5,0.95,3,558,3,2,1,2,2,32,128,164,,,,,,0,24,24,24,,,,,,,,,,,,,,,,,,,,,,,,,,,,,,,,,,,,,,,,,,,,,,,,,,,,,,,,,370.71441960000266,371.2170535000023,371.2170535000023,371.9696414000009,371.9696414000009,372.4722607999993,372.4722607999993,373.4247450000021,373.4247450000021,None,num_6,0.38286800000059884,373.4247450000021,None,sad,1,Happy,373.8162679800025,None,None,373.8162679800025,None,,,,,,,,,,,,,,,,,,,,,,,,,,,,,,,,,,,,,,,,,,,,,,,,,,,,,23,001,0,27,400,425,2022_Oct_17_1427,Experiment,2021.1.4,360.40841483647597,
images\S10_M_H_02.png,images\S10_M_H_02_scrambled.png,10,happy,20,male,5,,56,off,1,0.5,0.75,0.5,0.898,3,55,1,1,1,0,0,0,0,5,,,,,,0,25,25,25,,,,,,,,,,,,,,,,,,,,,,,,,,,,,,,,,,,,,,,,,,,,,,,,,,,,,,,,,373.8634633999991,374.36894960000245,374.36894960000245,375.12141320000046,375.12141320000046,375.62408400000095,375.62408400000095,376.5293490000022,376.5293490000022,None,num_4,0.5262395999998262,376.5293490000022,None,happy,1,Happy,377.07084095999926,None,None,377.07084095999926,None,,,,,,,,,,,,,,,,,,,,,,,,,,,,,,,,,,,,,,,,,,,,,,,,,,,,,23,001,0,27,400,425,2022_Oct_17_1427,Experiment,2021.1.4,360.40841483647597,
images\S3_F_S_02.png,images\S3_F_S_02_scrambled.png,3,sad,-20,female,2,,437,on,2,0.5,0.75,0.5,0.816,3,436,1,1,1,2,2,32,128,162,,,,,,0,26,26,26,,,,,,,,,,,,,,,,,,,,,,,,,,,,,,,,,,,,,,,,,,,,,,,,,,,,,,,,,377.1180136000021,377.6206507000006,377.6206507000006,378.3731828,378.3731828,378.8787257000022,378.8787257000022,379.69499650000034,379.69499650000034,None,num_6,0.28107859999727225,379.69499650000034,None,sad,1,Sad,379.9978705199992,None,None,379.9978705199992,None,,,,,,,,,,,,,,,,,,,,,,,,,,,,,,,,,,,,,,,,,,,,,,,,,,,,,23,001,0,27,400,425,2022_Oct_17_1427,Experiment,2021.1.4,360.40841483647597,
images\S5_F_S_03.png,images\S5_F_S_03_scrambled.png,5,sad,-30,female,1,,150,off,1,0.5,0.75,0.5,0.826,3,149,1,1,1,0,0,0,0,1,,,,,,0,27,27,27,,,,,,,,,,,,,,,,,,,,,,,,,,,,,,,,,,,,,,,,,,,,,,,,,,,,,,,,,380.05044409999937,380.55586550000044,380.55586550000044,381.30853450000177,381.30853450000177,381.8082494999999,381.8082494999999,382.638684800002,382.638684800002,None,num_4,0.38496589999704156,382.638684800002,None,happy,1,Sad,383.03285338000023,None,None,383.03285338000023,None,,,,,,,,,,,,,,,,,,,,,,,,,,,,,,,,,,,,,,,,,,,,,,,,,,,,,23,001,0,27,400,425,2022_Oct_17_1427,Experiment,2021.1.4,360.40841483647597,
images\S2_M_H_02.png,images\S2_M_H_02_scrambled.png,2,happy,20,male,5,,128,off,1,0.5,0.75,0.5,0.928,3,127,2,1,1,0,0,0,0,5,,,,,,0,28,28,28,,,,,,,,,,,,,,,,,,,,,,,,,,,,,,,,,,,,,,,,,,,,,,,,,,,,,,,,,383.08007499999985,383.5854990000025,383.5854990000025,384.33814090000124,384.33814090000124,384.8435580000023,384.8435580000023,385.77376560000084,385.77376560000084,None,num_4,1.4978916000000027,385.77376560000084,None,happy,1,Happy,387.2871470600021,None,None,387.2871470600021,None,,,,,,,,,,,,,,,,,,,,,,,,,,,,,,,,,,,,,,,,,,,,,,,,,,,,,23,001,0,27,400,425,2022_Oct_17_1427,Experiment,2021.1.4,360.40841483647597,
images\S9_F_H_03.png,images\S9_F_H_03_scrambled.png,9,happy,30,female,6,,51,off,1,0.5,0.75,0.5,0.906,3,50,3,1,1,0,0,0,0,6,,,,,,0,29,29,29,,,,,,,,,,,,,,,,,,,,,,,,,,,,,,,,,,,,,,,,,,,,,,,,,,,,,,,,,387.3343251999995,387.8369364000009,387.8369364000009,388.58952650000174,388.58952650000174,389.09213719999934,389.09213719999934,390.0058035999991,390.0058035999991,None,num_4,0.25834210000175517,390.0058035999991,None,happy,1,Happy,390.2778641599998,None,None,390.2778641599998,None,,,,,,,,,,,,,,,,,,,,,,,,,,,,,,,,,,,,,,,,,,,,,,,,,,,,,23,001,0,27,400,425,2022_Oct_17_1427,Experiment,2021.1.4,360.40841483647597,
images\S5_F_S_03.png,images\S5_F_S_03_scrambled.png,5,sad,-30,female,1,,390,off,1,0.5,0.75,0.5,0.927,3,389,4,1,1,0,0,0,0,1,,,,,,0,30,30,30,,,,,,,,,,,,,,,,,,,,,,,,,,,,,,,,,,,,,,,,,,,,,,,,,,,,,,,,,390.34450780000225,390.8499345,390.8499345,391.5996728000009,391.5996728000009,392.10229150000123,392.10229150000123,393.0353742000025,393.0353742000025,None,num_6,0.2921978999984276,393.0353742000025,None,sad,1,Sad,393.33808256000157,None,None,393.33808256000157,None,,,,,,,,,,,,,,,,,,,,,,,,,,,,,,,,,,,,,,,,,,,,,,,,,,,,,23,001,0,27,400,425,2022_Oct_17_1427,Experiment,2021.1.4,360.40841483647597,
images\S5_F_H_01.png,images\S5_F_H_01_scrambled.png,5,happy,10,female,4,,85,on,2,0.5,0.75,0.5,0.897,3,84,1,2,1,2,2,32,128,164,,,,,,0,31,31,31,,,,,,,,,,,,,,,,,,,,,,,,,,,,,,,,,,,,,,,,,,,,,,,,,,,,,,,,,393.3852371000012,393.8906322999992,393.8906322999992,394.6432083000018,394.6432083000018,395.1458220000004,395.1458220000004,396.0455560999999,396.0455560999999,None,num_4,0.37004629999864846,396.0455560999999,None,happy,1,Happy,396.4315565599991,None,None,396.4315565599991,None,,,,,,,,,,,,,,,,,,,,,,,,,,,,,,,,,,,,,,,,,,,,,,,,,,,,,23,001,0,27,400,425,2022_Oct_17_1427,Experiment,2021.1.4,360.40841483647597,
images\blank.jpg,images\blank.jpg,none,none,none,none,0,,616,on,2,0.5,0.75,0.5,0.871,0,615,2,1,1,3,3,48,192,240,,,,,,0,32,32,32,,,,,,,,,,,,,,,,,,,,,,,,,,,,,,,,,,,,,,,,,,,,,,,,,,,,,,,,,396.515051700002,397.0202267000004,397.0202267000004,397.7755706000007,397.7755706000007,398.2783213999992,398.2783213999992,399.15015719999974,399.15015719999974,399.15015719999974,None,,399.15015719999974,None,miss,1,,402.15765267999996,None,None,402.15765267999996,None,,,,,,,,,,,,,,,,,,,,,,,,,,,,,,,,,,,,,,,,,,,,,,,,,,,,,23,001,0,27,400,425,2022_Oct_17_1427,Experiment,2021.1.4,360.40841483647597,
images\S9_F_S_01.png,images\S9_F_S_01_scrambled.png,9,sad,-10,female,3,,292,off,1,0.5,0.75,0.5,0.821,3,291,1,1,1,0,0,0,0,3,,,,,,0,33,33,33,,,,,,,,,,,,,,,,,,,,,,,,,,,,,,,,,,,,,,,,,,,,,,,,,,,,,,,,,402.2827230999992,402.7880282000024,402.7880282000024,403.54047000000173,403.54047000000173,404.04586780000136,404.04586780000136,404.87349560000257,404.87349560000257,None,num_6,0.7101292000006652,404.87349560000257,402.2827230999992,sad,1,Sad,405.5981506600019,None,None,405.5981506600019,None,,,,,,,,,,,,,,,,,,,,,,,,,,,,,,,,,,,,,,,,,,,,,,,,,,,,,23,001,0,27,400,425,2022_Oct_17_1427,Experiment,2021.1.4,360.40841483647597,
images\S7_F_S_02.png,images\S7_F_S_02_scrambled.png,7,sad,-20,female,2,,461,on,2,0.5,0.75,0.5,0.757,3,460,1,1,1,2,2,32,128,162,,,,,,0,34,34,34,,,,,,,,,,,,,,,,,,,,,,,,,,,,,,,,,,,,,,,,,,,,,,,,,,,,,,,,,405.6453562000006,406.1507724999992,406.1507724999992,406.90331980000155,406.90331980000155,407.4087748000002,407.4087748000002,408.1696152000022,408.1696152000022,None,num_4,0.42234649999954854,408.1696152000022,None,happy,1,Sad,408.6000085800024,None,None,408.6000085800024,None,,,,,,,,,,,,,,,,,,,,,,,,,,,,,,,,,,,,,,,,,,,,,,,,,,,,,23,001,0,27,400,425,2022_Oct_17_1427,Experiment,2021.1.4,360.40841483647597,
images\S7_F_S_03.png,images\S7_F_S_03_scrambled.png,7,sad,-30,female,1,,522,off,1,0.5,0.75,0.5,0.931,3,521,1,2,1,0,0,0,0,1,,,,,,0,35,35,35,,,,,,,,,,,,,,,,,,,,,,,,,,,,,,,,,,,,,,,,,,,,,,,,,,,,,,,,,408.64721010000176,409.1498644000003,409.1498644000003,409.90518300000076,409.90518300000076,410.4105909000009,410.4105909000009,411.3437396999998,411.3437396999998,None,num_6,0.519993699999759,411.3437396999998,None,sad,1,Sad,411.8740424600019,None,None,411.8740424600019,None,,,,,,,,,,,,,,,,,,,,,,,,,,,,,,,,,,,,,,,,,,,,,,,,,,,,,23,001,0,27,400,425,2022_Oct_17_1427,Experiment,2021.1.4,360.40841483647597,
images\blank.jpg,images\blank.jpg,none,none,none,none,0,,607,on,2,0.5,0.75,0.5,0.925,0,606,1,1,1,3,3,48,192,240,,,,,,0,36,36,36,,,,,,,,,,,,,,,,,,,,,,,,,,,,,,,,,,,,,,,,,,,,,,,,,,,,,,,,,411.9603396000002,412.46549920000143,412.46549920000143,413.2181478000002,413.2181478000002,413.7235512000025,413.7235512000025,414.65093700000034,414.65093700000034,414.65093700000034,None,,414.65093700000034,None,miss,1,,417.6528544800003,None,None,417.6528544800003,None,,,,,,,,,,,,,,,,,,,,,,,,,,,,,,,,,,,,,,,,,,,,,,,,,,,,,23,001,0,27,400,425,2022_Oct_17_1427,Experiment,2021.1.4,360.40841483647597,
images\S9_F_H_03.png,images\S9_F_H_03_scrambled.png,9,happy,30,female,6,,411,off,1,0.5,0.75,0.5,0.891,3,410,1,1,1,0,0,0,0,6,,,,,,0,37,37,37,,,,,,,,,,,,,,,,,,,,,,,,,,,,,,,,,,,,,,,,,,,,,,,,,,,,,,,,,417.77796390000185,418.2803881000018,418.2803881000018,419.0357034999997,419.0357034999997,419.5383015999996,419.5383015999996,420.4326000000019,420.4326000000019,None,num_4,0.4149445000002743,420.4326000000019,417.77796390000185,happy,1,Happy,420.86290356000063,None,None,420.86290356000063,None,,,,,,,,,,,,,,,,,,,,,,,,,,,,,,,,,,,,,,,,,,,,,,,,,,,,,23,001,0,27,400,425,2022_Oct_17_1427,Experiment,2021.1.4,360.40841483647597,
images\S7_F_H_03.png,images\S7_F_H_03_scrambled.png,7,happy,30,female,6,,399,off,1,0.5,0.75,0.5,0.875,3,398,2,1,2,0,0,0,0,6,,,,,,0,38,38,38,,,,,,,,,,,,,,,,,,,,,,,,,,,,,,,,,,,,,,,,,,,,,,,,,,,,,,,,,420.91011000000253,421.4155307000019,421.4155307000019,422.1680505000022,422.1680505000022,422.6735733000005,422.6735733000005,423.5509780000011,423.5509780000011,None,num_4,0.5046483999976772,423.5509780000011,None,happy,1,Happy,424.07024296000054,None,None,424.07024296000054,None,,,,,,,,,,,,,,,,,,,,,,,,,,,,,,,,,,,,,,,,,,,,,,,,,,,,,23,001,0,27,400,425,2022_Oct_17_1427,Experiment,2021.1.4,360.40841483647597,
images\S5_F_S_02.png,images\S5_F_S_02_scrambled.png,5,sad,-20,female,2,,269,off,1,0.5,0.75,0.5,0.768,3,268,3,1,1,0,0,0,0,2,,,,,,0,39,39,39,,,,,,,,,,,,,,,,,,,,,,,,,,,,,,,,,,,,,,,,,,,,,,,,,,,,,,,,,424.1341205000008,424.63955890000034,424.63955890000034,425.3948610999996,425.3948610999996,425.89468170000146,425.89468170000146,426.6666798000024,426.6666798000024,None,num_6,0.35713659999964875,426.6666798000024,None,sad,1,Sad,427.03881426000044,None,None,427.03881426000044,None,,,,,,,,,,,,,,,,,,,,,,,,,,,,,,,,,,,,,,,,,,,,,,,,,,,,,23,001,0,27,400,425,2022_Oct_17_1427,Experiment,2021.1.4,360.40841483647597,
images\S7_F_S_02.png,images\S7_F_S_02_scrambled.png,7,sad,-20,female,2,,401,off,1,0.5,0.75,0.5,0.874,3,400,4,1,2,0,0,0,0,2,,,,,,0,40,40,40,,,,,,,,,,,,,,,,,,,,,,,,,,,,,,,,,,,,,,,,,,,,,,,,,,,,,,,,,427.0859844000024,427.5886284999997,427.5886284999997,428.341147000001,428.341147000001,428.843867900001,428.843867900001,429.7212899000024,429.7212899000024,None,num_6,0.39039860000048066,429.7212899000024,None,sad,1,Sad,430.1267514600022,None,None,430.1267514600022,None,,,,,,,,,,,,,,,,,,,,,,,,,,,,,,,,,,,,,,,,,,,,,,,,,,,,,23,001,0,27,400,425,2022_Oct_17_1427,Experiment,2021.1.4,360.40841483647597,
images\S6_M_H_03.png,images\S6_M_H_03_scrambled.png,6,happy,30,male,6,,453,on,2,0.5,0.75,0.5,0.878,3,452,1,1,1,2,2,32,128,166,,,,,,0,41,41,41,,,,,,,,,,,,,,,,,,,,,,,,,,,,,,,,,,,,,,,,,,,,,,,,,,,,,,,,,430.17669080000087,430.67932720000135,430.67932720000135,431.43468790000225,431.43468790000225,431.93730940000205,431.93730940000205,432.8203607000014,432.8203607000014,None,num_4,0.5632684999982303,432.8203607000014,None,happy,1,Happy,433.3951753599995,None,None,433.3951753599995,None,,,,,,,,,,,,,,,,,,,,,,,,,,,,,,,,,,,,,,,,,,,,,,,,,,,,,23,001,0,27,400,425,2022_Oct_17_1427,Experiment,2021.1.4,360.40841483647597,
images\S6_M_H_02.png,images\S6_M_H_02_scrambled.png,6,happy,20,male,5,,212,on,2,0.5,0.75,0.5,0.752,3,211,2,2,1,2,2,32,128,165,,,,,,0,42,42,42,,,,,,,,,,,,,,,,,,,,,,,,,,,,,,,,,,,,,,,,,,,,,,,,,,,,,,,,,433.4423676000024,433.94221110000035,433.94221110000035,434.6947979000015,434.6947979000015,435.19463110000106,435.19463110000106,435.94995559999916,435.94995559999916,None,num_6,0.6421987999965495,435.94995559999916,None,sad,1,Happy,436.59984796999925,None,None,436.59984796999925,None,,,,,,,,,,,,,,,,,,,,,,,,,,,,,,,,,,,,,,,,,,,,,,,,,,,,,23,001,0,27,400,425,2022_Oct_17_1427,Experiment,2021.1.4,360.40841483647597,
images\blank.jpg,images\blank.jpg,none,none,none,none,0,,614,on,2,0.5,0.75,0.5,0.881,0,613,3,1,1,3,3,48,192,240,,,,,,0,43,43,43,,,,,,,,,,,,,,,,,,,,,,,,,,,,,,,,,,,,,,,,,,,,,,,,,,,,,,,,,436.6998939000023,437.2024551000013,437.2024551000013,437.95209630000136,437.95209630000136,438.45192970000244,438.45192970000244,439.332260600002,439.332260600002,439.332260600002,None,,439.332260600002,None,miss,1,,442.33415667999907,None,None,442.33415667999907,None,,,,,,,,,,,,,,,,,,,,,,,,,,,,,,,,,,,,,,,,,,,,,,,,,,,,,23,001,0,27,400,425,2022_Oct_17_1427,Experiment,2021.1.4,360.40841483647597,
images\S10_M_H_03.png,images\S10_M_H_03_scrambled.png,10,happy,30,male,6,,357,on,2,0.5,0.75,0.5,0.835,3,356,4,1,1,2,2,32,128,166,,,,,,0,44,44,44,,,,,,,,,,,,,,,,,,,,,,,,,,,,,,,,,,,,,,,,,,,,,,,,,,,,,,,,,442.4592809000005,442.9644797000019,442.9644797000019,443.71980110000186,443.71980110000186,444.2251855000013,444.2251855000013,445.06387189999987,445.06387189999987,None,num_4,0.3517996000009589,445.06387189999987,442.4592809000005,happy,1,Happy,445.43037146000097,None,None,445.43037146000097,None,,,,,,,,,,,,,,,,,,,,,,,,,,,,,,,,,,,,,,,,,,,,,,,,,,,,,23,001,0,27,400,425,2022_Oct_17_1427,Experiment,2021.1.4,360.40841483647597,
images\S2_M_S_02.png,images\S2_M_S_02_scrambled.png,2,sad,-20,male,2,,311,on,2,0.5,0.75,0.5,0.863,3,310,5,1,1,2,2,32,128,162,,,,,,0,45,45,45,,,,,,,,,,,,,,,,,,,,,,,,,,,,,,,,,,,,,,,,,,,,,,,,,,,,,,,,,445.47756200000185,445.9774025000024,445.9774025000024,446.72998720000214,446.72998720000214,447.23261260000254,447.23261260000254,448.0990213999994,448.0990213999994,None,num_6,0.46892989999832935,448.0990213999994,None,sad,1,Sad,448.5849682600001,None,None,448.5849682600001,None,,,,,,,,,,,,,,,,,,,,,,,,,,,,,,,,,,,,,,,,,,,,,,,,,,,,,23,001,0,27,400,425,2022_Oct_17_1427,Experiment,2021.1.4,360.40841483647597,
images\S5_F_S_01.png,images\S5_F_S_01_scrambled.png,5,sad,-10,female,3,,448,on,2,0.5,0.75,0.5,0.817,3,447,6,1,1,2,2,32,128,163,,,,,,0,46,46,46,,,,,,,,,,,,,,,,,,,,,,,,,,,,,,,,,,,,,,,,,,,,,,,,,,,,,,,,,448.63213930000165,449.1319934000003,449.1319934000003,449.8817958000018,449.8817958000018,450.38441710000006,450.38441710000006,451.2007910000011,451.2007910000011,None,num_4,0.4308811000009882,451.2007910000011,None,happy,1,Sad,451.6367948800016,None,None,451.6367948800016,None,,,,,,,,,,,,,,,,,,,,,,,,,,,,,,,,,,,,,,,,,,,,,,,,,,,,,23,001,0,27,400,425,2022_Oct_17_1427,Experiment,2021.1.4,360.40841483647597,
images\S10_M_S_01.png,images\S10_M_S_01_scrambled.png,10,sad,-10,male,3,,178,off,1,0.5,0.75,0.5,0.853,3,177,1,1,2,0,0,0,0,3,,,,,,0,47,47,47,,,,,,,,,,,,,,,,,,,,,,,,,,,,,,,,,,,,,,,,,,,,,,,,,,,,,,,,,451.6839803000021,452.18941630000154,452.18941630000154,452.9447450000025,452.9447450000025,453.4473689000024,453.4473689000024,454.30265840000175,454.30265840000175,None,num_6,1.0490257999990718,454.30265840000175,None,sad,1,Sad,455.3801227999993,None,None,455.3801227999993,None,,,,,,,,,,,,,,,,,,,,,,,,,,,,,,,,,,,,,,,,,,,,,,,,,,,,,23,001,0,27,400,425,2022_Oct_17_1427,Experiment,2021.1.4,360.40841483647597,
images\S5_F_H_03.png,images\S5_F_H_03_scrambled.png,5,happy,30,female,6,,327,on,2,0.5,0.75,0.5,0.789,3,326,1,1,1,2,2,32,128,166,,,,,,0,48,48,48,,,,,,,,,,,,,,,,,,,,,,,,,,,,,,,,,,,,,,,,,,,,,,,,,,,,,,,,,455.4328718000015,455.9354734000026,455.9354734000026,456.6881314000002,456.6881314000002,457.18785670000034,457.18785670000034,457.9792628000014,457.9792628000014,None,num_4,0.7245220999975572,457.9792628000014,None,happy,1,Happy,458.7207403600023,None,None,458.7207403600023,None,,,,,,,,,,,,,,,,,,,,,,,,,,,,,,,,,,,,,,,,,,,,,,,,,,,,,23,001,0,27,400,425,2022_Oct_17_1427,Experiment,2021.1.4,360.40841483647597,
images\S6_M_H_02.png,images\S6_M_H_02_scrambled.png,6,happy,20,male,5,,32,off,1,0.5,0.75,0.5,0.941,3,31,1,1,1,0,0,0,0,5,,,,,,0,49,49,49,,,,,,,,,,,,,,,,,,,,,,,,,,,,,,,,,,,,,,,,,,,,,,,,,,,,,,,,,458.7679150999993,459.27052560000266,459.27052560000266,460.025877500002,460.025877500002,460.528621200001,460.528621200001,461.4698589000018,461.4698589000018,None,num_4,0.7137050000019372,461.4698589000018,None,happy,1,Happy,462.194681160001,None,None,462.194681160001,None,,,,,,,,,,,,,,,,,,,,,,,,,,,,,,,,,,,,,,,,,,,,,,,,,,,,,23,001,0,27,400,425,2022_Oct_17_1427,Experiment,2021.1.4,360.40841483647597,
images\S2_M_S_01.png,images\S2_M_S_01_scrambled.png,2,sad,-10,male,3,,490,off,1,0.5,0.75,0.5,0.782,3,489,2,1,1,0,0,0,0,3,,,,,,0,50,50,50,,,,,,,,,,,,,,,,,,,,,,,,,,,,,,,,,,,,,,,,,,,,,,,,,,,,,,,,,462.24184520000017,462.7416985,462.7416985,463.4942772000013,463.4942772000013,463.9996771000024,463.9996771000024,464.78551640000114,464.78551640000114,None,num_6,0.46223209999880055,464.78551640000114,None,sad,1,Sad,465.2660078500012,None,None,465.2660078500012,None,,,,,,,,,,,,,,,,,,,,,,,,,,,,,,,,,,,,,,,,,,,,,,,,,,,,,23,001,0,27,400,425,2022_Oct_17_1427,Experiment,2021.1.4,360.40841483647597,
images\S4_M_H_02.png,images\S4_M_H_02_scrambled.png,4,happy,20,male,5,,560,on,2,0.5,0.75,0.5,0.787,3,559,1,1,1,2,2,32,128,165,,,,,,0,51,51,51,,,,,,,,,,,,,,,,,,,,,,,,,,,,,,,,,,,,,,,,,,,,,,,,,,,,,,,,,465.3186676999994,465.8241304999992,465.8241304999992,466.57663250000223,466.57663250000223,467.0792429000012,467.0792429000012,467.8678928999998,467.8678928999998,None,num_4,0.6679694000013114,467.8678928999998,None,happy,1,Happy,468.55939152000246,None,None,468.55939152000246,None,,,,,,,,,,,,,,,,,,,,,,,,,,,,,,,,,,,,,,,,,,,,,,,,,,,,,23,001,0,27,400,425,2022_Oct_17_1427,Experiment,2021.1.4,360.40841483647597,
images\S5_F_H_02.png,images\S5_F_H_02_scrambled.png,5,happy,20,female,5,,446,on,2,0.5,0.75,0.5,0.843,3,445,2,1,2,2,2,32,128,165,,,,,,0,52,52,52,,,,,,,,,,,,,,,,,,,,,,,,,,,,,,,,,,,,,,,,,,,,,,,,,,,,,,,,,468.6093340000025,469.1147710999994,469.1147710999994,469.86450060000243,469.86450060000243,470.36438680000174,470.36438680000174,471.21411420000186,471.21411420000186,None,num_4,0.5935808000031102,471.21411420000186,None,happy,1,Happy,471.8222692600011,None,None,471.8222692600011,None,,,,,,,,,,,,,,,,,,,,,,,,,,,,,,,,,,,,,,,,,,,,,,,,,,,,,23,001,0,27,400,425,2022_Oct_17_1427,Experiment,2021.1.4,360.40841483647597,
images\S4_M_H_01.png,images\S4_M_H_01_scrambled.png,4,happy,10,male,4,,499,off,1,0.5,0.75,0.5,0.8,3,498,1,1,1,0,0,0,0,4,,,,,,0,53,53,53,,,,,,,,,,,,,,,,,,,,,,,,,,,,,,,,,,,,,,,,,,,,,,,,,,,,,,,,,471.8694495,472.3720622000019,472.3720622000019,473.1218413000006,473.1218413000006,473.62173780000194,473.62173780000194,474.4242584000003,474.4242584000003,None,num_6,0.5755056999987573,474.4242584000003,None,sad,1,Happy,475.00461008000093,None,None,475.00461008000093,None,,,,,,,,,,,,,,,,,,,,,,,,,,,,,,,,,,,,,,,,,,,,,,,,,,,,,23,001,0,27,400,425,2022_Oct_17_1427,Experiment,2021.1.4,360.40841483647597,
images\S3_F_H_01.png,images\S3_F_H_01_scrambled.png,3,happy,10,female,4,,493,off,1,0.5,0.75,0.5,0.831,3,492,2,1,2,0,0,0,0,4,,,,,,0,54,54,54,,,,,,,,,,,,,,,,,,,,,,,,,,,,,,,,,,,,,,,,,,,,,,,,,,,,,,,,,475.05456869999944,475.5599994000022,475.5599994000022,476.31255749999946,476.31255749999946,476.8123628000012,476.8123628000012,477.6454611999998,477.6454611999998,None,num_4,1.1703343000008317,477.6454611999998,None,happy,1,Happy,478.8284291600012,None,None,478.8284291600012,None,,,,,,,,,,,,,,,,,,,,,,,,,,,,,,,,,,,,,,,,,,,,,,,,,,,,,23,001,0,27,400,425,2022_Oct_17_1427,Experiment,2021.1.4,360.40841483647597,
images\S4_M_S_02.png,images\S4_M_S_02_scrambled.png,4,sad,-20,male,2,,563,on,2,0.5,0.75,0.5,0.873,3,562,1,1,1,2,2,32,128,162,,,,,,0,55,55,55,,,,,,,,,,,,,,,,,,,,,,,,,,,,,,,,,,,,,,,,,,,,,,,,,,,,,,,,,478.87840490000053,479.381015500001,479.381015500001,480.133702000001,480.133702000001,480.63898040000095,480.63898040000095,481.51376849999906,481.51376849999906,None,num_6,0.7421606999996584,481.51376849999906,None,sad,1,Sad,482.2690581600018,None,None,482.2690581600018,None,,,,,,,,,,,,,,,,,,,,,,,,,,,,,,,,,,,,,,,,,,,,,,,,,,,,,23,001,0,27,400,425,2022_Oct_17_1427,Experiment,2021.1.4,360.40841483647597,
images\S6_M_S_01.png,images\S6_M_S_01_scrambled.png,6,sad,-10,male,3,,34,off,1,0.5,0.75,0.5,0.812,3,33,1,1,1,0,0,0,0,3,,,,,,0,56,56,56,,,,,,,,,,,,,,,,,,,,,,,,,,,,,,,,,,,,,,,,,,,,,,,,,,,,,,,,,482.3162358000027,482.8188745999996,482.8188745999996,483.5714095000021,483.5714095000021,484.0740743000006,484.0740743000006,484.89046620000045,484.89046620000045,None,num_6,0.08511599999837927,484.89046620000045,None,sad,1,Sad,484.99040695999975,None,None,484.99040695999975,None,,,,,,,,,,,,,,,,,,,,,,,,,,,,,,,,,,,,,,,,,,,,,,,,,,,,,23,001,0,27,400,425,2022_Oct_17_1427,Experiment,2021.1.4,360.40841483647597,
images\S5_F_S_02.png,images\S5_F_S_02_scrambled.png,5,sad,-20,female,2,,509,off,1,0.5,0.75,0.5,0.841,3,508,2,1,1,0,0,0,0,2,,,,,,0,57,57,57,,,,,,,,,,,,,,,,,,,,,,,,,,,,,,,,,,,,,,,,,,,,,,,,,,,,,,,,,485.0376159999996,485.54026390000035,485.54026390000035,486.29558270000234,486.29558270000234,486.7981810000001,486.7981810000001,487.64516940000067,487.64516940000067,None,num_4,0.31432829999903333,487.64516940000067,None,happy,1,Sad,487.96452877999945,None,None,487.96452877999945,None,,,,,,,,,,,,,,,,,,,,,,,,,,,,,,,,,,,,,,,,,,,,,,,,,,,,,23,001,0,27,400,425,2022_Oct_17_1427,Experiment,2021.1.4,360.40841483647597,
images\blank.jpg,images\blank.jpg,none,none,none,none,0,,609,on,2,0.5,0.75,0.5,0.786,0,608,1,1,1,3,3,48,192,240,,,,,,0,58,58,58,,,,,,,,,,,,,,,,,,,,,,,,,,,,,,,,,,,,,,,,,,,,,,,,,,,,,,,,,488.0480430000007,488.5533234000013,488.5533234000013,489.3057432000005,489.3057432000005,489.80841060000057,489.80841060000057,490.5998199000005,490.5998199000005,490.5998199000005,None,,490.5998199000005,None,miss,1,,493.601680390002,None,None,493.601680390002,None,,,,,,,,,,,,,,,,,,,,,,,,,,,,,,,,,,,,,,,,,,,,,,,,,,,,,23,001,0,27,400,425,2022_Oct_17_1427,Experiment,2021.1.4,360.40841483647597,
images\S5_F_S_02.png,images\S5_F_S_02_scrambled.png,5,sad,-20,female,2,,569,on,2,0.5,0.75,0.5,0.903,3,568,2,1,1,2,2,32,128,162,,,,,,0,59,59,59,,,,,,,,,,,,,,,,,,,,,,,,,,,,,,,,,,,,,,,,,,,,,,,,,,,,,,,,,493.71568429999934,494.21812260000115,494.21812260000115,494.9679211999992,494.9679211999992,495.4705045999999,495.4705045999999,496.3786988000011,496.3786988000011,None,num_4,0.6450284999991709,496.3786988000011,493.71568429999934,happy,1,Sad,497.03110538000146,None,None,497.03110538000146,None,,,,,,,,,,,,,,,,,,,,,,,,,,,,,,,,,,,,,,,,,,,,,,,,,,,,,23,001,0,27,400,425,2022_Oct_17_1427,Experiment,2021.1.4,360.40841483647597,
images\S2_M_H_02.png,images\S2_M_H_02_scrambled.png,2,happy,20,male,5,,368,off,1,0.5,0.75,0.5,0.775,3,367,1,1,1,0,0,0,0,5,,,,,,0,60,60,60,,,,,,,,,,,,,,,,,,,,,,,,,,,,,,,,,,,,,,,,,,,,,,,,,,,,,,,,,497.0783554999998,497.5809774999998,497.5809774999998,498.33364640000036,498.33364640000036,498.8389732000014,498.8389732000014,499.61928400000215,499.61928400000215,None,num_6,0.9881829999976617,499.61928400000215,None,sad,1,Happy,500.6133836800018,None,None,500.6133836800018,None,,,,,,,,,,,,,,,,,,,,,,,,,,,,,,,,,,,,,,,,,,,,,,,,,,,,,23,001,0,27,400,425,2022_Oct_17_1427,Experiment,2021.1.4,360.40841483647597,
images\S8_M_S_01.png,images\S8_M_S_01_scrambled.png,8,sad,-10,male,3,,526,off,1,0.5,0.75,0.5,0.844,3,525,2,1,1,0,0,0,0,3,,,,,,0,61,61,61,,,,,,,,,,,,,,,,,,,,,,,,,,,,,,,,,,,,,,,,,,,,,,,,,,,,,,,,,500.6605885000008,501.16331639999953,501.16331639999953,501.91867789999924,501.91867789999924,502.42398030000004,502.42398030000004,503.2737567999993,503.2737567999993,None,num_6,0.7260496999988391,503.2737567999993,None,sad,1,Sad,504.0290638999995,None,None,504.0290638999995,None,,,,,,,,,,,,,,,,,,,,,,,,,,,,,,,,,,,,,,,,,,,,,,,,,,,,,23,001,0,27,400,425,2022_Oct_17_1427,Experiment,2021.1.4,360.40841483647597,
images\S4_M_S_02.png,images\S4_M_S_02_scrambled.png,4,sad,-20,male,2,,203,on,2,0.5,0.75,0.5,0.935,3,202,1,1,1,2,2,32,128,162,,,,,,0,62,62,62,,,,,,,,,,,,,,,,,,,,,,,,,,,,,,,,,,,,,,,,,,,,,,,,,,,,,,,,,504.0845391999992,504.58996619999925,504.58996619999925,505.3426141,505.3426141,505.84513329999936,505.84513329999936,506.7838371000016,506.7838371000016,None,num_6,0.5439240000014252,506.7838371000016,None,sad,1,Sad,507.3418723600025,None,None,507.3418723600025,None,,,,,,,,,,,,,,,,,,,,,,,,,,,,,,,,,,,,,,,,,,,,,,,,,,,,,23,001,0,27,400,425,2022_Oct_17_1427,Experiment,2021.1.4,360.40841483647597,
images\S1_F_H_01.png,images\S1_F_H_01_scrambled.png,1,happy,10,female,4,,61,on,2,0.5,0.75,0.5,0.779,3,60,2,1,1,2,2,32,128,164,,,,,,0,63,63,63,,,,,,,,,,,,,,,,,,,,,,,,,,,,,,,,,,,,,,,,,,,,,,,,,,,,,,,,,507.39194560000215,507.89451010000084,507.89451010000084,508.6442525000002,508.6442525000002,509.1496749000016,509.1496749000016,509.93287050000254,509.93287050000254,None,num_4,0.626786799999536,509.93287050000254,None,happy,1,Happy,510.5742491600013,None,None,510.5742491600013,None,,,,,,,,,,,,,,,,,,,,,,,,,,,,,,,,,,,,,,,,,,,,,,,,,,,,,23,001,0,27,400,425,2022_Oct_17_1427,Experiment,2021.1.4,360.40841483647597,
images\blank.jpg,images\blank.jpg,none,none,none,none,0,,637,on,2,0.5,0.75,0.5,0.851,0,636,3,1,1,3,3,48,192,240,,,,,,0,64,64,64,,,,,,,,,,,,,,,,,,,,,,,,,,,,,,,,,,,,,,,,,,,,,,,,,,,,,,,,,510.6576941000003,511.16013639999983,511.16013639999983,511.9154873000025,511.9154873000025,512.4182006999999,512.4182006999999,513.2706014000014,513.2706014000014,513.2706014000014,None,,513.2706014000014,None,miss,1,,516.2697013899997,None,None,516.2697013899997,None,,,,,,,,,,,,,,,,,,,,,,,,,,,,,,,,,,,,,,,,,,,,,,,,,,,,,23,001,0,27,400,425,2022_Oct_17_1427,Experiment,2021.1.4,360.40841483647597,
images\S2_M_H_02.png,images\S2_M_H_02_scrambled.png,2,happy,20,male,5,,488,off,1,0.5,0.75,0.5,0.94,3,487,1,1,1,0,0,0,0,5,,,,,,0,65,65,65,,,,,,,,,,,,,,,,,,,,,,,,,,,,,,,,,,,,,,,,,,,,,,,,,,,,,,,,,516.3838379999997,516.8833963000016,516.8833963000016,517.633146000002,517.633146000002,518.1386882000024,518.1386882000024,519.0828531999996,519.0828531999996,None,num_4,0.5649995999992825,519.0828531999996,516.3838379999997,happy,1,Happy,519.6631276600001,None,None,519.6631276600001,None,,,,,,,,,,,,,,,,,,,,,,,,,,,,,,,,,,,,,,,,,,,,,,,,,,,,,23,001,0,27,400,425,2022_Oct_17_1427,Experiment,2021.1.4,360.40841483647597,
images\S7_F_H_01.png,images\S7_F_H_01_scrambled.png,7,happy,10,female,4,,517,off,1,0.5,0.75,0.5,0.846,3,516,2,1,1,0,0,0,0,4,,,,,,0,66,66,66,,,,,,,,,,,,,,,,,,,,,,,,,,,,,,,,,,,,,,,,,,,,,,,,,,,,,,,,,519.7130736000017,520.2157090000019,520.2157090000019,520.9710213000017,520.9710213000017,521.4736604000009,521.4736604000009,522.3261640000001,522.3261640000001,None,num_4,0.32965559999865945,522.3261640000001,None,happy,1,Happy,522.6705304600018,None,None,522.6705304600018,None,,,,,,,,,,,,,,,,,,,,,,,,,,,,,,,,,,,,,,,,,,,,,,,,,,,,,23,001,0,27,400,425,2022_Oct_17_1427,Experiment,2021.1.4,360.40841483647597,
images\S6_M_S_02.png,images\S6_M_S_02_scrambled.png,6,sad,-20,male,2,,155,off,1,0.5,0.75,0.5,0.773,3,154,3,1,1,0,0,0,0,2,,,,,,0,67,67,67,,,,,,,,,,,,,,,,,,,,,,,,,,,,,,,,,,,,,,,,,,,,,,,,,,,,,,,,,522.720474300002,523.223097,523.223097,523.9756615000024,523.9756615000024,524.4782620000024,524.4782620000024,525.2530258999996,525.2530258999996,None,num_6,0.4505944999982603,525.2530258999996,None,sad,1,Sad,525.7196060600018,None,None,525.7196060600018,None,,,,,,,,,,,,,,,,,,,,,,,,,,,,,,,,,,,,,,,,,,,,,,,,,,,,,23,001,0,27,400,425,2022_Oct_17_1427,Experiment,2021.1.4,360.40841483647597,
images\S6_M_S_02.png,images\S6_M_S_02_scrambled.png,6,sad,-20,male,2,,515,off,1,0.5,0.75,0.5,0.768,3,514,4,2,2,0,0,0,0,2,,,,,,0,68,68,68,,,,,,,,,,,,,,,,,,,,,,,,,,,,,,,,,,,,,,,,,,,,,,,,,,,,,,,,,525.7695408000018,526.2749639000012,526.2749639000012,527.0275243000015,527.0275243000015,527.5273696999993,527.5273696999993,528.2993115000008,528.2993115000008,None,num_6,0.5092148000003363,528.2993115000008,None,sad,1,Sad,528.8354643300008,None,None,528.8354643300008,None,,,,,,,,,,,,,,,,,,,,,,,,,,,,,,,,,,,,,,,,,,,,,,,,,,,,,23,001,0,27,400,425,2022_Oct_17_1427,Experiment,2021.1.4,360.40841483647597,
images\S7_F_H_01.png,images\S7_F_H_01_scrambled.png,7,happy,10,female,4,,157,off,1,0.5,0.75,0.5,0.938,3,156,5,1,1,0,0,0,0,4,,,,,,0,69,69,69,,,,,,,,,,,,,,,,,,,,,,,,,,,,,,,,,,,,,,,,,,,,,,,,,,,,,,,,,528.8880528999998,529.3878631000025,529.3878631000025,530.1404477000015,530.1404477000015,530.6430058999995,530.6430058999995,531.5844529000005,531.5844529000005,None,num_4,0.3913867000010214,531.5844529000005,None,happy,1,Happy,531.9898517599995,None,None,531.9898517599995,None,,,,,,,,,,,,,,,,,,,,,,,,,,,,,,,,,,,,,,,,,,,,,,,,,,,,,23,001,0,27,400,425,2022_Oct_17_1427,Experiment,2021.1.4,360.40841483647597,
images\S2_M_H_02.png,images\S2_M_H_02_scrambled.png,2,happy,20,male,5,,428,on,2,0.5,0.75,0.5,0.837,3,427,1,1,1,2,2,32,128,165,,,,,,0,70,70,70,,,,,,,,,,,,,,,,,,,,,,,,,,,,,,,,,,,,,,,,,,,,,,,,,,,,,,,,,532.0370540000022,532.5397156000017,532.5397156000017,533.2922596000008,533.2922596000008,533.7977566999998,533.7977566999998,534.6390745000008,534.6390745000008,None,num_4,0.42452029999913066,534.6390745000008,None,happy,1,Happy,535.0750211600007,None,None,535.0750211600007,None,,,,,,,,,,,,,,,,,,,,,,,,,,,,,,,,,,,,,,,,,,,,,,,,,,,,,23,001,0,27,400,425,2022_Oct_17_1427,Experiment,2021.1.4,360.40841483647597,
images\S9_F_H_01.png,images\S9_F_H_01_scrambled.png,9,happy,10,female,4,,529,off,1,0.5,0.75,0.5,0.82,3,528,1,1,1,0,0,0,0,4,,,,,,0,71,71,71,,,,,,,,,,,,,,,,,,,,,,,,,,,,,,,,,,,,,,,,,,,,,,,,,,,,,,,,,535.1222201,535.624868500001,535.624868500001,536.3775272000003,536.3775272000003,536.8800103000012,536.8800103000012,537.7047829000021,537.7047829000021,None,num_4,0.5907642999991367,537.7047829000021,None,happy,1,Happy,538.3101192600025,None,None,538.3101192600025,None,,,,,,,,,,,,,,,,,,,,,,,,,,,,,,,,,,,,,,,,,,,,,,,,,,,,,23,001,0,27,400,425,2022_Oct_17_1427,Experiment,2021.1.4,360.40841483647597,
images\S2_M_H_01.png,images\S2_M_H_01_scrambled.png,2,happy,10,male,4,,247,off,1,0.5,0.75,0.5,0.79,3,246,2,1,2,0,0,0,0,4,,,,,,0,72,72,72,,,,,,,,,,,,,,,,,,,,,,,,,,,,,,,,,,,,,,,,,,,,,,,,,,,,,,,,,538.3573312999997,538.8599951000015,538.8599951000015,539.6097224999994,539.6097224999994,540.1123506999993,540.1123506999993,540.9037690999994,540.9037690999994,None,num_6,1.0242198000014469,540.9037690999994,None,sad,1,Happy,541.9369167700024,None,None,541.9369167700024,None,,,,,,,,,,,,,,,,,,,,,,,,,,,,,,,,,,,,,,,,,,,,,,,,,,,,,23,001,0,27,400,425,2022_Oct_17_1427,Experiment,2021.1.4,360.40841483647597,
images\blank.jpg,images\blank.jpg,none,none,none,none,0,,601,on,2,0.5,0.75,0.5,0.885,0,600,1,1,1,3,3,48,192,240,,,,,,0,73,73,73,,,,,,,,,,,,,,,,,,,,,,,,,,,,,,,,,,,,,,,,,,,,,,,,,,,,,,,,,542.0286508000008,542.5282896000008,542.5282896000008,543.2780674000005,543.2780674000005,543.7835333000021,543.7835333000021,544.6748697999992,544.6748697999992,544.6748697999992,None,,544.6748697999992,None,miss,1,,547.6795478799995,None,None,547.6795478799995,None,,,,,,,,,,,,,,,,,,,,,,,,,,,,,,,,,,,,,,,,,,,,,,,,,,,,,23,001,0,27,400,425,2022_Oct_17_1427,Experiment,2021.1.4,360.40841483647597,
images\S6_M_H_03.png,images\S6_M_H_03_scrambled.png,6,happy,30,male,6,,153,off,1,0.5,0.75,0.5,0.894,3,152,1,1,1,0,0,0,0,6,,,,,,0,74,74,74,,,,,,,,,,,,,,,,,,,,,,,,,,,,,,,,,,,,,,,,,,,,,,,,,,,,,,,,,547.8019723000016,548.3042748000025,548.3042748000025,549.0568676000021,549.0568676000021,549.5594705000021,549.5594705000021,550.4592099999991,550.4592099999991,None,num_4,0.31650880000233883,550.4592099999991,547.8019723000016,happy,1,Happy,550.7896230599999,None,None,550.7896230599999,None,,,,,,,,,,,,,,,,,,,,,,,,,,,,,,,,,,,,,,,,,,,,,,,,,,,,,23,001,0,27,400,425,2022_Oct_17_1427,Experiment,2021.1.4,360.40841483647597,
images\S3_F_H_03.png,images\S3_F_H_03_scrambled.png,3,happy,30,female,6,,195,on,2,0.5,0.75,0.5,0.802,3,194,1,1,2,2,2,32,128,166,,,,,,0,75,75,75,,,,,,,,,,,,,,,,,,,,,,,,,,,,,,,,,,,,,,,,,,,,,,,,,,,,,,,,,550.8368289000009,551.3395046000023,551.3395046000023,552.0948019000007,552.0948019000007,552.5974442999996,552.5974442999996,553.4028512999994,553.4028512999994,None,num_4,0.46079509999981383,553.4028512999994,None,happy,1,Happy,553.8748901599993,None,None,553.8748901599993,None,,,,,,,,,,,,,,,,,,,,,,,,,,,,,,,,,,,,,,,,,,,,,,,,,,,,,23,001,0,27,400,425,2022_Oct_17_1427,Experiment,2021.1.4,360.40841483647597,
images\S4_M_S_03.png,images\S4_M_S_03_scrambled.png,4,sad,-30,male,1,,144,off,1,0.5,0.75,0.5,0.931,3,143,1,1,1,0,0,0,0,1,,,,,,0,76,76,76,,,,,,,,,,,,,,,,,,,,,,,,,,,,,,,,,,,,,,,,,,,,,,,,,,,,,,,,,553.9247689000022,554.4301971000004,554.4301971000004,555.1827415000025,555.1827415000025,555.6853675000002,555.6853675000002,556.6185219000017,556.6185219000017,None,num_6,0.47694700000283774,556.6185219000017,None,sad,1,Sad,557.1071766600016,None,None,557.1071766600016,None,,,,,,,,,,,,,,,,,,,,,,,,,,,,,,,,,,,,,,,,,,,,,,,,,,,,,23,001,0,27,400,425,2022_Oct_17_1427,Experiment,2021.1.4,360.40841483647597,
images\S7_F_H_03.png,images\S7_F_H_03_scrambled.png,7,happy,30,female,6,,219,on,2,0.5,0.75,0.5,0.931,3,218,1,1,1,2,2,32,128,166,,,,,,0,77,77,77,,,,,,,,,,,,,,,,,,,,,,,,,,,,,,,,,,,,,,,,,,,,,,,,,,,,,,,,,557.1571113000009,557.6569646000007,557.6569646000007,558.4124174000008,558.4124174000008,558.914903400002,558.914903400002,559.845190500002,559.845190500002,None,num_4,0.49901110000064364,559.845190500002,None,happy,1,Happy,560.3673834400015,None,None,560.3673834400015,None,,,,,,,,,,,,,,,,,,,,,,,,,,,,,,,,,,,,,,,,,,,,,,,,,,,,,23,001,0,27,400,425,2022_Oct_17_1427,Experiment,2021.1.4,360.40841483647597,
images\S10_M_S_01.png,images\S10_M_S_01_scrambled.png,10,sad,-10,male,3,,538,off,1,0.5,0.75,0.5,0.823,3,537,1,1,1,0,0,0,0,3,,,,,,0,78,78,78,,,,,,,,,,,,,,,,,,,,,,,,,,,,,,,,,,,,,,,,,,,,,,,,,,,,,,,,,560.4199925000012,560.9227470999995,560.9227470999995,561.675191100001,561.675191100001,562.1779237999999,562.1779237999999,563.0053276000017,563.0053276000017,None,num_4,0.6662703000001784,563.0053276000017,None,happy,1,Sad,563.6773362799995,None,None,563.6773362799995,None,,,,,,,,,,,,,,,,,,,,,,,,,,,,,,,,,,,,,,,,,,,,,,,,,,,,,23,001,0,27,400,425,2022_Oct_17_1427,Experiment,2021.1.4,360.40841483647597,
images\S1_F_S_03.png,images\S1_F_S_03_scrambled.png,1,sad,-30,female,1,,486,off,1,0.5,0.75,0.5,0.875,3,485,2,1,1,0,0,0,0,1,,,,,,0,79,79,79,,,,,,,,,,,,,,,,,,,,,,,,,,,,,,,,,,,,,,,,,,,,,,,,,,,,,,,,,563.7245316999997,564.2299748000023,564.2299748000023,564.9826121000024,564.9826121000024,565.4823648000001,565.4823648000001,566.3570554000016,566.3570554000016,None,num_6,0.29860499999995227,566.3570554000016,None,sad,1,Sad,566.6792662200005,None,None,566.6792662200005,None,,,,,,,,,,,,,,,,,,,,,,,,,,,,,,,,,,,,,,,,,,,,,,,,,,,,,23,001,0,27,400,425,2022_Oct_17_1427,Experiment,2021.1.4,360.40841483647597,
images\S4_M_H_02.png,images\S4_M_H_02_scrambled.png,4,happy,20,male,5,,320,on,2,0.5,0.75,0.5,0.811,3,319,1,1,1,2,2,32,128,165,,,,,,0,80,80,80,,,,,,,,,,,,,,,,,,,,,,,,,,,,,,,,,,,,,,,,,,,,,,,,,,,,,,,,,566.7319420000003,567.2317843000001,567.2317843000001,567.9815541000007,567.9815541000007,568.4841780000006,568.4841780000006,569.2979458999998,569.2979458999998,None,num_4,0.4857019000010041,569.2979458999998,None,happy,1,Happy,569.7977016599998,None,None,569.7977016599998,None,,,,,,,,,,,,,,,,,,,,,,,,,,,,,,,,,,,,,,,,,,,,,,,,,,,,,23,001,0,27,400,425,2022_Oct_17_1427,Experiment,2021.1.4,360.40841483647597,
images\S1_F_S_01.png,images\S1_F_S_01_scrambled.png,1,sad,-10,female,3,,424,on,2,0.5,0.75,0.5,0.829,3,423,2,1,1,2,2,32,128,163,,,,,,0,81,81,81,,,,,,,,,,,,,,,,,,,,,,,,,,,,,,,,,,,,,,,,,,,,,,,,,,,,,,,,,569.8448761000018,570.3503044000008,570.3503044000008,571.1028506999992,571.1028506999992,571.6026829999992,571.6026829999992,572.4413979000001,572.4413979000001,None,num_4,0.10250200000155019,572.4413979000001,None,happy,1,Sad,572.5551739700022,None,None,572.5551739700022,None,,,,,,,,,,,,,,,,,,,,,,,,,,,,,,,,,,,,,,,,,,,,,,,,,,,,,23,001,0,27,400,425,2022_Oct_17_1427,Experiment,2021.1.4,360.40841483647597,
images\blank.jpg,images\blank.jpg,none,none,none,none,0,,617,on,2,0.5,0.75,0.5,0.822,0,616,3,1,1,3,3,48,192,240,,,,,,0,82,82,82,,,,,,,,,,,,,,,,,,,,,,,,,,,,,,,,,,,,,,,,,,,,,,,,,,,,,,,,,572.6497691000022,573.1549665000002,573.1549665000002,573.9047351999998,573.9047351999998,574.4045520000018,574.4045520000018,575.2266074000017,575.2266074000017,575.2266074000017,None,,575.2266074000017,None,miss,1,,578.2284372899994,None,None,578.2284372899994,None,,,,,,,,,,,,,,,,,,,,,,,,,,,,,,,,,,,,,,,,,,,,,,,,,,,,,23,001,0,27,400,425,2022_Oct_17_1427,Experiment,2021.1.4,360.40841483647597,
images\S8_M_S_03.png,images\S8_M_S_03_scrambled.png,8,sad,-30,male,1,,468,on,2,0.5,0.75,0.5,0.898,3,467,4,1,1,2,2,32,128,161,,,,,,0,83,83,83,,,,,,,,,,,,,,,,,,,,,,,,,,,,,,,,,,,,,,,,,,,,,,,,,,,,,,,,,578.3425334000003,578.8449395000007,578.8449395000007,579.6002352000014,579.6002352000014,580.1056437000025,580.1056437000025,581.0081437000026,581.0081437000026,None,num_6,0.3434981999998854,581.0081437000026,578.3425334000003,sad,1,Sad,581.3663662599993,None,None,581.3663662599993,None,,,,,,,,,,,,,,,,,,,,,,,,,,,,,,,,,,,,,,,,,,,,,,,,,,,,,23,001,0,27,400,425,2022_Oct_17_1427,Experiment,2021.1.4,360.40841483647597,
images\S10_M_H_01.png,images\S10_M_H_01_scrambled.png,10,happy,10,male,4,,355,on,2,0.5,0.75,0.5,0.913,3,354,5,1,1,2,2,32,128,164,,,,,,0,84,84,84,,,,,,,,,,,,,,,,,,,,,,,,,,,,,,,,,,,,,,,,,,,,,,,,,,,,,,,,,581.413540800002,581.9133870000023,581.9133870000023,582.6659606000012,582.6659606000012,583.1686841999999,583.1686841999999,584.0849830999996,584.0849830999996,None,num_4,0.4985121000026993,584.0849830999996,None,happy,1,Happy,584.6014866599999,None,None,584.6014866599999,None,,,,,,,,,,,,,,,,,,,,,,,,,,,,,,,,,,,,,,,,,,,,,,,,,,,,,23,001,0,27,400,425,2022_Oct_17_1427,Experiment,2021.1.4,360.40841483647597,
images\S4_M_H_03.png,images\S4_M_H_03_scrambled.png,4,happy,30,male,6,,21,off,1,0.5,0.75,0.5,0.832,3,20,1,1,1,0,0,0,0,6,,,,,,0,85,85,85,,,,,,,,,,,,,,,,,,,,,,,,,,,,,,,,,,,,,,,,,,,,,,,,,,,,,,,,,584.6514427999991,585.1540755000005,585.1540755000005,585.9038525000014,585.9038525000014,586.4064804999998,586.4064804999998,587.2451352000007,587.2451352000007,None,num_6,0.30641169999944395,587.2451352000007,None,sad,1,Happy,587.5561432800005,None,None,587.5561432800005,None,,,,,,,,,,,,,,,,,,,,,,,,,,,,,,,,,,,,,,,,,,,,,,,,,,,,,23,001,0,27,400,425,2022_Oct_17_1427,Experiment,2021.1.4,360.40841483647597,
images\S6_M_S_01.png,images\S6_M_S_01_scrambled.png,6,sad,-10,male,3,,334,on,2,0.5,0.75,0.5,0.922,3,333,1,1,1,2,2,32,128,163,,,,,,0,86,86,86,,,,,,,,,,,,,,,,,,,,,,,,,,,,,,,,,,,,,,,,,,,,,,,,,,,,,,,,,587.6033112999994,588.1059547000023,588.1059547000023,588.8585183000014,588.8585183000014,589.3611247999997,589.3611247999997,590.2858441000008,590.2858441000008,None,num_6,0.48999280000134604,590.2858441000008,None,sad,1,Sad,590.7858311600012,None,None,590.7858311600012,None,,,,,,,,,,,,,,,,,,,,,,,,,,,,,,,,,,,,,,,,,,,,,,,,,,,,,23,001,0,27,400,425,2022_Oct_17_1427,Experiment,2021.1.4,360.40841483647597,
images\S6_M_S_02.png,images\S6_M_S_02_scrambled.png,6,sad,-20,male,2,,455,on,2,0.5,0.75,0.5,0.751,3,454,2,2,1,2,2,32,128,162,,,,,,0,87,87,87,,,,,,,,,,,,,,,,,,,,,,,,,,,,,,,,,,,,,,,,,,,,,,,,,,,,,,,,,590.8328667000005,591.3355348000023,591.3355348000023,592.0852586000019,592.0852586000019,592.5906962000026,592.5906962000026,593.3488875000021,593.3488875000021,None,num_6,0.4111235999989731,593.3488875000021,None,sad,1,Sad,593.7710042599992,None,None,593.7710042599992,None,,,,,,,,,,,,,,,,,,,,,,,,,,,,,,,,,,,,,,,,,,,,,,,,,,,,,23,001,0,27,400,425,2022_Oct_17_1427,Experiment,2021.1.4,360.40841483647597,
images\S6_M_H_01.png,images\S6_M_H_01_scrambled.png,6,happy,10,male,4,,91,on,2,0.5,0.75,0.5,0.912,3,90,3,3,1,2,2,32,128,164,,,,,,0,88,88,88,,,,,,,,,,,,,,,,,,,,,,,,,,,,,,,,,,,,,,,,,,,,,,,,,,,,,,,,,593.818068300001,594.3206827000013,594.3206827000013,595.0732294999998,595.0732294999998,595.5787809000012,595.5787809000012,596.495060700001,596.495060700001,None,num_6,0.576703799997631,596.495060700001,None,sad,1,Happy,597.0809704799995,None,None,597.0809704799995,None,,,,,,,,,,,,,,,,,,,,,,,,,,,,,,,,,,,,,,,,,,,,,,,,,,,,,23,001,0,27,400,425,2022_Oct_17_1427,Experiment,2021.1.4,360.40841483647597,
images\blank.jpg,images\blank.jpg,none,none,none,none,0,,618,on,2,0.5,0.75,0.5,0.947,0,617,4,1,1,3,3,48,192,240,,,,,,0,89,89,89,,,,,,,,,,,,,,,,,,,,,,,,,,,,,,,,,,,,,,,,,,,,,,,,,,,,,,,,,597.1645313000026,597.6641184000018,597.6641184000018,598.4138985000009,598.4138985000009,598.9137107000006,598.9137107000006,599.8634634999999,599.8634634999999,599.8634634999999,None,,599.8634634999999,None,miss,1,,602.8653537800001,None,None,602.8653537800001,None,,,,,,,,,,,,,,,,,,,,,,,,,,,,,,,,,,,,,,,,,,,,,,,,,,,,,23,001,0,27,400,425,2022_Oct_17_1427,Experiment,2021.1.4,360.40841483647597,
images\S7_F_H_02.png,images\S7_F_H_02_scrambled.png,7,happy,20,female,5,,98,on,2,0.5,0.75,0.5,0.868,3,97,5,1,1,2,2,32,128,165,,,,,,0,90,90,90,,,,,,,,,,,,,,,,,,,,,,,,,,,,,,,,,,,,,,,,,,,,,,,,,,,,,,,,,602.9848714000018,603.4901138000005,603.4901138000005,604.2454476000003,604.2454476000003,604.7508517000006,604.7508517000006,605.6199806000022,605.6199806000022,None,num_4,0.33977210000011837,605.6199806000022,602.9848714000018,happy,1,Happy,605.9726610599992,None,None,605.9726610599992,None,,,,,,,,,,,,,,,,,,,,,,,,,,,,,,,,,,,,,,,,,,,,,,,,,,,,,23,001,0,27,400,425,2022_Oct_17_1427,Experiment,2021.1.4,360.40841483647597,
images\S2_M_H_01.png,images\S2_M_H_01_scrambled.png,2,happy,10,male,4,,187,on,2,0.5,0.75,0.5,0.927,3,186,6,1,1,2,2,32,128,164,,,,,,0,91,91,91,,,,,,,,,,,,,,,,,,,,,,,,,,,,,,,,,,,,,,,,,,,,,,,,,,,,,,,,,606.0198705000021,606.5225005000011,606.5225005000011,607.2750402000001,607.2750402000001,607.774875000001,607.774875000001,608.7052048000023,608.7052048000023,None,num_6,0.3824700000004668,608.7052048000023,None,sad,1,Happy,609.0967002800007,None,None,609.0967002800007,None,,,,,,,,,,,,,,,,,,,,,,,,,,,,,,,,,,,,,,,,,,,,,,,,,,,,,23,001,0,27,400,425,2022_Oct_17_1427,Experiment,2021.1.4,360.40841483647597,
images\S1_F_H_03.png,images\S1_F_H_03_scrambled.png,1,happy,30,female,6,,303,on,2,0.5,0.75,0.5,0.883,3,302,7,1,1,2,2,32,128,166,,,,,,0,92,92,92,,,,,,,,,,,,,,,,,,,,,,,,,,,,,,,,,,,,,,,,,,,,,,,,,,,,,,,,,609.1439045000025,609.6465441000018,609.6465441000018,610.4018699999997,610.4018699999997,610.9046117000016,610.9046117000016,611.793116400002,611.793116400002,None,num_4,0.4465998000014224,611.793116400002,None,happy,1,Happy,612.2540853600021,None,None,612.2540853600021,None,,,,,,,,,,,,,,,,,,,,,,,,,,,,,,,,,,,,,,,,,,,,,,,,,,,,,23,001,0,27,400,425,2022_Oct_17_1427,Experiment,2021.1.4,360.40841483647597,
images\S2_M_S_02.png,images\S2_M_S_02_scrambled.png,2,sad,-20,male,2,,131,off,1,0.5,0.75,0.5,0.932,3,130,1,1,1,0,0,0,0,2,,,,,,0,93,93,93,,,,,,,,,,,,,,,,,,,,,,,,,,,,,,,,,,,,,,,,,,,,,,,,,,,,,,,,,612.3012598000005,612.8066635000014,612.8066635000014,613.5592419000004,613.5592419000004,614.0647102000021,614.0647102000021,615.0004391999992,615.0004391999992,None,num_6,0.3831290000016452,615.0004391999992,None,sad,1,Sad,615.3975476600008,None,None,615.3975476600008,None,,,,,,,,,,,,,,,,,,,,,,,,,,,,,,,,,,,,,,,,,,,,,,,,,,,,,23,001,0,27,400,425,2022_Oct_17_1427,Experiment,2021.1.4,360.40841483647597,
images\S9_F_S_01.png,images\S9_F_S_01_scrambled.png,9,sad,-10,female,3,,412,off,1,0.5,0.75,0.5,0.876,3,411,2,1,1,0,0,0,0,3,,,,,,0,94,94,94,,,,,,,,,,,,,,,,,,,,,,,,,,,,,,,,,,,,,,,,,,,,,,,,,,,,,,,,,615.4447449000018,615.9473827999991,615.9473827999991,616.6971490000014,616.6971490000014,617.1998136999991,617.1998136999991,618.0800800000015,618.0800800000015,None,num_4,1.0235094999989087,618.0800800000015,None,happy,1,Sad,619.110291580002,None,None,619.110291580002,None,,,,,,,,,,,,,,,,,,,,,,,,,,,,,,,,,,,,,,,,,,,,,,,,,,,,,23,001,0,27,400,425,2022_Oct_17_1427,Experiment,2021.1.4,360.40841483647597,
images\S10_M_H_01.png,images\S10_M_H_01_scrambled.png,10,happy,10,male,4,,415,off,1,0.5,0.75,0.5,0.819,3,414,3,1,1,0,0,0,0,4,,,,,,0,95,95,95,,,,,,,,,,,,,,,,,,,,,,,,,,,,,,,,,,,,,,,,,,,,,,,,,,,,,,,,,619.1574942999996,619.6601333000017,619.6601333000017,620.4098924000009,620.4098924000009,620.9125495000026,620.9125495000026,621.7316976999991,621.7316976999991,None,num_4,0.25227040000027046,621.7316976999991,None,happy,1,Happy,622.0012616399999,None,None,622.0012616399999,None,,,,,,,,,,,,,,,,,,,,,,,,,,,,,,,,,,,,,,,,,,,,,,,,,,,,,23,001,0,27,400,425,2022_Oct_17_1427,Experiment,2021.1.4,360.40841483647597,
images\S7_F_S_03.png,images\S7_F_S_03_scrambled.png,7,sad,-30,female,1,,402,off,1,0.5,0.75,0.5,0.918,3,401,4,1,1,0,0,0,0,1,,,,,,0,96,96,96,,,,,,,,,,,,,,,,,,,,,,,,,,,,,,,,,,,,,,,,,,,,,,,,,,,,,,,,,622.0538225,622.5564663999994,622.5564663999994,623.3091285999999,623.3091285999999,623.814510000002,623.814510000002,624.7363717000026,624.7363717000026,None,num_6,0.4792766999999003,624.7363717000026,None,sad,1,Sad,625.2306401600017,None,None,625.2306401600017,None,,,,,,,,,,,,,,,,,,,,,,,,,,,,,,,,,,,,,,,,,,,,,,,,,,,,,23,001,0,27,400,425,2022_Oct_17_1427,Experiment,2021.1.4,360.40841483647597,
images\S9_F_S_03.png,images\S9_F_S_03_scrambled.png,9,sad,-30,female,1,,534,off,1,0.5,0.75,0.5,0.91,3,533,5,1,2,0,0,0,0,1,,,,,,0,97,97,97,,,,,,,,,,,,,,,,,,,,,,,,,,,,,,,,,,,,,,,,,,,,,,,,,,,,,,,,,625.2778335999992,625.7776766000006,625.7776766000006,626.5302729000014,626.5302729000014,627.0356650000012,627.0356650000012,627.9492417999991,627.9492417999991,None,num_6,0.27446580000105314,627.9492417999991,None,sad,1,Sad,628.2492110200019,None,None,628.2492110200019,None,,,,,,,,,,,,,,,,,,,,,,,,,,,,,,,,,,,,,,,,,,,,,,,,,,,,,23,001,0,27,400,425,2022_Oct_17_1427,Experiment,2021.1.4,360.40841483647597,
images\blank.jpg,images\blank.jpg,none,none,none,none,0,,648,on,2,0.5,0.75,0.5,0.773,0,647,1,1,1,3,3,48,192,240,,,,,,0,98,98,98,,,,,,,,,,,,,,,,,,,,,,,,,,,,,,,,,,,,,,,,,,,,,,,,,,,,,,,,,628.3381917000024,628.8406288000024,628.8406288000024,629.5931746000006,629.5931746000006,630.0986904000001,630.0986904000001,630.8761413000011,630.8761413000011,630.8761413000011,None,,630.8761413000011,None,miss,1,,633.8808192800007,None,None,633.8808192800007,None,,,,,,,,,,,,,,,,,,,,,,,,,,,,,,,,,,,,,,,,,,,,,,,,,,,,,23,001,0,27,400,425,2022_Oct_17_1427,Experiment,2021.1.4,360.40841483647597,
images\S5_F_H_02.png,images\S5_F_H_02_scrambled.png,5,happy,20,female,5,,206,on,2,0.5,0.75,0.5,0.786,3,205,2,1,1,2,2,32,128,165,,,,,,0,99,99,99,,,,,,,,,,,,,,,,,,,,,,,,,,,,,,,,,,,,,,,,,,,,,,,,,,,,,,,,,634.0003355999997,634.5000052000014,634.5000052000014,635.2553654999992,635.2553654999992,635.7579401999992,635.7579401999992,636.5466109000026,636.5466109000026,None,num_4,0.3333435999993526,636.5466109000026,634.0003355999997,happy,1,Happy,636.893726960001,None,None,636.893726960001,None,,,,,,,,,,,,,,,,,,,,,,,,,,,,,,,,,,,,,,,,,,,,,,,,,,,,,23,001,0,27,400,425,2022_Oct_17_1427,Experiment,2021.1.4,360.40841483647597,
images\S2_M_H_03.png,images\S2_M_H_03_scrambled.png,2,happy,30,male,6,,369,off,1,0.5,0.75,0.5,0.85,3,368,1,1,1,0,0,0,0,6,,,,,,0,100,100,100,,,,,,,,,,,,,,,,,,,,,,,,,,,,,,,,,,,,,,,,,,,,,,,,,,,,,,,,,636.9409140000007,637.4435661000007,637.4435661000007,638.1989751000019,638.1989751000019,638.7015066000004,638.7015066000004,639.5541200000025,639.5541200000025,None,num_4,0.2135229999985313,639.5541200000025,None,happy,1,Happy,639.7901580199996,None,None,639.7901580199996,None,,,,,,,,,,,,,,,,,,,,,,,,,,,,,,,,,,,,,,,,,,,,,,,,,,,,,23,001,0,27,400,425,2022_Oct_17_1427,Experiment,2021.1.4,360.40841483647597,
images\S5_F_S_01.png,images\S5_F_S_01_scrambled.png,5,sad,-10,female,3,,568,on,2,0.5,0.75,0.5,0.801,3,567,1,1,1,2,2,32,128,163,,,,,,0,101,101,101,,,,,,,,,,,,,,,,,,,,,,,,,,,,,,,,,,,,,,,,,,,,,,,,,,,,,,,,,639.842806300001,640.3483393000006,640.3483393000006,641.0980064000014,641.0980064000014,641.6006268000001,641.6006268000001,642.4088018999992,642.4088018999992,None,num_4,0.46305470000152127,642.4088018999992,None,happy,1,Sad,642.8807332800006,None,None,642.8807332800006,None,,,,,,,,,,,,,,,,,,,,,,,,,,,,,,,,,,,,,,,,,,,,,,,,,,,,,23,001,0,27,400,425,2022_Oct_17_1427,Experiment,2021.1.4,360.40841483647597,
images\S8_M_H_02.png,images\S8_M_H_02_scrambled.png,8,happy,20,male,5,,464,on,2,0.5,0.75,0.5,0.805,3,463,2,1,1,2,2,32,128,165,,,,,,0,102,102,102,,,,,,,,,,,,,,,,,,,,,,,,,,,,,,,,,,,,,,,,,,,,,,,,,,,,,,,,,642.9279659000003,643.4305826,643.4305826,644.1859368000023,644.1859368000023,644.6886548999992,644.6886548999992,645.4939076999999,645.4939076999999,None,num_4,0.7296850999991875,645.4939076999999,None,happy,1,Happy,646.2547914000006,None,None,646.2547914000006,None,,,,,,,,,,,,,,,,,,,,,,,,,,,,,,,,,,,,,,,,,,,,,,,,,,,,,23,001,0,27,400,425,2022_Oct_17_1427,Experiment,2021.1.4,360.40841483647597,
images\S3_F_H_03.png,images\S3_F_H_03_scrambled.png,3,happy,30,female,6,,135,off,1,0.5,0.75,0.5,0.764,3,134,1,1,1,0,0,0,0,6,,,,,,0,103,103,103,,,,,,,,,,,,,,,,,,,,,,,,,,,,,,,,,,,,,,,,,,,,,,,,,,,,,,,,,646.3185777000017,646.818442400001,646.818442400001,647.5682020000004,647.5682020000004,648.0737315999995,648.0737315999995,648.8400749000011,648.8400749000011,None,num_4,0.407523099998798,648.8400749000011,None,happy,1,Happy,649.2621292599997,None,None,649.2621292599997,None,,,,,,,,,,,,,,,,,,,,,,,,,,,,,,,,,,,,,,,,,,,,,,,,,,,,,23,001,0,27,400,425,2022_Oct_17_1427,Experiment,2021.1.4,360.40841483647597,
images\S2_M_H_01.png,images\S2_M_H_01_scrambled.png,2,happy,10,male,4,,547,on,2,0.5,0.75,0.5,0.774,3,546,1,1,1,2,2,32,128,164,,,,,,0,104,104,104,,,,,,,,,,,,,,,,,,,,,,,,,,,,,,,,,,,,,,,,,,,,,,,,,,,,,,,,,649.3093401000024,649.8119597999994,649.8119597999994,650.5646383000003,650.5646383000003,651.0699470000018,651.0699470000018,651.8502675,651.8502675,None,num_6,0.525440700002946,651.8502675,None,sad,1,Happy,652.3833802800018,None,None,652.3833802800018,None,,,,,,,,,,,,,,,,,,,,,,,,,,,,,,,,,,,,,,,,,,,,,,,,,,,,,23,001,0,27,400,425,2022_Oct_17_1427,Experiment,2021.1.4,360.40841483647597,
images\S9_F_H_03.png,images\S9_F_H_03_scrambled.png,9,happy,30,female,6,,531,off,1,0.5,0.75,0.5,0.868,3,530,1,1,1,0,0,0,0,6,,,,,,0,105,105,105,,,,,,,,,,,,,,,,,,,,,,,,,,,,,,,,,,,,,,,,,,,,,,,,,,,,,,,,,652.4305956000007,652.9360221000006,652.9360221000006,653.6885697000016,653.6885697000016,654.1884150000024,654.1884150000024,655.0603872000011,655.0603872000011,None,num_4,0.29942940000182716,655.0603872000011,None,happy,1,Happy,655.3741452600025,None,None,655.3741452600025,None,,,,,,,,,,,,,,,,,,,,,,,,,,,,,,,,,,,,,,,,,,,,,,,,,,,,,23,001,0,27,400,425,2022_Oct_17_1427,Experiment,2021.1.4,360.40841483647597,
images\S2_M_S_03.png,images\S2_M_S_03_scrambled.png,2,sad,-30,male,1,,252,off,1,0.5,0.75,0.5,0.921,3,251,2,1,1,0,0,0,0,1,,,,,,0,106,106,106,,,,,,,,,,,,,,,,,,,,,,,,,,,,,,,,,,,,,,,,,,,,,,,,,,,,,,,,,655.4434966000026,655.9462073000013,655.9462073000013,656.6959518999993,656.6959518999993,657.1987019999997,657.1987019999997,658.1233293000023,658.1233293000023,None,num_6,0.9641934000028414,658.1233293000023,None,sad,1,Sad,659.1007818599992,None,None,659.1007818599992,None,,,,,,,,,,,,,,,,,,,,,,,,,,,,,,,,,,,,,,,,,,,,,,,,,,,,,23,001,0,27,400,425,2022_Oct_17_1427,Experiment,2021.1.4,360.40841483647597,
images\S4_M_H_02.png,images\S4_M_H_02_scrambled.png,4,happy,20,male,5,,80,on,2,0.5,0.75,0.5,0.756,3,79,1,1,1,2,2,32,128,165,,,,,,0,107,107,107,,,,,,,,,,,,,,,,,,,,,,,,,,,,,,,,,,,,,,,,,,,,,,,,,,,,,,,,,659.1479818000025,659.6506420999995,659.6506420999995,660.4003706999993,660.4003706999993,660.9029883000021,660.9029883000021,661.6611186999999,661.6611186999999,None,num_4,0.49058770000192453,661.6611186999999,None,happy,1,Happy,662.1665373600026,None,None,662.1665373600026,None,,,,,,,,,,,,,,,,,,,,,,,,,,,,,,,,,,,,,,,,,,,,,,,,,,,,,23,001,0,27,400,425,2022_Oct_17_1427,Experiment,2021.1.4,360.40841483647597,
images\S9_F_S_01.png,images\S9_F_S_01_scrambled.png,9,sad,-10,female,3,,352,on,2,0.5,0.75,0.5,0.83,3,351,2,1,1,2,2,32,128,163,,,,,,0,108,108,108,,,,,,,,,,,,,,,,,,,,,,,,,,,,,,,,,,,,,,,,,,,,,,,,,,,,,,,,,662.2137034999996,662.716319600002,662.716319600002,663.4690111,663.4690111,663.9715081000013,663.9715081000013,664.804646300001,664.804646300001,None,num_4,1.250892500000191,664.804646300001,None,happy,1,Sad,666.0653072799996,None,None,666.0653072799996,None,,,,,,,,,,,,,,,,,,,,,,,,,,,,,,,,,,,,,,,,,,,,,,,,,,,,,23,001,0,27,400,425,2022_Oct_17_1427,Experiment,2021.1.4,360.40841483647597,
images\S9_F_S_01.png,images\S9_F_S_01_scrambled.png,9,sad,-10,female,3,,532,off,1,0.5,0.75,0.5,0.852,3,531,1,2,2,0,0,0,0,3,,,,,,0,109,109,109,,,,,,,,,,,,,,,,,,,,,,,,,,,,,,,,,,,,,,,,,,,,,,,,,,,,,,,,,666.1125229000008,666.6151832000014,666.6151832000014,667.3676797999997,667.3676797999997,667.8703341000019,667.8703341000019,668.7256338000025,668.7256338000025,None,num_4,0.3380130999976245,668.7256338000025,None,happy,1,Sad,669.0727201800019,None,None,669.0727201800019,None,,,,,,,,,,,,,,,,,,,,,,,,,,,,,,,,,,,,,,,,,,,,,,,,,,,,,23,001,0,27,400,425,2022_Oct_17_1427,Experiment,2021.1.4,360.40841483647597,
images\S1_F_H_02.png,images\S1_F_H_02_scrambled.png,1,happy,20,female,5,,482,off,1,0.5,0.75,0.5,0.886,3,481,2,1,1,0,0,0,0,5,,,,,,0,110,110,110,,,,,,,,,,,,,,,,,,,,,,,,,,,,,,,,,,,,,,,,,,,,,,,,,,,,,,,,,669.1199500999992,669.6253350999996,669.6253350999996,670.3806624000008,670.3806624000008,670.8832998000016,670.8832998000016,671.7691123999994,671.7691123999994,None,num_4,0.9667549000005238,671.7691123999994,None,happy,1,Happy,672.7493543600012,None,None,672.7493543600012,None,,,,,,,,,,,,,,,,,,,,,,,,,,,,,,,,,,,,,,,,,,,,,,,,,,,,,23,001,0,27,400,425,2022_Oct_17_1427,Experiment,2021.1.4,360.40841483647597,
images\S1_F_H_03.png,images\S1_F_H_03_scrambled.png,1,happy,30,female,6,,543,on,2,0.5,0.75,0.5,0.848,3,542,1,2,1,2,2,32,128,166,,,,,,0,111,111,111,,,,,,,,,,,,,,,,,,,,,,,,,,,,,,,,,,,,,,,,,,,,,,,,,,,,,,,,,672.796558,673.3019707000003,673.3019707000003,674.057299500002,674.057299500002,674.5599493999998,674.5599493999998,675.4124305999994,675.4124305999994,None,num_4,0.5392950999994355,675.4124305999994,None,happy,1,Happy,675.9734179299994,None,None,675.9734179299994,None,,,,,,,,,,,,,,,,,,,,,,,,,,,,,,,,,,,,,,,,,,,,,,,,,,,,,23,001,0,27,400,425,2022_Oct_17_1427,Experiment,2021.1.4,360.40841483647597,
images\blank.jpg,images\blank.jpg,none,none,none,none,0,,606,on,2,0.5,0.75,0.5,0.84,0,605,2,1,1,3,3,48,192,240,,,,,,0,112,112,112,,,,,,,,,,,,,,,,,,,,,,,,,,,,,,,,,,,,,,,,,,,,,,,,,,,,,,,,,676.0623940999994,676.567627800001,676.567627800001,677.3173963999998,677.3173963999998,677.8200582000009,677.8200582000009,678.6643297999999,678.6643297999999,678.6643297999999,None,,678.6643297999999,None,miss,1,,681.6661331800005,None,None,681.6661331800005,None,,,,,,,,,,,,,,,,,,,,,,,,,,,,,,,,,,,,,,,,,,,,,,,,,,,,,23,001,0,27,400,425,2022_Oct_17_1427,Experiment,2021.1.4,360.40841483647597,
images\S1_F_S_02.png,images\S1_F_S_02_scrambled.png,1,sad,-20,female,2,,305,on,2,0.5,0.75,0.5,0.855,3,304,3,1,1,2,2,32,128,162,,,,,,0,113,113,113,,,,,,,,,,,,,,,,,,,,,,,,,,,,,,,,,,,,,,,,,,,,,,,,,,,,,,,,,681.7885045000021,682.2908933000017,682.2908933000017,683.0435395000004,683.0435395000004,683.5432801000006,683.5432801000006,684.4013391000026,684.4013391000026,None,num_6,0.37432059999991907,684.4013391000026,681.7885045000021,sad,1,Sad,684.8068178000012,None,None,684.8068178000012,None,,,,,,,,,,,,,,,,,,,,,,,,,,,,,,,,,,,,,,,,,,,,,,,,,,,,,23,001,0,27,400,425,2022_Oct_17_1427,Experiment,2021.1.4,360.40841483647597,
images\S10_M_S_01.png,images\S10_M_S_01_scrambled.png,10,sad,-10,male,3,,238,on,2,0.5,0.75,0.5,0.811,3,237,4,1,1,2,2,32,128,163,,,,,,0,114,114,114,,,,,,,,,,,,,,,,,,,,,,,,,,,,,,,,,,,,,,,,,,,,,,,,,,,,,,,,,684.8595172000005,685.3621500000027,685.3621500000027,686.1147753999994,686.1147753999994,686.6201283999999,686.6201283999999,687.4309460999993,687.4309460999993,None,num_6,0.5688421999984712,687.4309460999993,None,sad,1,Sad,688.01695415,None,None,688.01695415,None,,,,,,,,,,,,,,,,,,,,,,,,,,,,,,,,,,,,,,,,,,,,,,,,,,,,,23,001,0,27,400,425,2022_Oct_17_1427,Experiment,2021.1.4,360.40841483647597,
images\S8_M_H_02.png,images\S8_M_H_02_scrambled.png,8,happy,20,male,5,,404,off,1,0.5,0.75,0.5,0.795,3,403,1,1,1,0,0,0,0,5,,,,,,0,115,115,115,,,,,,,,,,,,,,,,,,,,,,,,,,,,,,,,,,,,,,,,,,,,,,,,,,,,,,,,,688.0668661,688.5722745000003,688.5722745000003,689.3248293000015,689.3248293000015,689.8302495000007,689.8302495000007,690.6300060000012,690.6300060000012,None,num_6,1.833469499997591,690.6300060000012,None,sad,1,Happy,692.4683216800022,None,None,692.4683216800022,None,,,,,,,,,,,,,,,,,,,,,,,,,,,,,,,,,,,,,,,,,,,,,,,,,,,,,23,001,0,27,400,425,2022_Oct_17_1427,Experiment,2021.1.4,360.40841483647597,
images\S7_F_H_01.png,images\S7_F_H_01_scrambled.png,7,happy,10,female,4,,37,off,1,0.5,0.75,0.5,0.851,3,36,2,1,1,0,0,0,0,4,,,,,,0,116,116,116,,,,,,,,,,,,,,,,,,,,,,,,,,,,,,,,,,,,,,,,,,,,,,,,,,,,,,,,,692.5154918000026,693.0208952000012,693.0208952000012,693.7706543000004,693.7706543000004,694.2705493000012,694.2705493000012,695.1287181000025,695.1287181000025,None,num_6,0.5026488000003155,695.1287181000025,None,sad,1,Happy,695.636757180002,None,None,695.636757180002,None,,,,,,,,,,,,,,,,,,,,,,,,,,,,,,,,,,,,,,,,,,,,,,,,,,,,,23,001,0,27,400,425,2022_Oct_17_1427,Experiment,2021.1.4,360.40841483647597,
images\S8_M_S_03.png,images\S8_M_S_03_scrambled.png,8,sad,-30,male,1,,48,off,1,0.5,0.75,0.5,0.753,3,47,3,1,1,0,0,0,0,1,,,,,,0,117,117,117,,,,,,,,,,,,,,,,,,,,,,,,,,,,,,,,,,,,,,,,,,,,,,,,,,,,,,,,,695.6839587000013,696.1894967000026,696.1894967000026,696.939161100001,696.939161100001,697.4446313999997,697.4446313999997,698.1998585999991,698.1998585999991,None,num_6,0.2955669000002672,698.1998585999991,None,sad,1,Sad,698.5165465400005,None,None,698.5165465400005,None,,,,,,,,,,,,,,,,,,,,,,,,,,,,,,,,,,,,,,,,,,,,,,,,,,,,,23,001,0,27,400,425,2022_Oct_17_1427,Experiment,2021.1.4,360.40841483647597,
images\S2_M_S_03.png,images\S2_M_S_03_scrambled.png,2,sad,-30,male,1,,132,off,1,0.5,0.75,0.5,0.817,3,131,4,1,2,0,0,0,0,1,,,,,,0,118,118,118,,,,,,,,,,,,,,,,,,,,,,,,,,,,,,,,,,,,,,,,,,,,,,,,,,,,,,,,,698.5691920000008,699.0746479999998,699.0746479999998,699.8299701000014,699.8299701000014,700.3325763000012,700.3325763000012,701.1517466999994,701.1517466999994,None,num_6,0.03974020000168821,701.1517466999994,None,sad,1,Sad,701.204488360001,None,None,701.204488360001,None,,,,,,,,,,,,,,,,,,,,,,,,,,,,,,,,,,,,,,,,,,,,,,,,,,,,,23,001,0,27,400,425,2022_Oct_17_1427,Experiment,2021.1.4,360.40841483647597,
images\S10_M_H_03.png,images\S10_M_H_03_scrambled.png,10,happy,30,male,6,,537,off,1,0.5,0.75,0.5,0.852,3,536,5,1,1,0,0,0,0,6,,,,,,0,119,119,119,,,,,,,,,,,,,,,,,,,,,,,,,,,,,,,,,,,,,,,,,,,,,,,,,,,,,,,,,701.2517055000008,701.7544494000012,701.7544494000012,702.5097332000023,702.5097332000023,703.0150922000012,703.0150922000012,703.8703755000006,703.8703755000006,None,num_4,0.3055641999999352,703.8703755000006,None,happy,1,Happy,704.1981925300024,None,None,704.1981925300024,None,,,,,,,,,,,,,,,,,,,,,,,,,,,,,,,,,,,,,,,,,,,,,,,,,,,,,23,001,0,27,400,425,2022_Oct_17_1427,Experiment,2021.1.4,360.40841483647597,
images\S8_M_H_01.png,images\S8_M_H_01_scrambled.png,8,happy,10,male,4,,103,on,2,0.5,0.75,0.5,0.78,3,102,1,1,1,2,2,32,128,164,,,,,,0,120,120,120,,,,,,,,,,,,,,,,,,,,,,,,,,,,,,,,,,,,,,,,,,,,,,,,,,,,,,,,,704.2479973999998,704.7506670000021,704.7506670000021,705.5031717000002,705.5031717000002,706.0057909000006,706.0057909000006,706.7890214000017,706.7890214000017,None,num_6,0.3064860000013141,706.7890214000017,None,sad,1,Happy,707.1026740800025,None,None,707.1026740800025,None,,,,,,,,,,,,,,,,,,,,,,,,,,,,,,,,,,,,,,,,,,,,,,,,,,,,,23,001,0,27,400,425,2022_Oct_17_1427,Experiment,2021.1.4,360.40841483647597,
images\S4_M_H_02.png,images\S4_M_H_02_scrambled.png,4,happy,20,male,5,,380,off,1,0.5,0.75,0.5,0.862,3,379,1,1,1,0,0,0,0,5,,,,,,0,121,121,121,,,,,,,,,,,,,,,,,,,,,,,,,,,,,,,,,,,,,,,,,,,,,,,,,,,,,,,,,707.1499000999993,707.6497247000025,707.6497247000025,708.4022913999997,708.4022913999997,708.9049547000013,708.9049547000013,709.771326600001,709.771326600001,None,num_6,0.3561724999999569,709.771326600001,None,sad,1,Happy,710.1350784799997,None,None,710.1350784799997,None,,,,,,,,,,,,,,,,,,,,,,,,,,,,,,,,,,,,,,,,,,,,,,,,,,,,,23,001,0,27,400,425,2022_Oct_17_1427,Experiment,2021.1.4,360.40841483647597,
images\S10_M_S_02.png,images\S10_M_S_02_scrambled.png,10,sad,-20,male,2,,539,off,1,0.5,0.75,0.5,0.776,3,538,2,1,1,0,0,0,0,2,,,,,,0,122,122,122,,,,,,,,,,,,,,,,,,,,,,,,,,,,,,,,,,,,,,,,,,,,,,,,,,,,,,,,,710.1822983000002,710.6849641999997,710.6849641999997,711.440268700002,711.440268700002,711.9456728000023,711.9456728000023,712.7288444999995,712.7288444999995,None,num_6,1.5269134999980452,712.7288444999995,None,sad,1,Sad,714.2727336600019,None,None,714.2727336600019,None,,,,,,,,,,,,,,,,,,,,,,,,,,,,,,,,,,,,,,,,,,,,,,,,,,,,,23,001,0,27,400,425,2022_Oct_17_1427,Experiment,2021.1.4,360.40841483647597,
images\S2_M_S_03.png,images\S2_M_S_03_scrambled.png,2,sad,-30,male,1,,372,off,1,0.5,0.75,0.5,0.786,3,371,3,1,1,0,0,0,0,1,,,,,,0,123,123,123,,,,,,,,,,,,,,,,,,,,,,,,,,,,,,,,,,,,,,,,,,,,,,,,,,,,,,,,,714.3198986000007,714.8197705000002,714.8197705000002,715.5695381999994,715.5695381999994,716.0721534000022,716.0721534000022,716.8608167000002,716.8608167000002,None,num_6,0.6027418999983638,716.8608167000002,None,sad,1,Sad,717.4773280600002,None,None,717.4773280600002,None,,,,,,,,,,,,,,,,,,,,,,,,,,,,,,,,,,,,,,,,,,,,,,,,,,,,,23,001,0,27,400,425,2022_Oct_17_1427,Experiment,2021.1.4,360.40841483647597,
images\S7_F_S_02.png,images\S7_F_S_02_scrambled.png,7,sad,-20,female,2,,101,on,2,0.5,0.75,0.5,0.775,3,100,1,1,1,2,2,32,128,162,,,,,,0,124,124,124,,,,,,,,,,,,,,,,,,,,,,,,,,,,,,,,,,,,,,,,,,,,,,,,,,,,,,,,,717.5244748000023,718.0271092000021,718.0271092000021,718.7797316000015,718.7797316000015,719.2850859000009,719.2850859000009,720.0653958999992,720.0653958999992,None,num_6,0.48639729999922565,720.0653958999992,None,sad,1,Sad,720.5736595200015,None,None,720.5736595200015,None,,,,,,,,,,,,,,,,,,,,,,,,,,,,,,,,,,,,,,,,,,,,,,,,,,,,,23,001,0,27,400,425,2022_Oct_17_1427,Experiment,2021.1.4,360.40841483647597,
images\S1_F_S_02.png,images\S1_F_S_02_scrambled.png,1,sad,-20,female,2,,185,on,2,0.5,0.75,0.5,0.858,3,184,2,1,2,2,2,32,128,162,,,,,,0,125,125,125,,,,,,,,,,,,,,,,,,,,,,,,,,,,,,,,,,,,,,,,,,,,,,,,,,,,,,,,,720.6262943999991,721.1290067999998,721.1290067999998,721.8814922000001,721.8814922000001,722.3840584000009,722.3840584000009,723.2449776000012,723.2449776000012,None,num_4,0.6185908000006748,723.2449776000012,None,happy,1,Sad,723.8697670800011,None,None,723.8697670800011,None,,,,,,,,,,,,,,,,,,,,,,,,,,,,,,,,,,,,,,,,,,,,,,,,,,,,,23,001,0,27,400,425,2022_Oct_17_1427,Experiment,2021.1.4,360.40841483647597,
images\blank.jpg,images\blank.jpg,none,none,none,none,0,,646,on,2,0.5,0.75,0.5,0.802,0,645,3,1,1,3,3,48,192,240,,,,,,0,126,126,126,,,,,,,,,,,,,,,,,,,,,,,,,,,,,,,,,,,,,,,,,,,,,,,,,,,,,,,,,723.9532531000023,724.4529034999996,724.4529034999996,725.2054707000007,725.2054707000007,725.7080657000024,725.7080657000024,726.5105745000019,726.5105745000019,726.5105745000019,None,,726.5105745000019,None,miss,1,,729.5097013900013,None,None,729.5097013900013,None,,,,,,,,,,,,,,,,,,,,,,,,,,,,,,,,,,,,,,,,,,,,,,,,,,,,,23,001,0,27,400,425,2022_Oct_17_1427,Experiment,2021.1.4,360.40841483647597,
images\S1_F_H_02.png,images\S1_F_H_02_scrambled.png,1,happy,20,female,5,,122,off,1,0.5,0.75,0.5,0.751,3,121,1,1,1,0,0,0,0,5,,,,,,0,127,127,127,,,,,,,,,,,,,,,,,,,,,,,,,,,,,,,,,,,,,,,,,,,,,,,,,,,,,,,,,729.6237118000008,730.1261896000015,730.1261896000015,730.8787274000006,730.8787274000006,731.3813109999992,731.3813109999992,732.1395591000019,732.1395591000019,None,num_4,0.38816900000165333,732.1395591000019,729.6237118000008,happy,1,Happy,732.5421160599999,None,None,732.5421160599999,None,,,,,,,,,,,,,,,,,,,,,,,,,,,,,,,,,,,,,,,,,,,,,,,,,,,,,23,001,0,27,400,425,2022_Oct_17_1427,Experiment,2021.1.4,360.40841483647597,
images\S5_F_H_02.png,images\S5_F_H_02_scrambled.png,5,happy,20,female,5,,146,off,1,0.5,0.75,0.5,0.84,3,145,2,1,2,0,0,0,0,5,,,,,,0,128,128,128,,,,,,,,,,,,,,,,,,,,,,,,,,,,,,,,,,,,,,,,,,,,,,,,,,,,,,,,,732.5892963999995,733.0947618000009,733.0947618000009,733.8472383000026,733.8472383000026,734.3498892000007,734.3498892000007,735.1941610000013,735.1941610000013,None,num_4,0.3334467999993649,735.1941610000013,None,happy,1,Happy,735.5411610600004,None,None,735.5411610600004,None,,,,,,,,,,,,,,,,,,,,,,,,,,,,,,,,,,,,,,,,,,,,,,,,,,,,,23,001,0,27,400,425,2022_Oct_17_1427,Experiment,2021.1.4,360.40841483647597,
images\S10_M_H_02.png,images\S10_M_H_02_scrambled.png,10,happy,20,male,5,,356,on,2,0.5,0.75,0.5,0.855,3,355,1,1,3,2,2,32,128,165,,,,,,0,129,129,129,,,,,,,,,,,,,,,,,,,,,,,,,,,,,,,,,,,,,,,,,,,,,,,,,,,,,,,,,735.5883660000018,736.0909846000013,736.0909846000013,736.8435673000004,736.8435673000004,737.3461541000015,737.3461541000015,738.2042227000002,738.2042227000002,None,num_4,0.595253400002548,738.2042227000002,None,happy,1,Happy,738.8123863599994,None,None,738.8123863599994,None,,,,,,,,,,,,,,,,,,,,,,,,,,,,,,,,,,,,,,,,,,,,,,,,,,,,,23,001,0,27,400,425,2022_Oct_17_1427,Experiment,2021.1.4,360.40841483647597,
images\S4_M_S_01.png,images\S4_M_S_01_scrambled.png,4,sad,-10,male,3,,82,on,2,0.5,0.75,0.5,0.856,3,81,2,1,1,2,2,32,128,163,,,,,,0,130,130,130,,,,,,,,,,,,,,,,,,,,,,,,,,,,,,,,,,,,,,,,,,,,,,,,,,,,,,,,,738.8595798000006,739.362209500001,739.362209500001,740.1119985000023,740.1119985000023,740.6146669999998,740.6146669999998,741.4726936999996,741.4726936999996,None,num_6,1.942811699998856,741.4726936999996,None,sad,1,Sad,743.4498732000011,None,space,743.4498732000011,None,34.88516759999766,,,,,,,,,,,,,,,,,,,,,,,,,,,,,,,,,,,,,,,,,,,,,,,,,,,,23,001,0,27,400,425,2022_Oct_17_1427,Experiment,2021.1.4,360.40841483647597,
images\S8_M_H_01.png,images\S8_M_H_01_scrambled.png,8,happy,10,male,4,,583,on,2,0.5,0.75,0.5,0.857,3,582,3,1,1,2,2,32,128,164,,,,,,0,131,131,131,,,,,,,,,,,,,,,,,,,,,,,,,,,,,,,,,,,,,,,,,,,,,,,,,,,,,,,,,778.3945855000002,778.8945127000025,778.8945127000025,779.6442821,779.6442821,780.1497555000005,780.1497555000005,781.0105088,781.0105088,None,num_4,0.38128230000074836,781.0105088,None,happy,1,Happy,781.4076134600018,None,None,781.4076134600018,None,,,,,,,,,,,,,,,,,,,,,,,,,,,,,,,,,,,,,,,,,,,,,,,,,,,,,23,001,0,27,400,425,2022_Oct_17_1427,Experiment,2021.1.4,360.40841483647597,
images\S4_M_S_03.png,images\S4_M_S_03_scrambled.png,4,sad,-30,male,1,,444,on,2,0.5,0.75,0.5,0.848,3,443,4,1,1,2,2,32,128,161,,,,,,0,132,132,132,,,,,,,,,,,,,,,,,,,,,,,,,,,,,,,,,,,,,,,,,,,,,,,,,,,,,,,,,781.4575870000026,781.9602140000006,781.9602140000006,782.7155767999993,782.7155767999993,783.2182020000018,783.2182020000018,784.0735858000025,784.0735858000025,None,num_6,0.342079999998532,784.0735858000025,None,sad,1,Sad,784.4261671600016,None,None,784.4261671600016,None,,,,,,,,,,,,,,,,,,,,,,,,,,,,,,,,,,,,,,,,,,,,,,,,,,,,,23,001,0,27,400,425,2022_Oct_17_1427,Experiment,2021.1.4,360.40841483647597,
images\blank.jpg,images\blank.jpg,none,none,none,none,0,,633,on,2,0.5,0.75,0.5,0.918,0,632,5,1,1,3,3,48,192,240,,,,,,0,133,133,133,,,,,,,,,,,,,,,,,,,,,,,,,,,,,,,,,,,,,,,,,,,,,,,,,,,,,,,,,784.5096362000022,785.0148769000025,785.0148769000025,785.7646163000009,785.7646163000009,786.2700649000017,786.2700649000017,787.1919952000007,787.1919952000007,787.1919952000007,None,,787.1919952000007,None,miss,1,,790.1910460899999,None,None,790.1910460899999,None,,,,,,,,,,,,,,,,,,,,,,,,,,,,,,,,,,,,,,,,,,,,,,,,,,,,,23,001,0,27,400,425,2022_Oct_17_1427,Experiment,2021.1.4,360.40841483647597,
images\S1_F_S_02.png,images\S1_F_S_02_scrambled.png,1,sad,-20,female,2,,245,off,1,0.5,0.75,0.5,0.869,3,244,1,1,1,0,0,0,0,2,,,,,,0,134,134,134,,,,,,,,,,,,,,,,,,,,,,,,,,,,,,,,,,,,,,,,,,,,,,,,,,,,,,,,,790.3051273000001,790.8103124000027,790.8103124000027,791.562884500001,791.562884500001,792.0654773000006,792.0654773000006,792.9402133999993,792.9402133999993,None,num_4,0.8756538000016008,792.9402133999993,790.3051273000001,happy,1,Sad,793.8232550800003,None,None,793.8232550800003,None,,,,,,,,,,,,,,,,,,,,,,,,,,,,,,,,,,,,,,,,,,,,,,,,,,,,,23,001,0,27,400,425,2022_Oct_17_1427,Experiment,2021.1.4,360.40841483647597,
images\S6_M_H_01.png,images\S6_M_H_01_scrambled.png,6,happy,10,male,4,,31,off,1,0.5,0.75,0.5,0.773,3,30,2,1,1,0,0,0,0,4,,,,,,0,135,135,135,,,,,,,,,,,,,,,,,,,,,,,,,,,,,,,,,,,,,,,,,,,,,,,,,,,,,,,,,793.8732242000024,794.3758414999993,794.3758414999993,795.1284321000003,795.1284321000003,795.6310352000019,795.6310352000019,796.4086900999991,796.4086900999991,None,num_4,0.3270987000032619,796.4086900999991,None,happy,1,Happy,796.7474216600003,None,None,796.7474216600003,None,,,,,,,,,,,,,,,,,,,,,,,,,,,,,,,,,,,,,,,,,,,,,,,,,,,,,23,001,0,27,400,425,2022_Oct_17_1427,Experiment,2021.1.4,360.40841483647597,
images\S2_M_S_02.png,images\S2_M_S_02_scrambled.png,2,sad,-20,male,2,,11,off,1,0.5,0.75,0.5,0.827,3,10,3,1,1,0,0,0,0,2,,,,,,0,136,136,136,,,,,,,,,,,,,,,,,,,,,,,,,,,,,,,,,,,,,,,,,,,,,,,,,,,,,,,,,796.7945512000024,797.2999939000019,797.2999939000019,798.0525484000009,798.0525484000009,798.5551131000011,798.5551131000011,799.3854549000007,799.3854549000007,None,num_6,0.37408760000107577,799.3854549000007,None,sad,1,Sad,799.7741897600008,None,None,799.7741897600008,None,,,,,,,,,,,,,,,,,,,,,,,,,,,,,,,,,,,,,,,,,,,,,,,,,,,,,23,001,0,27,400,425,2022_Oct_17_1427,Experiment,2021.1.4,360.40841483647597,
images\S5_F_H_03.png,images\S5_F_H_03_scrambled.png,5,happy,30,female,6,,267,off,1,0.5,0.75,0.5,0.908,3,266,4,1,1,0,0,0,0,6,,,,,,0,137,137,137,,,,,,,,,,,,,,,,,,,,,,,,,,,,,,,,,,,,,,,,,,,,,,,,,,,,,,,,,799.8214033000022,800.3241682000025,800.3241682000025,801.0765873,801.0765873,801.5793100999999,801.5793100999999,802.4900605000021,802.4900605000021,None,num_4,0.39766969999982393,802.4900605000021,None,happy,1,Happy,802.9122300100025,None,None,802.9122300100025,None,,,,,,,,,,,,,,,,,,,,,,,,,,,,,,,,,,,,,,,,,,,,,,,,,,,,,23,001,0,27,400,425,2022_Oct_17_1427,Experiment,2021.1.4,360.40841483647597,
images\S8_M_S_01.png,images\S8_M_S_01_scrambled.png,8,sad,-10,male,3,,346,on,2,0.5,0.75,0.5,0.773,3,345,1,1,1,2,2,32,128,163,,,,,,0,138,138,138,,,,,,,,,,,,,,,,,,,,,,,,,,,,,,,,,,,,,,,,,,,,,,,,,,,,,,,,,802.9648738000014,803.4675107999992,803.4675107999992,804.2200816999994,804.2200816999994,804.7254788000009,804.7254788000009,805.5002311000007,805.5002311000007,None,num_6,0.4355520000026445,805.5002311000007,None,sad,1,Sad,805.9473776600007,None,None,805.9473776600007,None,,,,,,,,,,,,,,,,,,,,,,,,,,,,,,,,,,,,,,,,,,,,,,,,,,,,,23,001,0,27,400,425,2022_Oct_17_1427,Experiment,2021.1.4,360.40841483647597,
