image_face,image_scram,avatar,emo,emotion,sex,trigeeg,dac,trial_no,NMES,stimtime,baseline,iti,face,scr_face,resp_time,index,count_NMES,count_avatar,count_emotion,dac1,dac2,dac1_output,dac2_output,trigs_out,nmes,practice_trials.thisRepN,practice_trials.thisTrialN,practice_trials.thisN,practice_trials.thisIndex,real_trials.thisRepN,real_trials.thisTrialN,real_trials.thisN,real_trials.thisIndex,trials.thisRepN,trials.thisTrialN,trials.thisN,trials.thisIndex,position,Welcome.started,Welcome.stopped,Welcome_resp.keys,Welcome_resp.rt,text_2.started,text_2.stopped,form_2.index,form_2.itemText,form_2.type,form_2.response,form_2.rt,key_resp_4.keys,key_resp_4.rt,key_resp_4.started,key_resp_4.stopped,instructions.started,instructions.stopped,end_instr.keys,end_instr.rt,instructions_2.started,instructions_2.stopped,end_instr_2.keys,end_instr_2.rt,end_instr_2.started,end_instr_2.stopped,instruct_keypress.started,instruct_keypress.stopped,end_instruct_keypress.keys,end_instruct_keypress.rt,start_practice.started,start_practice.stopped,start_practice_resp.keys,start_practice_resp.rt,prac_baseline.started,prac_baseline.stopped,prac_iti.started,prac_iti.stopped,prac_stimulus.started,prac_stimulus.stopped,prac_scram_stim.started,prac_scram_stim.stopped,prac_stimulus_resp.started,prac_stimulus_resp.stopped,prac_resp.keys,prac_resp.rt,prac_resp.started,prac_resp.stopped,transition_to_real.started,transition_to_real.stopped,end_transition_to_real.keys,end_transition_to_real.rt,fixation_cross.started,fixation_cross.stopped,tr_iti.started,tr_iti.stopped,stimulus.started,stimulus.stopped,scram_stim.started,scram_stim.stopped,response_txt.started,response_txt.stopped,response.keys,response.rt,response.started,response.stopped,participant_Resp,grouping,corAnswer,break_msg.started,break_msg.stopped,end_break.keys,end_break.started,end_break.stopped,end_break.rt,text.started,text.stopped,key_resp_3.keys,key_resp_3.rt,key_resp_3.started,key_resp_3.stopped,fix_cross_comf.started,fix_cross_comf.stopped,stimulation_comf.started,stimulation_comf.stopped,rate_instr.started,rate_instr.stopped,comfort_rating.response,comfort_rating.rt,comfort_rating.started,comfort_rating.stopped,resp_form.keys,resp_form.rt,resp_form.started,resp_form.stopped,survey_instructions.started,survey_instructions.stopped,key_resp_2.keys,key_resp_2.rt,key_resp_2.started,key_resp_2.stopped,form.index,form.itemText,form.type,form.response,form.rt,key_resp.keys,key_resp.rt,key_resp.started,key_resp.stopped,text_3.started,text_3.stopped,rate_smile.response,rate_smile.rt,rate_smile.started,rate_smile.stopped,key_resp_5.keys,key_resp_5.rt,key_resp_5.started,key_resp_5.stopped,end_msg.started,end_msg.stopped,end_resp.keys,end_resp.rt,end_resp.started,end_resp.stopped,participant,session,gender,age,LEFT,RIGHT,date,expName,psychopyVersion,frameRate,
,,,,,,,,,,,,,,,,,,,,,,,,,,,,,,,,,,,,,,S-H,34.570527000003494,None,num_add,6.86403380000047,,,,,,,,,,,,,,,,,,,,,,,,,,,,,,,,,,,,,,,,,,,,,,,,,,,,,,,,,,,,,,,,,,,,,,,,,,,,,,,,,,,,,,,,,,,,,,,,,,,,,,,,,,,,,,,,,,,,,,,,,,24,001,0,20,450,450,2022_Oct_18_1420,Experiment,2021.1.4,360.05155937770405,
,,,,,,,,,,,,,,,,,,,,,,,,,,,,,,,,,,,,,,,,,,,41.44482340000104,43.494216700000834,1,"This scale consistes of a number of words that describe different feelings and emotion. Read each item and then list the number from the scale below each word. Indicate (by clicking) to what extend you feel this way RIGHT NOW, that is, AT THE PRESENT MOMENT.",description,,,,,,,,,,,,,,,,,,,,,,,,,,,,,,,,,,,,,,,,,,,,,,,,,,,,,,,,,,,,,,,,,,,,,,,,,,,,,,,,,,,,,,,,,,,,,,,,,,,,,,,,,,,,,,,,,,,,,24,001,0,20,450,450,2022_Oct_18_1420,Experiment,2021.1.4,360.05155937770405,
,,,,,,,,,,,,,,,,,,,,,,,,,,,,,,,,,,,,,,,,,,,,,2,Interested,rating,4.0,12.448594299999968,,,,,,,,,,,,,,,,,,,,,,,,,,,,,,,,,,,,,,,,,,,,,,,,,,,,,,,,,,,,,,,,,,,,,,,,,,,,,,,,,,,,,,,,,,,,,,,,,,,,,,,,,,,,,,,,,,,24,001,0,20,450,450,2022_Oct_18_1420,Experiment,2021.1.4,360.05155937770405,
,,,,,,,,,,,,,,,,,,,,,,,,,,,,,,,,,,,,,,,,,,,,,3,Distressed,rating,1.0,17.136368200001016,,,,,,,,,,,,,,,,,,,,,,,,,,,,,,,,,,,,,,,,,,,,,,,,,,,,,,,,,,,,,,,,,,,,,,,,,,,,,,,,,,,,,,,,,,,,,,,,,,,,,,,,,,,,,,,,,,,24,001,0,20,450,450,2022_Oct_18_1420,Experiment,2021.1.4,360.05155937770405,
,,,,,,,,,,,,,,,,,,,,,,,,,,,,,,,,,,,,,,,,,,,,,4,Excited,rating,4.0,22.224770500000886,,,,,,,,,,,,,,,,,,,,,,,,,,,,,,,,,,,,,,,,,,,,,,,,,,,,,,,,,,,,,,,,,,,,,,,,,,,,,,,,,,,,,,,,,,,,,,,,,,,,,,,,,,,,,,,,,,,24,001,0,20,450,450,2022_Oct_18_1420,Experiment,2021.1.4,360.05155937770405,
,,,,,,,,,,,,,,,,,,,,,,,,,,,,,,,,,,,,,,,,,,,,,5,Upset,rating,2.0,29.264216199997463,,,,,,,,,,,,,,,,,,,,,,,,,,,,,,,,,,,,,,,,,,,,,,,,,,,,,,,,,,,,,,,,,,,,,,,,,,,,,,,,,,,,,,,,,,,,,,,,,,,,,,,,,,,,,,,,,,,24,001,0,20,450,450,2022_Oct_18_1420,Experiment,2021.1.4,360.05155937770405,
,,,,,,,,,,,,,,,,,,,,,,,,,,,,,,,,,,,,,,,,,,,,,6,Strong,rating,4.0,41.300333899998805,,,,,,,,,,,,,,,,,,,,,,,,,,,,,,,,,,,,,,,,,,,,,,,,,,,,,,,,,,,,,,,,,,,,,,,,,,,,,,,,,,,,,,,,,,,,,,,,,,,,,,,,,,,,,,,,,,,24,001,0,20,450,450,2022_Oct_18_1420,Experiment,2021.1.4,360.05155937770405,
,,,,,,,,,,,,,,,,,,,,,,,,,,,,,,,,,,,,,,,,,,,,,7,Guilty,rating,1.0,21.163772200001404,,,,,,,,,,,,,,,,,,,,,,,,,,,,,,,,,,,,,,,,,,,,,,,,,,,,,,,,,,,,,,,,,,,,,,,,,,,,,,,,,,,,,,,,,,,,,,,,,,,,,,,,,,,,,,,,,,,24,001,0,20,450,450,2022_Oct_18_1420,Experiment,2021.1.4,360.05155937770405,
,,,,,,,,,,,,,,,,,,,,,,,,,,,,,,,,,,,,,,,,,,,,,8,Scared,rating,2.0,23.865510800002085,,,,,,,,,,,,,,,,,,,,,,,,,,,,,,,,,,,,,,,,,,,,,,,,,,,,,,,,,,,,,,,,,,,,,,,,,,,,,,,,,,,,,,,,,,,,,,,,,,,,,,,,,,,,,,,,,,,24,001,0,20,450,450,2022_Oct_18_1420,Experiment,2021.1.4,360.05155937770405,
,,,,,,,,,,,,,,,,,,,,,,,,,,,,,,,,,,,,,,,,,,,,,9,Hostile,rating,1.0,27.382741100002022,,,,,,,,,,,,,,,,,,,,,,,,,,,,,,,,,,,,,,,,,,,,,,,,,,,,,,,,,,,,,,,,,,,,,,,,,,,,,,,,,,,,,,,,,,,,,,,,,,,,,,,,,,,,,,,,,,,24,001,0,20,450,450,2022_Oct_18_1420,Experiment,2021.1.4,360.05155937770405,
,,,,,,,,,,,,,,,,,,,,,,,,,,,,,,,,,,,,,,,,,,,,,10,Enthusiastic,rating,5.0,13.523429900000338,,,,,,,,,,,,,,,,,,,,,,,,,,,,,,,,,,,,,,,,,,,,,,,,,,,,,,,,,,,,,,,,,,,,,,,,,,,,,,,,,,,,,,,,,,,,,,,,,,,,,,,,,,,,,,,,,,,24,001,0,20,450,450,2022_Oct_18_1420,Experiment,2021.1.4,360.05155937770405,
,,,,,,,,,,,,,,,,,,,,,,,,,,,,,,,,,,,,,,,,,,,,,11,Proud,rating,5.0,13.023516099998233,,,,,,,,,,,,,,,,,,,,,,,,,,,,,,,,,,,,,,,,,,,,,,,,,,,,,,,,,,,,,,,,,,,,,,,,,,,,,,,,,,,,,,,,,,,,,,,,,,,,,,,,,,,,,,,,,,,24,001,0,20,450,450,2022_Oct_18_1420,Experiment,2021.1.4,360.05155937770405,
,,,,,,,,,,,,,,,,,,,,,,,,,,,,,,,,,,,,,,,,,,,,,12,Irritable,rating,2.0,9.41655389999869,,,,,,,,,,,,,,,,,,,,,,,,,,,,,,,,,,,,,,,,,,,,,,,,,,,,,,,,,,,,,,,,,,,,,,,,,,,,,,,,,,,,,,,,,,,,,,,,,,,,,,,,,,,,,,,,,,,24,001,0,20,450,450,2022_Oct_18_1420,Experiment,2021.1.4,360.05155937770405,
,,,,,,,,,,,,,,,,,,,,,,,,,,,,,,,,,,,,,,,,,,,,,13,Alert,rating,5.0,14.357058300000062,,,,,,,,,,,,,,,,,,,,,,,,,,,,,,,,,,,,,,,,,,,,,,,,,,,,,,,,,,,,,,,,,,,,,,,,,,,,,,,,,,,,,,,,,,,,,,,,,,,,,,,,,,,,,,,,,,,24,001,0,20,450,450,2022_Oct_18_1420,Experiment,2021.1.4,360.05155937770405,
,,,,,,,,,,,,,,,,,,,,,,,,,,,,,,,,,,,,,,,,,,,,,14,Ashamed,rating,1.0,11.400569899997208,,,,,,,,,,,,,,,,,,,,,,,,,,,,,,,,,,,,,,,,,,,,,,,,,,,,,,,,,,,,,,,,,,,,,,,,,,,,,,,,,,,,,,,,,,,,,,,,,,,,,,,,,,,,,,,,,,,24,001,0,20,450,450,2022_Oct_18_1420,Experiment,2021.1.4,360.05155937770405,
,,,,,,,,,,,,,,,,,,,,,,,,,,,,,,,,,,,,,,,,,,,,,15,Inspired,rating,5.0,10.761710599999788,,,,,,,,,,,,,,,,,,,,,,,,,,,,,,,,,,,,,,,,,,,,,,,,,,,,,,,,,,,,,,,,,,,,,,,,,,,,,,,,,,,,,,,,,,,,,,,,,,,,,,,,,,,,,,,,,,,24,001,0,20,450,450,2022_Oct_18_1420,Experiment,2021.1.4,360.05155937770405,
,,,,,,,,,,,,,,,,,,,,,,,,,,,,,,,,,,,,,,,,,,,,,16,Nervous,rating,3.0,15.273813299998437,,,,,,,,,,,,,,,,,,,,,,,,,,,,,,,,,,,,,,,,,,,,,,,,,,,,,,,,,,,,,,,,,,,,,,,,,,,,,,,,,,,,,,,,,,,,,,,,,,,,,,,,,,,,,,,,,,,24,001,0,20,450,450,2022_Oct_18_1420,Experiment,2021.1.4,360.05155937770405,
,,,,,,,,,,,,,,,,,,,,,,,,,,,,,,,,,,,,,,,,,,,,,17,Determined,rating,3.0,12.329259500002081,,,,,,,,,,,,,,,,,,,,,,,,,,,,,,,,,,,,,,,,,,,,,,,,,,,,,,,,,,,,,,,,,,,,,,,,,,,,,,,,,,,,,,,,,,,,,,,,,,,,,,,,,,,,,,,,,,,24,001,0,20,450,450,2022_Oct_18_1420,Experiment,2021.1.4,360.05155937770405,
,,,,,,,,,,,,,,,,,,,,,,,,,,,,,,,,,,,,,,,,,,,,,18,Attentive,rating,4.0,12.90317739999955,,,,,,,,,,,,,,,,,,,,,,,,,,,,,,,,,,,,,,,,,,,,,,,,,,,,,,,,,,,,,,,,,,,,,,,,,,,,,,,,,,,,,,,,,,,,,,,,,,,,,,,,,,,,,,,,,,,24,001,0,20,450,450,2022_Oct_18_1420,Experiment,2021.1.4,360.05155937770405,
,,,,,,,,,,,,,,,,,,,,,,,,,,,,,,,,,,,,,,,,,,,,,19,Jittery,rating,1.0,18.34842260000005,,,,,,,,,,,,,,,,,,,,,,,,,,,,,,,,,,,,,,,,,,,,,,,,,,,,,,,,,,,,,,,,,,,,,,,,,,,,,,,,,,,,,,,,,,,,,,,,,,,,,,,,,,,,,,,,,,,24,001,0,20,450,450,2022_Oct_18_1420,Experiment,2021.1.4,360.05155937770405,
,,,,,,,,,,,,,,,,,,,,,,,,,,,,,,,,,,,,,,,,,,,,,20,Active,rating,4.0,17.372812800000247,,,,,,,,,,,,,,,,,,,,,,,,,,,,,,,,,,,,,,,,,,,,,,,,,,,,,,,,,,,,,,,,,,,,,,,,,,,,,,,,,,,,,,,,,,,,,,,,,,,,,,,,,,,,,,,,,,,24,001,0,20,450,450,2022_Oct_18_1420,Experiment,2021.1.4,360.05155937770405,
,,,,,,,,,,,,,,,,,,,,,,,,,,,,,,,,,,,,,,,,,,,,,21,Afraid,rating,2.0,19.92155930000081,,,,,,,,,,,,,,,,,,,,,,,,,,,,,,,,,,,,,,,,,,,,,,,,,,,,,,,,,,,,,,,,,,,,,,,,,,,,,,,,,,,,,,,,,,,,,,,,,,,,,,,,,,,,,,,,,,,24,001,0,20,450,450,2022_Oct_18_1420,Experiment,2021.1.4,360.05155937770405,
,,,,,,,,,,,,,,,,,,,,,,,,,,,,,,,,,,,,,,,,,,,,,22,Press the + button to submit your answers,description,,,,,,,,,,,,,,,,,,,,,,,,,,,,,,,,,,,,,,,,,,,,,,,,,,,,,,,,,,,,,,,,,,,,,,,,,,,,,,,,,,,,,,,,,,,,,,,,,,,,,,,,,,,,,,,,,,,,,24,001,0,20,450,450,2022_Oct_18_1420,Experiment,2021.1.4,360.05155937770405,
,,,,,,,,,,,,,,,,,,,,,,,,,,,,,,,,,,,,,,,,,,,,,,,,,,num_add,101.85284159999719,51.469521100003476,None,,,,,,,,,,,,,,,,,,,,,,,,,,,,,,,,,,,,,,,,,,,,,,,,,,,,,,,,,,,,,,,,,,,,,,,,,,,,,,,,,,,,,,,,,,,,,,,,,,,,,,,,,,,,,,,24,001,0,20,450,450,2022_Oct_18_1420,Experiment,2021.1.4,360.05155937770405,
,,,,,,,,,,,,,,,,,,,,,,,,,,,,,,,,,,,,,,,,,,,,,,,,,,,,,,153.35213430000294,None,num_add,14.106431799998973,,,,,,,,,,,,,,,,,,,,,,,,,,,,,,,,,,,,,,,,,,,,,,,,,,,,,,,,,,,,,,,,,,,,,,,,,,,,,,,,,,,,,,,,,,,,,,,,,,,,,,,,,,,24,001,0,20,450,450,2022_Oct_18_1420,Experiment,2021.1.4,360.05155937770405,
,,,,,,,,,,,,,,,,,,,,,,,,,,,,,,,,,,,,,,,,,,,,,,,,,,,,,,,,,,167.46992380000302,None,num_add,8.868456899999728,167.46992380000302,None,,,,,,,,,,,,,,,,,,,,,,,,,,,,,,,,,,,,,,,,,,,,,,,,,,,,,,,,,,,,,,,,,,,,,,,,,,,,,,,,,,,,,,,,,,,,,,,,,,,,,24,001,0,20,450,450,2022_Oct_18_1420,Experiment,2021.1.4,360.05155937770405,
,,,,,,,,,,,,,,,,,,,,,,,,,,,,,,,,,,,,,,,,,,,,,,,,,,,,,,,,,,,,,,,,176.35885350000171,None,num_add,10.47548700000334,,,,,,,,,,,,,,,,,,,,,,,,,,,,,,,,,,,,,,,,,,,,,,,,,,,,,,,,,,,,,,,,,,,,,,,,,,,,,,,,,,,,,,,,,,,,,,,,,24,001,0,20,450,450,2022_Oct_18_1420,Experiment,2021.1.4,360.05155937770405,
,,,,,,,,,,,,,,,,,,,,,,,,,,,,,,,,,,,,,,,,,,,,,,,,,,,,,,,,,,,,,,,,,,,,186.8445109000022,None,space,30.133779899999354,,,,,,,,,,,,,,,,,,,,,,,,,,,,,,,,,,,,,,,,,,,,,,,,,,,,,,,,,,,,,,,,,,,,,,,,,,,,,,,,,,,,,,,,,,,,,24,001,0,20,450,450,2022_Oct_18_1420,Experiment,2021.1.4,360.05155937770405,
images\S21_F_H_02.png,images\S21_F_H_02_scrambled.png,21,Happy,-0.2,F,0,0,practice,off,1,0.5,0.75,0.5,0.91,3,,,,,,,,,,,0,0,0,1,,,,,,,,,,,,,,,,,,,,,,,,,,,,,,,,,,,,,,,,,,,217.15461170000344,217.65724580000096,217.65724580000096,218.40985380000348,218.40985380000348,218.91239340000175,218.91239340000175,219.82604859999992,219.82604859999992,None,num_6,1.2327641000010772,219.82604859999992,None,,,,,,,,,,,,,,,,,,,,,,,,,,,,,,,,,,,,,,,,,,,,,,,,,,,,,,,,,,,,,,,,,,,,,,,,,,,,,,,24,001,0,20,450,450,2022_Oct_18_1420,Experiment,2021.1.4,360.05155937770405,
images\S22_M_S_02.png,images\S22_M_S_02_scrambled.png,22,Sad,0.2,M,0,0,practice,on,2,0.5,0.75,0.5,0.783,3,,,,,,,,,,,0,1,1,6,,,,,,,,,,,,,,,,,,,,,,,,,,,,,,,,,,,,,,,,,,,221.1478328000012,221.65321620000032,221.65321620000032,222.40589890000047,222.40589890000047,222.91121830000338,222.91121830000338,223.697077300003,223.697077300003,None,num_6,0.18642610000097193,223.697077300003,None,,,,,,,,,,,,,,,,,,,,,,,,,,,,,,,,,,,,,,,,,,,,,,,,,,,,,,,,,,,,,,,,,,,,,,,,,,,,,,,24,001,0,20,450,450,2022_Oct_18_1420,Experiment,2021.1.4,360.05155937770405,
images\S21_F_H_01.png,images\S21_F_H_01_scrambled.png,21,Happy,-0.1,F,0,0,practice,off,1,0.5,0.75,0.5,0.853,3,,,,,,,,,,,0,2,2,0,,,,,,,,,,,,,,,,,,,,,,,,,,,,,,,,,,,,,,,,,,,224.00249970000004,224.50522120000096,224.50522120000096,225.26058470000135,225.26058470000135,225.76593200000207,225.76593200000207,226.62118920000285,226.62118920000285,None,None,,226.62118920000285,None,,,,,,,,,,,,,,,,,,,,,,,,,,,,,,,,,,,,,,,,,,,,,,,,,,,,,,,,,,,,,,,,,,,,,,,,,,,,,,,24,001,0,20,450,450,2022_Oct_18_1420,Experiment,2021.1.4,360.05155937770405,
images\S22_M_H_02.png,images\S22_M_H_02_scrambled.png,22,Happy,-0.2,M,0,0,practice,off,1,0.5,0.75,0.5,0.883,3,,,,,,,,,,,0,3,3,2,,,,,,,,,,,,,,,,,,,,,,,,,,,,,,,,,,,,,,,,,,,229.70629610000105,230.20614490000298,230.20614490000298,230.9587612000032,230.9587612000032,231.4613687000019,231.4613687000019,232.34718160000193,232.34718160000193,229.70629610000105,None,,232.34718160000193,229.70629610000105,,,,,,,,,,,,,,,,,,,,,,,,,,,,,,,,,,,,,,,,,,,,,,,,,,,,,,,,,,,,,,,,,,,,,,,,,,,,,,,24,001,0,20,450,450,2022_Oct_18_1420,Experiment,2021.1.4,360.05155937770405,
images\S22_M_S_01.png,images\S22_M_S_01_scrambled.png,22,Sad,0.1,M,0,0,practice,on,2,0.5,0.75,0.5,0.867,3,,,,,,,,,,,0,4,4,5,,,,,,,,,,,,,,,,,,,,,,,,,,,,,,,,,,,,,,,,,,,235.4295458000015,235.93218700000216,235.93218700000216,236.68474550000246,236.68474550000246,237.1873228000004,237.1873228000004,238.05651290000242,238.05651290000242,235.4295458000015,num_6,0.9302040000002307,238.05651290000242,235.4295458000015,,,,,,,,,,,,,,,,,,,,,,,,,,,,,,,,,,,,,,,,,,,,,,,,,,,,,,,,,,,,,,,,,,,,,,,,,,,,,,,24,001,0,20,450,450,2022_Oct_18_1420,Experiment,2021.1.4,360.05155937770405,
images\S22_M_S_02.png,images\S22_M_S_02_scrambled.png,22,Sad,0.2,M,0,0,practice,off,1,0.5,0.75,0.5,0.751,3,,,,,,,,,,,0,5,5,3,,,,,,,,,,,,,,,,,,,,,,,,,,,,,,,,,,,,,,,,,,,239.0395337000009,239.54219110000122,239.54219110000122,240.29474330000085,240.29474330000085,240.7945940000027,240.7945940000027,241.55268550000255,241.55268550000255,None,num_4,0.47413480000250274,241.55268550000255,None,,,,,,,,,,,,,,,,,,,,,,,,,,,,,,,,,,,,,,,,,,,,,,,,,,,,,,,,,,,,,,,,,,,,,,,,,,,,,,,24,001,0,20,450,450,2022_Oct_18_1420,Experiment,2021.1.4,360.05155937770405,
images\S22_M_S_03.png,images\S22_M_S_03_scrambled.png,22,Sad,0.3,M,0,0,practice,on,2,0.5,0.75,0.5,0.794,3,,,,,,,,,,,0,6,6,7,,,,,,,,,,,,,,,,,,,,,,,,,,,,,,,,,,,,,,,,,,,242.1385889000012,242.6439887000015,242.6439887000015,243.3965683000024,243.3965683000024,243.90196460000152,243.90196460000152,244.7017229000012,244.7017229000012,None,num_4,0.661310900002718,244.7017229000012,None,,,,,,,,,,,,,,,,,,,,,,,,,,,,,,,,,,,,,,,,,,,,,,,,,,,,,,,,,,,,,,,,,,,,,,,,,,,,,,,24,001,0,20,450,450,2022_Oct_18_1420,Experiment,2021.1.4,360.05155937770405,
images\S22_M_S_03.png,images\S22_M_S_03_scrambled.png,22,Sad,0.3,M,0,0,practice,on,2,0.5,0.75,0.5,0.87,3,,,,,,,,,,,0,7,7,4,,,,,,,,,,,,,,,,,,,,,,,,,,,,,,,,,,,,,,,,,,,245.41535130000193,245.92088920000242,245.92088920000242,246.67612920000101,246.67612920000101,247.18151390000276,247.18151390000276,248.05342820000078,248.05342820000078,None,num_4,0.8216670000001614,248.05342820000078,None,,,,,,,,,,,,,,,,,,,,,,,,,,,,,,,,,,,,,,,,,,,,,,,,,,,,,,,,,,,,,,,,,,,,,,,,,,,,,,,24,001,0,20,450,450,2022_Oct_18_1420,Experiment,2021.1.4,360.05155937770405,
,,,,,,,,,,,,,,,,,,,,,,,,,,,,,,,,,,,,,,,,,,,,,,,,,,,,,,,,,,,,,,,,,,,,,,,,,,,,,,,,,,,,,,248.9198271000023,None,space,54.99449200000163,,,,,,,,,,,,,,,,,,,,,,,,,,,,,,,,,,,,,,,,,,,,,,,,,,,,,,,,,,,,,,,,,,,,,,,,,,,24,001,0,20,450,450,2022_Oct_18_1420,Experiment,2021.1.4,360.05155937770405,
images\S3_F_H_03.png,images\S3_F_H_03_scrambled.png,3,happy,30,female,6,,255,off,1,0.5,0.75,0.5,0.846,3,254,1,1,1,0,0,0,0,6,,,,,,0,0,0,0,,,,,,,,,,,,,,,,,,,,,,,,,,,,,,,,,,,,,,,,,,,,,,,,,,,,,,,,,304.4221785000009,304.92493930000273,304.92493930000273,305.67736980000336,305.67736980000336,306.182763300003,306.182763300003,307.03250740000294,307.03250740000294,None,num_6,0.6184171000022616,307.03250740000294,None,happy,0,Happy,307.6683844500021,None,None,307.6683844500021,None,,,,,,,,,,,,,,,,,,,,,,,,,,,,,,,,,,,,,,,,,,,,,,,,,,,,,24,001,0,20,450,450,2022_Oct_18_1420,Experiment,2021.1.4,360.05155937770405,
images\S10_M_S_03.png,images\S10_M_S_03_scrambled.png,10,sad,-30,male,1,,120,on,2,0.5,0.75,0.5,0.829,3,119,1,1,1,2,2,32,128,161,,,,,,0,1,1,1,,,,,,,,,,,,,,,,,,,,,,,,,,,,,,,,,,,,,,,,,,,,,,,,,,,,,,,,,307.7544916000006,308.2571435000027,308.2571435000027,309.01243780000004,309.01243780000004,309.5151794000012,309.5151794000012,310.3509911000001,310.3509911000001,None,num_4,0.7798599999987346,310.3509911000001,None,sad,0,Sad,311.14510042000256,None,None,311.14510042000256,None,,,,,,,,,,,,,,,,,,,,,,,,,,,,,,,,,,,,,,,,,,,,,,,,,,,,,24,001,0,20,450,450,2022_Oct_18_1420,Experiment,2021.1.4,360.05155937770405,
images\S7_F_S_01.png,images\S7_F_S_01_scrambled.png,7,sad,-10,female,3,,280,off,1,0.5,0.75,0.5,0.918,3,279,1,1,1,0,0,0,0,3,,,,,,0,2,2,2,,,,,,,,,,,,,,,,,,,,,,,,,,,,,,,,,,,,,,,,,,,,,,,,,,,,,,,,,311.2311907000003,311.73663000000306,311.73663000000306,312.49195370000234,312.49195370000234,312.99177540000164,312.99177540000164,313.91369450000275,313.91369450000275,None,num_4,0.8572038999991491,313.91369450000275,None,sad,0,Sad,314.7884152500028,None,None,314.7884152500028,None,,,,,,,,,,,,,,,,,,,,,,,,,,,,,,,,,,,,,,,,,,,,,,,,,,,,,24,001,0,20,450,450,2022_Oct_18_1420,Experiment,2021.1.4,360.05155937770405,
images\S9_F_H_01.png,images\S9_F_H_01_scrambled.png,9,happy,10,female,4,,409,off,1,0.5,0.75,0.5,0.886,3,408,2,1,1,0,0,0,0,4,,,,,,0,3,3,3,,,,,,,,,,,,,,,,,,,,,,,,,,,,,,,,,,,,,,,,,,,,,,,,,,,,,,,,,314.8717355000008,315.37716080000246,315.37716080000246,316.1296807000035,316.1296807000035,316.63230100000146,316.63230100000146,317.52101330000005,317.52101330000005,None,num_6,0.8019998999989184,317.52101330000005,None,happy,0,Happy,318.3373255200022,None,None,318.3373255200022,None,,,,,,,,,,,,,,,,,,,,,,,,,,,,,,,,,,,,,,,,,,,,,,,,,,,,,24,001,0,20,450,450,2022_Oct_18_1420,Experiment,2021.1.4,360.05155937770405,
images\S5_F_H_02.png,images\S5_F_H_02_scrambled.png,5,happy,20,female,5,,146,off,1,0.5,0.75,0.5,0.84,3,145,3,1,1,0,0,0,0,5,,,,,,0,4,4,4,,,,,,,,,,,,,,,,,,,,,,,,,,,,,,,,,,,,,,,,,,,,,,,,,,,,,,,,,318.4206352000001,318.92325730000084,318.92325730000084,319.67583430000013,319.67583430000013,320.1784393000016,320.1784393000016,321.02553140000236,321.02553140000236,None,num_6,0.6733781000002637,321.02553140000236,None,happy,0,Happy,321.7168339199998,None,None,321.7168339199998,None,,,,,,,,,,,,,,,,,,,,,,,,,,,,,,,,,,,,,,,,,,,,,,,,,,,,,24,001,0,20,450,450,2022_Oct_18_1420,Experiment,2021.1.4,360.05155937770405,
images\S7_F_S_02.png,images\S7_F_S_02_scrambled.png,7,sad,-20,female,2,,101,on,2,0.5,0.75,0.5,0.775,3,100,1,1,1,2,2,32,128,162,,,,,,0,5,5,5,,,,,,,,,,,,,,,,,,,,,,,,,,,,,,,,,,,,,,,,,,,,,,,,,,,,,,,,,321.8001589000014,322.3056848000015,322.3056848000015,323.0581388999999,323.0581388999999,323.56074990000343,323.56074990000343,324.3411597000013,324.3411597000013,None,num_4,0.5419743999991624,324.3411597000013,None,sad,0,Sad,324.8936923200017,None,None,324.8936923200017,None,,,,,,,,,,,,,,,,,,,,,,,,,,,,,,,,,,,,,,,,,,,,,,,,,,,,,24,001,0,20,450,450,2022_Oct_18_1420,Experiment,2021.1.4,360.05155937770405,
images\S5_F_S_03.png,images\S5_F_S_03_scrambled.png,5,sad,-30,female,1,,330,on,2,0.5,0.75,0.5,0.788,3,329,2,1,1,2,2,32,128,161,,,,,,0,6,6,6,,,,,,,,,,,,,,,,,,,,,,,,,,,,,,,,,,,,,,,,,,,,,,,,,,,,,,,,,325.00471070000276,325.50738860000274,325.50738860000274,326.2571205000022,326.2571205000022,326.7625567000032,326.7625567000032,327.55683690000296,327.55683690000296,None,num_4,0.5979683000005025,327.55683690000296,None,sad,0,Sad,328.1648664200002,None,None,328.1648664200002,None,,,,,,,,,,,,,,,,,,,,,,,,,,,,,,,,,,,,,,,,,,,,,,,,,,,,,24,001,0,20,450,450,2022_Oct_18_1420,Experiment,2021.1.4,360.05155937770405,
images\S8_M_S_03.png,images\S8_M_S_03_scrambled.png,8,sad,-30,male,1,,348,on,2,0.5,0.75,0.5,0.79,3,347,3,1,2,2,2,32,128,161,,,,,,0,7,7,7,,,,,,,,,,,,,,,,,,,,,,,,,,,,,,,,,,,,,,,,,,,,,,,,,,,,,,,,,328.2537203000029,328.7564755000021,328.7564755000021,329.51175240000157,329.51175240000157,330.01433610000095,330.01433610000095,330.80851760000223,330.80851760000223,None,num_4,0.6420749999997497,330.80851760000223,None,sad,0,Sad,331.46106771999985,None,None,331.46106771999985,None,,,,,,,,,,,,,,,,,,,,,,,,,,,,,,,,,,,,,,,,,,,,,,,,,,,,,24,001,0,20,450,450,2022_Oct_18_1420,Experiment,2021.1.4,360.05155937770405,
images\S9_F_H_03.png,images\S9_F_H_03_scrambled.png,9,happy,30,female,6,,531,off,1,0.5,0.75,0.5,0.868,3,530,1,1,1,0,0,0,0,6,,,,,,0,8,8,8,,,,,,,,,,,,,,,,,,,,,,,,,,,,,,,,,,,,,,,,,,,,,,,,,,,,,,,,,331.5415997000018,332.04423920000045,332.04423920000045,332.7968090000031,332.7968090000031,333.30222270000013,333.30222270000013,334.1769768000013,334.1769768000013,None,num_6,0.5859380000001693,334.1769768000013,None,happy,0,Happy,334.7794792500008,None,None,334.7794792500008,None,,,,,,,,,,,,,,,,,,,,,,,,,,,,,,,,,,,,,,,,,,,,,,,,,,,,,24,001,0,20,450,450,2022_Oct_18_1420,Experiment,2021.1.4,360.05155937770405,
images\S9_F_H_02.png,images\S9_F_H_02_scrambled.png,9,happy,20,female,5,,590,on,2,0.5,0.75,0.5,0.923,3,589,1,2,1,2,2,32,128,165,,,,,,0,9,9,9,,,,,,,,,,,,,,,,,,,,,,,,,,,,,,,,,,,,,,,,,,,,,,,,,,,,,,,,,334.8600268000009,335.3598707000019,335.3598707000019,336.1124146000002,336.1124146000002,336.61784770000304,336.61784770000304,337.5453462000005,337.5453462000005,None,num_6,0.5454551000002539,337.5453462000005,None,happy,0,Happy,338.1062283200008,None,None,338.1062283200008,None,,,,,,,,,,,,,,,,,,,,,,,,,,,,,,,,,,,,,,,,,,,,,,,,,,,,,24,001,0,20,450,450,2022_Oct_18_1420,Experiment,2021.1.4,360.05155937770405,
images\S4_M_S_03.png,images\S4_M_S_03_scrambled.png,4,sad,-30,male,1,,264,off,1,0.5,0.75,0.5,0.844,3,263,1,1,1,0,0,0,0,1,,,,,,0,10,10,10,,,,,,,,,,,,,,,,,,,,,,,,,,,,,,,,,,,,,,,,,,,,,,,,,,,,,,,,,338.19232660000125,338.6977650000008,338.6977650000008,339.4474960000007,339.4474960000007,339.95293770000353,339.95293770000353,340.7998649000001,340.7998649000001,None,num_4,0.9308868999978586,340.7998649000001,None,sad,0,Sad,341.74128951999955,None,None,341.74128951999955,None,,,,,,,,,,,,,,,,,,,,,,,,,,,,,,,,,,,,,,,,,,,,,,,,,,,,,24,001,0,20,450,450,2022_Oct_18_1420,Experiment,2021.1.4,360.05155937770405,
images\S1_F_S_01.png,images\S1_F_S_01_scrambled.png,1,sad,-10,female,3,,124,off,1,0.5,0.75,0.5,0.791,3,123,2,1,1,0,0,0,0,3,,,,,,0,11,11,11,,,,,,,,,,,,,,,,,,,,,,,,,,,,,,,,,,,,,,,,,,,,,,,,,,,,,,,,,341.8301293000004,342.3356194000007,342.3356194000007,343.08806950000144,343.08806950000144,343.59346840000217,343.59346840000217,344.3876795000033,344.3876795000033,None,num_6,0.5751869999985502,344.3876795000033,None,happy,0,Sad,344.9707659600026,None,None,344.9707659600026,None,,,,,,,,,,,,,,,,,,,,,,,,,,,,,,,,,,,,,,,,,,,,,,,,,,,,,24,001,0,20,450,450,2022_Oct_18_1420,Experiment,2021.1.4,360.05155937770405,
images\S8_M_S_01.png,images\S8_M_S_01_scrambled.png,8,sad,-10,male,3,,46,off,1,0.5,0.75,0.5,0.798,3,45,3,1,2,0,0,0,0,3,,,,,,0,12,12,12,,,,,,,,,,,,,,,,,,,,,,,,,,,,,,,,,,,,,,,,,,,,,,,,,,,,,,,,,345.0818708000006,345.5873158000031,345.5873158000031,346.342621900003,346.342621900003,346.84802280000076,346.84802280000076,347.650518800001,347.650518800001,None,num_4,0.5444329000019934,347.650518800001,None,sad,0,Sad,348.2086528200016,None,None,348.2086528200016,None,,,,,,,,,,,,,,,,,,,,,,,,,,,,,,,,,,,,,,,,,,,,,,,,,,,,,24,001,0,20,450,450,2022_Oct_18_1420,Experiment,2021.1.4,360.05155937770405,
images\S5_F_S_03.png,images\S5_F_S_03_scrambled.png,5,sad,-30,female,1,,570,on,2,0.5,0.75,0.5,0.8,3,569,1,1,1,2,2,32,128,161,,,,,,0,13,13,13,,,,,,,,,,,,,,,,,,,,,,,,,,,,,,,,,,,,,,,,,,,,,,,,,,,,,,,,,348.2586360000023,348.7640898000027,348.7640898000027,349.5167582000031,349.5167582000031,350.01929680000103,350.01929680000103,350.8218504000033,350.8218504000033,None,num_4,0.5571528000000399,350.8218504000033,None,sad,0,Sad,351.39380682000046,None,None,351.39380682000046,None,,,,,,,,,,,,,,,,,,,,,,,,,,,,,,,,,,,,,,,,,,,,,,,,,,,,,24,001,0,20,450,450,2022_Oct_18_1420,Experiment,2021.1.4,360.05155937770405,
images\S10_M_S_01.png,images\S10_M_S_01_scrambled.png,10,sad,-10,male,3,,478,on,2,0.5,0.75,0.5,0.925,3,477,2,1,1,2,2,32,128,163,,,,,,0,14,14,14,,,,,,,,,,,,,,,,,,,,,,,,,,,,,,,,,,,,,,,,,,,,,,,,,,,,,,,,,351.477126400001,351.97696540000106,351.97696540000106,352.72952550000264,352.72952550000264,353.232140600001,353.232140600001,354.1596443000017,354.1596443000017,None,num_6,0.7151246999965224,354.1596443000017,None,happy,0,Sad,354.88436596000247,None,None,354.88436596000247,None,,,,,,,,,,,,,,,,,,,,,,,,,,,,,,,,,,,,,,,,,,,,,,,,,,,,,24,001,0,20,450,450,2022_Oct_18_1420,Experiment,2021.1.4,360.05155937770405,
images\S4_M_S_03.png,images\S4_M_S_03_scrambled.png,4,sad,-30,male,1,,504,off,1,0.5,0.75,0.5,0.906,3,503,1,1,1,0,0,0,0,1,,,,,,0,15,15,15,,,,,,,,,,,,,,,,,,,,,,,,,,,,,,,,,,,,,,,,,,,,,,,,,,,,,,,,,354.93439800000124,355.4397876000003,355.4397876000003,356.19234360000337,356.19234360000337,356.6977767000026,356.6977767000026,357.60592010000255,357.60592010000255,None,num_4,0.421068199997535,357.60592010000255,None,sad,0,Sad,358.0528576399993,None,None,358.0528576399993,None,,,,,,,,,,,,,,,,,,,,,,,,,,,,,,,,,,,,,,,,,,,,,,,,,,,,,24,001,0,20,450,450,2022_Oct_18_1420,Experiment,2021.1.4,360.05155937770405,
images\S2_M_H_03.png,images\S2_M_H_03_scrambled.png,2,happy,30,male,6,,249,off,1,0.5,0.75,0.5,0.794,3,248,2,1,1,0,0,0,0,6,,,,,,0,16,16,16,,,,,,,,,,,,,,,,,,,,,,,,,,,,,,,,,,,,,,,,,,,,,,,,,,,,,,,,,358.16395770000236,358.6693586000001,358.6693586000001,359.42191660000026,359.42191660000026,359.9217615000016,359.9217615000016,360.72436430000016,360.72436430000016,None,num_6,0.47048500000164495,360.72436430000016,None,happy,0,Happy,361.2074193200024,None,None,361.2074193200024,None,,,,,,,,,,,,,,,,,,,,,,,,,,,,,,,,,,,,,,,,,,,,,,,,,,,,,24,001,0,20,450,450,2022_Oct_18_1420,Experiment,2021.1.4,360.05155937770405,
images\S2_M_S_02.png,images\S2_M_S_02_scrambled.png,2,sad,-20,male,2,,491,off,1,0.5,0.75,0.5,0.767,3,490,3,2,1,0,0,0,0,2,,,,,,0,17,17,17,,,,,,,,,,,,,,,,,,,,,,,,,,,,,,,,,,,,,,,,,,,,,,,,,,,,,,,,,361.2935563000028,361.7961635000029,361.7961635000029,362.5516073000035,362.5516073000035,363.05410910000137,363.05410910000137,363.82334190000256,363.82334190000256,None,num_4,0.4594580999983009,363.82334190000256,None,sad,0,Sad,364.29262722000203,None,None,364.29262722000203,None,,,,,,,,,,,,,,,,,,,,,,,,,,,,,,,,,,,,,,,,,,,,,,,,,,,,,24,001,0,20,450,450,2022_Oct_18_1420,Experiment,2021.1.4,360.05155937770405,
images\S8_M_S_02.png,images\S8_M_S_02_scrambled.png,8,sad,-20,male,2,,47,off,1,0.5,0.75,0.5,0.884,3,46,4,1,2,0,0,0,0,2,,,,,,0,18,18,18,,,,,,,,,,,,,,,,,,,,,,,,,,,,,,,,,,,,,,,,,,,,,,,,,,,,,,,,,364.37870810000095,364.8813227000028,364.8813227000028,365.63389310000275,365.63389310000275,366.1365988000034,366.1365988000034,367.0223797000035,367.0223797000035,None,num_4,0.5483099999983096,367.0223797000035,None,sad,0,Sad,367.58881821999967,None,None,367.58881821999967,None,,,,,,,,,,,,,,,,,,,,,,,,,,,,,,,,,,,,,,,,,,,,,,,,,,,,,24,001,0,20,450,450,2022_Oct_18_1420,Experiment,2021.1.4,360.05155937770405,
images\S6_M_H_02.png,images\S6_M_H_02_scrambled.png,6,happy,20,male,5,,212,on,2,0.5,0.75,0.5,0.752,3,211,1,1,1,2,2,32,128,165,,,,,,0,19,19,19,,,,,,,,,,,,,,,,,,,,,,,,,,,,,,,,,,,,,,,,,,,,,,,,,,,,,,,,,367.67491660000087,368.17757540000093,368.17757540000093,368.9301209000005,368.9301209000005,369.4327430000012,369.4327430000012,370.188025200001,370.188025200001,None,num_6,0.6147307999999612,370.188025200001,None,happy,0,Happy,370.83221290000074,None,None,370.83221290000074,None,,,,,,,,,,,,,,,,,,,,,,,,,,,,,,,,,,,,,,,,,,,,,,,,,,,,,24,001,0,20,450,450,2022_Oct_18_1420,Experiment,2021.1.4,360.05155937770405,
images\S6_M_S_03.png,images\S6_M_S_03_scrambled.png,6,sad,-30,male,1,,36,off,1,0.5,0.75,0.5,0.775,3,35,1,2,1,0,0,0,0,1,,,,,,0,20,20,20,,,,,,,,,,,,,,,,,,,,,,,,,,,,,,,,,,,,,,,,,,,,,,,,,,,,,,,,,370.9211329000027,371.4209755000011,371.4209755000011,372.17354500000147,372.17354500000147,372.6789443000016,372.6789443000016,373.456577500001,373.456577500001,None,num_4,0.4502363999999943,373.456577500001,None,sad,0,Sad,373.92019342000276,None,None,373.92019342000276,None,,,,,,,,,,,,,,,,,,,,,,,,,,,,,,,,,,,,,,,,,,,,,,,,,,,,,24,001,0,20,450,450,2022_Oct_18_1420,Experiment,2021.1.4,360.05155937770405,
images\S4_M_H_02.png,images\S4_M_H_02_scrambled.png,4,happy,20,male,5,,80,on,2,0.5,0.75,0.5,0.756,3,79,1,1,1,2,2,32,128,165,,,,,,0,21,21,21,,,,,,,,,,,,,,,,,,,,,,,,,,,,,,,,,,,,,,,,,,,,,,,,,,,,,,,,,374.00629440000193,374.5061366000009,374.5061366000009,375.25593420000223,375.25593420000223,375.7557824000032,375.7557824000032,376.5110756000031,376.5110756000031,None,num_6,0.5240686000033747,376.5110756000031,None,happy,0,Happy,377.06097824000244,None,None,377.06097824000244,None,,,,,,,,,,,,,,,,,,,,,,,,,,,,,,,,,,,,,,,,,,,,,,,,,,,,,24,001,0,20,450,450,2022_Oct_18_1420,Experiment,2021.1.4,360.05155937770405,
images\S6_M_S_02.png,images\S6_M_S_02_scrambled.png,6,sad,-20,male,2,,215,on,2,0.5,0.75,0.5,0.844,3,214,2,1,1,2,2,32,128,162,,,,,,0,22,22,22,,,,,,,,,,,,,,,,,,,,,,,,,,,,,,,,,,,,,,,,,,,,,,,,,,,,,,,,,377.17199729999993,377.6774258000005,377.6774258000005,378.4271566000025,378.4271566000025,378.9325938000002,378.9325938000002,379.7823328000013,379.7823328000013,None,num_4,0.5084287999998196,379.7823328000013,None,sad,0,Sad,380.30433902000004,None,None,380.30433902000004,None,,,,,,,,,,,,,,,,,,,,,,,,,,,,,,,,,,,,,,,,,,,,,,,,,,,,,24,001,0,20,450,450,2022_Oct_18_1420,Experiment,2021.1.4,360.05155937770405,
images\S2_M_S_01.png,images\S2_M_S_01_scrambled.png,2,sad,-10,male,3,,10,off,1,0.5,0.75,0.5,0.947,3,9,1,1,1,0,0,0,0,3,,,,,,0,23,23,23,,,,,,,,,,,,,,,,,,,,,,,,,,,,,,,,,,,,,,,,,,,,,,,,,,,,,,,,,380.390444800003,380.8959794000002,380.8959794000002,381.64838990000135,381.64838990000135,382.1511279000006,382.1511279000006,383.1008353000034,383.1008353000034,None,num_4,0.4780123000018648,383.1008353000034,None,sad,0,Sad,383.60609076999935,None,None,383.60609076999935,None,,,,,,,,,,,,,,,,,,,,,,,,,,,,,,,,,,,,,,,,,,,,,,,,,,,,,24,001,0,20,450,450,2022_Oct_18_1420,Experiment,2021.1.4,360.05155937770405,
images\S8_M_S_01.png,images\S8_M_S_01_scrambled.png,8,sad,-10,male,3,,586,on,2,0.5,0.75,0.5,0.788,3,585,1,1,2,2,2,32,128,163,,,,,,0,24,24,24,,,,,,,,,,,,,,,,,,,,,,,,,,,,,,,,,,,,,,,,,,,,,,,,,,,,,,,,,383.6616576000015,384.1670941000011,384.1670941000011,384.9196077000015,384.9196077000015,385.4222286000004,385.4222286000004,386.21365380000134,386.21365380000134,None,num_6,0.5736703000002308,386.21365380000134,None,happy,0,Sad,386.79958509000244,None,None,386.79958509000244,None,,,,,,,,,,,,,,,,,,,,,,,,,,,,,,,,,,,,,,,,,,,,,,,,,,,,,24,001,0,20,450,450,2022_Oct_18_1420,Experiment,2021.1.4,360.05155937770405,
images\S6_M_S_02.png,images\S6_M_S_02_scrambled.png,6,sad,-20,male,2,,275,off,1,0.5,0.75,0.5,0.814,3,274,1,1,1,0,0,0,0,2,,,,,,0,25,25,25,,,,,,,,,,,,,,,,,,,,,,,,,,,,,,,,,,,,,,,,,,,,,,,,,,,,,,,,,386.8578934000034,387.36050930000056,387.36050930000056,388.1130832000017,388.1130832000017,388.6184792000022,388.6184792000022,389.4376899000017,389.4376899000017,None,num_4,0.4212654000002658,389.4376899000017,None,sad,0,Sad,389.8736109199999,None,None,389.8736109199999,None,,,,,,,,,,,,,,,,,,,,,,,,,,,,,,,,,,,,,,,,,,,,,,,,,,,,,24,001,0,20,450,450,2022_Oct_18_1420,Experiment,2021.1.4,360.05155937770405,
images\S9_F_H_02.png,images\S9_F_H_02_scrambled.png,9,happy,20,female,5,,170,off,1,0.5,0.75,0.5,0.937,3,169,2,1,1,0,0,0,0,5,,,,,,0,26,26,26,,,,,,,,,,,,,,,,,,,,,,,,,,,,,,,,,,,,,,,,,,,,,,,,,,,,,,,,,389.92083940000157,390.4234772000018,390.4234772000018,391.1760314000021,391.1760314000021,391.68152720000217,391.68152720000217,392.62282210000194,392.62282210000194,None,num_6,0.4838348000012047,392.62282210000194,None,happy,0,Happy,393.1170809200012,None,None,393.1170809200012,None,,,,,,,,,,,,,,,,,,,,,,,,,,,,,,,,,,,,,,,,,,,,,,,,,,,,,24,001,0,20,450,450,2022_Oct_18_1420,Experiment,2021.1.4,360.05155937770405,
images\S6_M_S_02.png,images\S6_M_S_02_scrambled.png,6,sad,-20,male,2,,395,off,1,0.5,0.75,0.5,0.874,3,394,3,1,1,0,0,0,0,2,,,,,,0,27,27,27,,,,,,,,,,,,,,,,,,,,,,,,,,,,,,,,,,,,,,,,,,,,,,,,,,,,,,,,,393.1642787000019,393.6669651000011,393.6669651000011,394.4166793000004,394.4166793000004,394.9221161000023,394.9221161000023,395.80240230000345,395.80240230000345,None,num_4,0.5361898000010115,395.80240230000345,None,sad,0,Sad,396.34937962000186,None,None,396.34937962000186,None,,,,,,,,,,,,,,,,,,,,,,,,,,,,,,,,,,,,,,,,,,,,,,,,,,,,,24,001,0,20,450,450,2022_Oct_18_1420,Experiment,2021.1.4,360.05155937770405,
images\blank.jpg,images\blank.jpg,none,none,none,none,0,,608,on,2,0.5,0.75,0.5,0.944,0,607,1,1,1,3,3,48,192,240,,,,,,0,28,28,28,,,,,,,,,,,,,,,,,,,,,,,,,,,,,,,,,,,,,,,,,,,,,,,,,,,,,,,,,396.4885398000006,396.99365020000187,396.99365020000187,397.74620810000124,397.74620810000124,398.25173140000334,398.25173140000334,399.1985558000015,399.1985558000015,399.1985558000015,None,,399.1985558000015,None,miss,0,,402.2004314600017,None,None,402.2004314600017,None,,,,,,,,,,,,,,,,,,,,,,,,,,,,,,,,,,,,,,,,,,,,,,,,,,,,,24,001,0,20,450,450,2022_Oct_18_1420,Experiment,2021.1.4,360.05155937770405,
images\S4_M_S_01.png,images\S4_M_S_01_scrambled.png,4,sad,-10,male,3,,82,on,2,0.5,0.75,0.5,0.856,3,81,2,1,1,2,2,32,128,163,,,,,,0,29,29,29,,,,,,,,,,,,,,,,,,,,,,,,,,,,,,,,,,,,,,,,,,,,,,,,,,,,,,,,,402.3643820000034,402.86694900000293,402.86694900000293,403.62221690000297,403.62221690000297,404.1276149000005,404.1276149000005,404.9884447000004,404.9884447000004,None,num_4,0.5984293000001344,404.9884447000004,402.3643820000034,sad,0,Sad,405.604886420002,None,None,405.604886420002,None,,,,,,,,,,,,,,,,,,,,,,,,,,,,,,,,,,,,,,,,,,,,,,,,,,,,,24,001,0,20,450,450,2022_Oct_18_1420,Experiment,2021.1.4,360.05155937770405,
images\S6_M_H_03.png,images\S6_M_H_03_scrambled.png,6,happy,30,male,6,,333,on,2,0.5,0.75,0.5,0.937,3,332,3,1,1,2,2,32,128,166,,,,,,0,30,30,30,,,,,,,,,,,,,,,,,,,,,,,,,,,,,,,,,,,,,,,,,,,,,,,,,,,,,,,,,405.68543370000043,406.18807500000185,406.18807500000185,406.9378192000004,406.9378192000004,407.44324570000026,407.44324570000026,408.38740790000156,408.38740790000156,None,num_6,0.5593688999979349,408.38740790000156,None,happy,0,Happy,408.9621914199997,None,None,408.9621914199997,None,,,,,,,,,,,,,,,,,,,,,,,,,,,,,,,,,,,,,,,,,,,,,,,,,,,,,24,001,0,20,450,450,2022_Oct_18_1420,Experiment,2021.1.4,360.05155937770405,
images\S10_M_S_02.png,images\S10_M_S_02_scrambled.png,10,sad,-20,male,2,,539,off,1,0.5,0.75,0.5,0.776,3,538,1,1,1,0,0,0,0,2,,,,,,0,31,31,31,,,,,,,,,,,,,,,,,,,,,,,,,,,,,,,,,,,,,,,,,,,,,,,,,,,,,,,,,409.0427264000027,409.54256830000304,409.54256830000304,410.29234440000073,410.29234440000073,410.7949565000017,410.7949565000017,411.575316800001,411.575316800001,None,num_6,0.5955164000006334,411.575316800001,None,happy,0,Sad,412.17509856000106,None,None,412.17509856000106,None,,,,,,,,,,,,,,,,,,,,,,,,,,,,,,,,,,,,,,,,,,,,,,,,,,,,,24,001,0,20,450,450,2022_Oct_18_1420,Experiment,2021.1.4,360.05155937770405,
images\blank.jpg,images\blank.jpg,none,none,none,none,0,,647,on,2,0.5,0.75,0.5,0.796,0,646,1,1,1,3,3,48,192,240,,,,,,0,32,32,32,,,,,,,,,,,,,,,,,,,,,,,,,,,,,,,,,,,,,,,,,,,,,,,,,,,,,,,,,412.2586480000027,412.7638190000034,412.7638190000034,413.5163715000017,413.5163715000017,414.02183640000294,414.02183640000294,414.82163870000295,414.82163870000295,414.82163870000295,None,,414.82163870000295,None,miss,0,,417.8234082300023,None,None,417.8234082300023,None,,,,,,,,,,,,,,,,,,,,,,,,,,,,,,,,,,,,,,,,,,,,,,,,,,,,,24,001,0,20,450,450,2022_Oct_18_1420,Experiment,2021.1.4,360.05155937770405,
images\blank.jpg,images\blank.jpg,none,none,none,none,0,,611,on,2,0.5,0.75,0.5,0.847,0,610,2,2,2,3,3,48,192,240,,,,,,0,33,33,33,,,,,,,,,,,,,,,,,,,,,,,,,,,,,,,,,,,,,,,,,,,,,,,,,,,,,,,,,417.8455722000035,418.3481853000012,418.3481853000012,419.09797000000253,419.09797000000253,419.597843800002,419.597843800002,420.4475820000007,420.4475820000007,420.4475820000007,None,,420.4475820000007,417.8455722000035,miss,0,,423.4522347600032,None,None,423.4522347600032,None,,,,,,,,,,,,,,,,,,,,,,,,,,,,,,,,,,,,,,,,,,,,,,,,,,,,,24,001,0,20,450,450,2022_Oct_18_1420,Experiment,2021.1.4,360.05155937770405,
images\S8_M_H_02.png,images\S8_M_H_02_scrambled.png,8,happy,20,male,5,,224,on,2,0.5,0.75,0.5,0.765,3,223,3,1,1,2,2,32,128,165,,,,,,0,34,34,34,,,,,,,,,,,,,,,,,,,,,,,,,,,,,,,,,,,,,,,,,,,,,,,,,,,,,,,,,423.60226650000186,424.10755430000063,424.10755430000063,424.8600813000012,424.8600813000012,425.36273260000235,425.36273260000235,426.1319773000032,426.1319773000032,None,num_6,0.7907403000026534,426.1319773000032,423.60226650000186,happy,0,Happy,426.9371695200025,None,None,426.9371695200025,None,,,,,,,,,,,,,,,,,,,,,,,,,,,,,,,,,,,,,,,,,,,,,,,,,,,,,24,001,0,20,450,450,2022_Oct_18_1420,Experiment,2021.1.4,360.05155937770405,
images\S5_F_H_02.png,images\S5_F_H_02_scrambled.png,5,happy,20,female,5,,386,off,1,0.5,0.75,0.5,0.895,3,385,1,1,2,0,0,0,0,5,,,,,,0,35,35,35,,,,,,,,,,,,,,,,,,,,,,,,,,,,,,,,,,,,,,,,,,,,,,,,,,,,,,,,,426.98443430000043,427.4870972000026,427.4870972000026,428.2424036000011,428.2424036000011,428.74220630000127,428.74220630000127,429.64198130000295,429.64198130000295,None,num_6,0.4887736999990011,429.64198130000295,None,happy,0,Happy,430.141892120002,None,None,430.141892120002,None,,,,,,,,,,,,,,,,,,,,,,,,,,,,,,,,,,,,,,,,,,,,,,,,,,,,,24,001,0,20,450,450,2022_Oct_18_1420,Experiment,2021.1.4,360.05155937770405,
images\S7_F_S_01.png,images\S7_F_S_01_scrambled.png,7,sad,-10,female,3,,160,off,1,0.5,0.75,0.5,0.81,3,159,2,1,1,0,0,0,0,3,,,,,,0,36,36,36,,,,,,,,,,,,,,,,,,,,,,,,,,,,,,,,,,,,,,,,,,,,,,,,,,,,,,,,,430.1917640000029,430.69440380000015,430.69440380000015,431.44416790000105,431.44416790000105,431.94689070000095,431.94689070000095,432.7604472000021,432.7604472000021,None,num_4,0.4744973000015307,432.7604472000021,None,sad,0,Sad,433.2491134200027,None,None,433.2491134200027,None,,,,,,,,,,,,,,,,,,,,,,,,,,,,,,,,,,,,,,,,,,,,,,,,,,,,,24,001,0,20,450,450,2022_Oct_18_1420,Experiment,2021.1.4,360.05155937770405,
images\S1_F_S_03.png,images\S1_F_S_03_scrambled.png,1,sad,-30,female,1,,546,on,2,0.5,0.75,0.5,0.825,3,545,1,1,1,2,2,32,128,161,,,,,,0,37,37,37,,,,,,,,,,,,,,,,,,,,,,,,,,,,,,,,,,,,,,,,,,,,,,,,,,,,,,,,,433.33246880000297,433.8350967000006,433.8350967000006,434.58767570000055,434.58767570000055,435.09025870000187,435.09025870000187,435.9178154000001,435.9178154000001,None,num_4,0.6131214000015461,435.9178154000001,None,sad,0,Sad,436.54532142000244,None,None,436.54532142000244,None,,,,,,,,,,,,,,,,,,,,,,,,,,,,,,,,,,,,,,,,,,,,,,,,,,,,,24,001,0,20,450,450,2022_Oct_18_1420,Experiment,2021.1.4,360.05155937770405,
images\S5_F_S_03.png,images\S5_F_S_03_scrambled.png,5,sad,-30,female,1,,150,off,1,0.5,0.75,0.5,0.826,3,149,1,1,2,0,0,0,0,1,,,,,,0,38,38,38,,,,,,,,,,,,,,,,,,,,,,,,,,,,,,,,,,,,,,,,,,,,,,,,,,,,,,,,,436.5925709000003,437.09241770000153,437.09241770000153,437.84219230000235,437.84219230000235,438.34762690000207,438.34762690000207,439.17792530000224,439.17792530000224,None,num_4,0.6406635999992432,439.17792530000224,None,sad,0,Sad,439.83319312000094,None,None,439.83319312000094,None,,,,,,,,,,,,,,,,,,,,,,,,,,,,,,,,,,,,,,,,,,,,,,,,,,,,,24,001,0,20,450,450,2022_Oct_18_1420,Experiment,2021.1.4,360.05155937770405,
images\S5_F_S_03.png,images\S5_F_S_03_scrambled.png,5,sad,-30,female,1,,270,off,1,0.5,0.75,0.5,0.796,3,269,2,2,3,0,0,0,0,1,,,,,,0,39,39,39,,,,,,,,,,,,,,,,,,,,,,,,,,,,,,,,,,,,,,,,,,,,,,,,,,,,,,,,,439.8804605000005,440.3802919000009,440.3802919000009,441.13575310000306,441.13575310000306,441.638268900002,441.638268900002,442.43802400000277,442.43802400000277,None,num_4,0.6527724000006856,442.43802400000277,None,sad,0,Sad,443.10444112000187,None,None,443.10444112000187,None,,,,,,,,,,,,,,,,,,,,,,,,,,,,,,,,,,,,,,,,,,,,,,,,,,,,,24,001,0,20,450,450,2022_Oct_18_1420,Experiment,2021.1.4,360.05155937770405,
images\S8_M_H_01.png,images\S8_M_H_01_scrambled.png,8,happy,10,male,4,,43,off,1,0.5,0.75,0.5,0.837,3,42,3,1,1,0,0,0,0,4,,,,,,0,40,40,40,,,,,,,,,,,,,,,,,,,,,,,,,,,,,,,,,,,,,,,,,,,,,,,,,,,,,,,,,443.1877680000034,443.69319130000076,443.69319130000076,444.44848040000215,444.44848040000215,444.95124040000155,444.95124040000155,445.79255060000287,445.79255060000287,None,num_6,0.5540366999994149,445.79255060000287,None,happy,0,Happy,446.36174292000214,None,None,446.36174292000214,None,,,,,,,,,,,,,,,,,,,,,,,,,,,,,,,,,,,,,,,,,,,,,,,,,,,,,24,001,0,20,450,450,2022_Oct_18_1420,Experiment,2021.1.4,360.05155937770405,
images\S7_F_H_03.png,images\S7_F_H_03_scrambled.png,7,happy,30,female,6,,519,off,1,0.5,0.75,0.5,0.856,3,518,4,1,1,0,0,0,0,6,,,,,,0,41,41,41,,,,,,,,,,,,,,,,,,,,,,,,,,,,,,,,,,,,,,,,,,,,,,,,,,,,,,,,,446.4478685000031,446.9532945000028,446.9532945000028,447.7058472000026,447.7058472000026,448.2056545000014,448.2056545000014,449.0666521000021,449.0666521000021,None,num_6,0.5041807000015979,449.0666521000021,None,happy,0,Happy,449.588565920003,None,None,449.588565920003,None,,,,,,,,,,,,,,,,,,,,,,,,,,,,,,,,,,,,,,,,,,,,,,,,,,,,,24,001,0,20,450,450,2022_Oct_18_1420,Experiment,2021.1.4,360.05155937770405,
images\blank.jpg,images\blank.jpg,none,none,none,none,0,,631,on,2,0.5,0.75,0.5,0.946,0,630,1,1,1,3,3,48,192,240,,,,,,0,42,42,42,,,,,,,,,,,,,,,,,,,,,,,,,,,,,,,,,,,,,,,,,,,,,,,,,,,,,,,,,449.67213210000045,450.1772856000025,450.1772856000025,450.93263910000314,450.93263910000314,451.43803950000074,451.43803950000074,452.38485930000024,452.38485930000024,452.38485930000024,None,,452.38485930000024,None,miss,0,,455.3896149600005,None,None,455.3896149600005,None,,,,,,,,,,,,,,,,,,,,,,,,,,,,,,,,,,,,,,,,,,,,,,,,,,,,,24,001,0,20,450,450,2022_Oct_18_1420,Experiment,2021.1.4,360.05155937770405,
images\S1_F_H_01.png,images\S1_F_H_01_scrambled.png,1,happy,10,female,4,,481,off,1,0.5,0.75,0.5,0.855,3,480,1,1,1,0,0,0,0,4,,,,,,0,43,43,43,,,,,,,,,,,,,,,,,,,,,,,,,,,,,,,,,,,,,,,,,,,,,,,,,,,,,,,,,455.5563284000018,456.05881520000185,456.05881520000185,456.8141306000034,456.8141306000034,457.31681910000043,457.31681910000043,458.17203080000036,458.17203080000036,None,num_6,0.5746431000006851,458.17203080000036,455.5563284000018,happy,0,Happy,458.76073092000297,None,None,458.76073092000297,None,,,,,,,,,,,,,,,,,,,,,,,,,,,,,,,,,,,,,,,,,,,,,,,,,,,,,24,001,0,20,450,450,2022_Oct_18_1420,Experiment,2021.1.4,360.05155937770405,
images\S10_M_H_03.png,images\S10_M_H_03_scrambled.png,10,happy,30,male,6,,57,off,1,0.5,0.75,0.5,0.854,3,56,2,1,1,0,0,0,0,6,,,,,,0,44,44,44,,,,,,,,,,,,,,,,,,,,,,,,,,,,,,,,,,,,,,,,,,,,,,,,,,,,,,,,,458.84405530000004,459.3467604000034,459.3467604000034,460.10203640000327,460.10203640000327,460.60743520000324,460.60743520000324,461.46550710000156,461.46550710000156,None,num_6,0.5292676999997639,461.46550710000156,None,happy,0,Happy,462.01529501000005,None,None,462.01529501000005,None,,,,,,,,,,,,,,,,,,,,,,,,,,,,,,,,,,,,,,,,,,,,,,,,,,,,,24,001,0,20,450,450,2022_Oct_18_1420,Experiment,2021.1.4,360.05155937770405,
images\S2_M_S_02.png,images\S2_M_S_02_scrambled.png,2,sad,-20,male,2,,311,on,2,0.5,0.75,0.5,0.863,3,310,1,1,1,2,2,32,128,162,,,,,,0,45,45,45,,,,,,,,,,,,,,,,,,,,,,,,,,,,,,,,,,,,,,,,,,,,,,,,,,,,,,,,,462.06806270000016,462.5678974000002,462.5678974000002,463.32058870000037,463.32058870000037,463.8259732000006,463.8259732000006,464.69228980000116,464.69228980000116,None,num_4,0.6945709999999963,464.69228980000116,None,sad,0,Sad,465.4031224500013,None,None,465.4031224500013,None,,,,,,,,,,,,,,,,,,,,,,,,,,,,,,,,,,,,,,,,,,,,,,,,,,,,,24,001,0,20,450,450,2022_Oct_18_1420,Experiment,2021.1.4,360.05155937770405,
images\S1_F_H_01.png,images\S1_F_H_01_scrambled.png,1,happy,10,female,4,,301,on,2,0.5,0.75,0.5,0.925,3,300,2,1,1,2,2,32,128,164,,,,,,0,46,46,46,,,,,,,,,,,,,,,,,,,,,,,,,,,,,,,,,,,,,,,,,,,,,,,,,,,,,,,,,465.4503540000005,465.95301140000083,465.95301140000083,466.7055297000006,466.7055297000006,467.20813610000187,467.20813610000187,468.13285010000254,468.13285010000254,None,num_6,0.7096967999968911,468.13285010000254,None,happy,0,Happy,468.87152394000077,None,None,468.87152394000077,None,,,,,,,,,,,,,,,,,,,,,,,,,,,,,,,,,,,,,,,,,,,,,,,,,,,,,24,001,0,20,450,450,2022_Oct_18_1420,Experiment,2021.1.4,360.05155937770405,
images\S6_M_H_03.png,images\S6_M_H_03_scrambled.png,6,happy,30,male,6,,213,on,2,0.5,0.75,0.5,0.896,3,212,3,1,1,2,2,32,128,166,,,,,,0,47,47,47,,,,,,,,,,,,,,,,,,,,,,,,,,,,,,,,,,,,,,,,,,,,,,,,,,,,,,,,,468.9242848000031,469.42691630000263,469.42691630000263,470.1822680000005,470.1822680000005,470.68766160000087,470.68766160000087,471.58738580000136,471.58738580000136,None,num_6,0.6072720000011032,471.58738580000136,None,happy,0,Happy,472.20933352000065,None,None,472.20933352000065,None,,,,,,,,,,,,,,,,,,,,,,,,,,,,,,,,,,,,,,,,,,,,,,,,,,,,,24,001,0,20,450,450,2022_Oct_18_1420,Experiment,2021.1.4,360.05155937770405,
images\S3_F_S_02.png,images\S3_F_S_02_scrambled.png,3,sad,-20,female,2,,377,off,1,0.5,0.75,0.5,0.916,3,376,1,1,1,0,0,0,0,2,,,,,,0,48,48,48,,,,,,,,,,,,,,,,,,,,,,,,,,,,,,,,,,,,,,,,,,,,,,,,,,,,,,,,,472.2926873000033,472.79534420000346,472.79534420000346,473.5478830000029,473.5478830000029,474.0532809000033,474.0532809000033,474.9724161000013,474.9724161000013,None,num_4,0.5742362000019057,474.9724161000013,None,sad,0,Sad,475.5583191200021,None,None,475.5583191200021,None,,,,,,,,,,,,,,,,,,,,,,,,,,,,,,,,,,,,,,,,,,,,,,,,,,,,,24,001,0,20,450,450,2022_Oct_18_1420,Experiment,2021.1.4,360.05155937770405,
images\S10_M_S_01.png,images\S10_M_S_01_scrambled.png,10,sad,-10,male,3,,118,on,2,0.5,0.75,0.5,0.832,3,117,1,1,1,2,2,32,128,163,,,,,,0,49,49,49,,,,,,,,,,,,,,,,,,,,,,,,,,,,,,,,,,,,,,,,,,,,,,,,,,,,,,,,,475.60555640000166,476.1082032000013,476.1082032000013,476.863517400001,476.863517400001,477.3661506000026,477.3661506000026,478.2020377000008,478.2020377000008,None,num_6,0.7607199999984005,478.2020377000008,None,happy,0,Sad,478.9711779600002,None,None,478.9711779600002,None,,,,,,,,,,,,,,,,,,,,,,,,,,,,,,,,,,,,,,,,,,,,,,,,,,,,,24,001,0,20,450,450,2022_Oct_18_1420,Experiment,2021.1.4,360.05155937770405,
images\S9_F_H_03.png,images\S9_F_H_03_scrambled.png,9,happy,30,female,6,,471,on,2,0.5,0.75,0.5,0.923,3,470,2,1,1,2,2,32,128,166,,,,,,0,50,50,50,,,,,,,,,,,,,,,,,,,,,,,,,,,,,,,,,,,,,,,,,,,,,,,,,,,,,,,,,479.0183973000021,479.5210091000008,479.5210091000008,480.27355890000035,480.27355890000035,480.77900280000176,480.77900280000176,481.70925740000166,481.70925740000166,None,num_6,0.7895424999987881,481.70925740000166,None,happy,0,Happy,482.50907992000066,None,None,482.50907992000066,None,,,,,,,,,,,,,,,,,,,,,,,,,,,,,,,,,,,,,,,,,,,,,,,,,,,,,24,001,0,20,450,450,2022_Oct_18_1420,Experiment,2021.1.4,360.05155937770405,
images\blank.jpg,images\blank.jpg,none,none,none,none,0,,610,on,2,0.5,0.75,0.5,0.752,0,609,3,1,1,3,3,48,192,240,,,,,,0,51,51,51,,,,,,,,,,,,,,,,,,,,,,,,,,,,,,,,,,,,,,,,,,,,,,,,,,,,,,,,,482.589780600003,483.0922814000005,483.0922814000005,483.84470390000206,483.84470390000206,484.3474563000018,484.3474563000018,485.09981340000013,485.09981340000013,485.09981340000013,None,,485.09981340000013,None,miss,0,,488.10174803000154,None,None,488.10174803000154,None,,,,,,,,,,,,,,,,,,,,,,,,,,,,,,,,,,,,,,,,,,,,,,,,,,,,,24,001,0,20,450,450,2022_Oct_18_1420,Experiment,2021.1.4,360.05155937770405,
images\S9_F_H_01.png,images\S9_F_H_01_scrambled.png,9,happy,10,female,4,,589,on,2,0.5,0.75,0.5,0.833,3,588,4,1,1,2,2,32,128,164,,,,,,0,52,52,52,,,,,,,,,,,,,,,,,,,,,,,,,,,,,,,,,,,,,,,,,,,,,,,,,,,,,,,,,488.22126390000267,488.7237657000005,488.7237657000005,489.4735045000016,489.4735045000016,489.9761546000009,489.9761546000009,490.8148448000029,490.8148448000029,None,num_6,0.6277116000019305,490.8148448000029,488.22126390000267,happy,0,Happy,491.453451520003,None,None,491.453451520003,None,,,,,,,,,,,,,,,,,,,,,,,,,,,,,,,,,,,,,,,,,,,,,,,,,,,,,24,001,0,20,450,450,2022_Oct_18_1420,Experiment,2021.1.4,360.05155937770405,
images\S9_F_H_02.png,images\S9_F_H_02_scrambled.png,9,happy,20,female,5,,50,off,1,0.5,0.75,0.5,0.945,3,49,1,2,1,0,0,0,0,5,,,,,,0,53,53,53,,,,,,,,,,,,,,,,,,,,,,,,,,,,,,,,,,,,,,,,,,,,,,,,,,,,,,,,,491.50066270000025,492.00050570000167,492.00050570000167,492.7530523000023,492.7530523000023,493.25571070000296,493.25571070000296,494.205416300003,494.205416300003,None,num_6,0.5096310000008089,494.205416300003,None,happy,0,Happy,494.73306198000137,None,None,494.73306198000137,None,,,,,,,,,,,,,,,,,,,,,,,,,,,,,,,,,,,,,,,,,,,,,,,,,,,,,24,001,0,20,450,450,2022_Oct_18_1420,Experiment,2021.1.4,360.05155937770405,
images\S6_M_S_03.png,images\S6_M_S_03_scrambled.png,6,sad,-30,male,1,,516,off,1,0.5,0.75,0.5,0.784,3,515,2,1,1,0,0,0,0,1,,,,,,0,54,54,54,,,,,,,,,,,,,,,,,,,,,,,,,,,,,,,,,,,,,,,,,,,,,,,,,,,,,,,,,494.78575580000324,495.2856036000012,495.2856036000012,496.04095150000285,496.04095150000285,496.54076760000316,496.54076760000316,497.33227420000185,497.33227420000185,None,num_4,0.5903235000005225,497.33227420000185,None,sad,0,Sad,497.9543915400027,None,None,497.9543915400027,None,,,,,,,,,,,,,,,,,,,,,,,,,,,,,,,,,,,,,,,,,,,,,,,,,,,,,24,001,0,20,450,450,2022_Oct_18_1420,Experiment,2021.1.4,360.05155937770405,
images\S4_M_H_02.png,images\S4_M_H_02_scrambled.png,4,happy,20,male,5,,200,on,2,0.5,0.75,0.5,0.765,3,199,1,1,1,2,2,32,128,165,,,,,,0,55,55,55,,,,,,,,,,,,,,,,,,,,,,,,,,,,,,,,,,,,,,,,,,,,,,,,,,,,,,,,,498.0070016000027,498.5068287000031,498.5068287000031,499.2621691000022,499.2621691000022,499.7648681000028,499.7648681000028,500.5341083000021,500.5341083000021,None,num_6,0.6607360000016342,500.5341083000021,None,happy,0,Happy,501.21435915000075,None,None,501.21435915000075,None,,,,,,,,,,,,,,,,,,,,,,,,,,,,,,,,,,,,,,,,,,,,,,,,,,,,,24,001,0,20,450,450,2022_Oct_18_1420,Experiment,2021.1.4,360.05155937770405,
images\blank.jpg,images\blank.jpg,none,none,none,none,0,,625,on,2,0.5,0.75,0.5,0.785,0,624,2,1,1,3,3,48,192,240,,,,,,0,56,56,56,,,,,,,,,,,,,,,,,,,,,,,,,,,,,,,,,,,,,,,,,,,,,,,,,,,,,,,,,501.314549900002,501.8169306000018,501.8169306000018,502.56960590000017,502.56960590000017,503.0721039000018,503.0721039000018,503.8579642000004,503.8579642000004,503.8579642000004,None,,503.8579642000004,None,miss,0,,506.8598612599999,None,None,506.8598612599999,None,,,,,,,,,,,,,,,,,,,,,,,,,,,,,,,,,,,,,,,,,,,,,,,,,,,,,24,001,0,20,450,450,2022_Oct_18_1420,Experiment,2021.1.4,360.05155937770405,
images\blank.jpg,images\blank.jpg,none,none,none,none,0,,641,on,2,0.5,0.75,0.5,0.903,0,640,3,2,2,3,3,48,192,240,,,,,,0,57,57,57,,,,,,,,,,,,,,,,,,,,,,,,,,,,,,,,,,,,,,,,,,,,,,,,,,,,,,,,,506.8875934000025,507.39021360000334,507.39021360000334,508.1399838000034,508.1399838000034,508.6398192000015,508.6398192000015,509.54509840000173,509.54509840000173,509.54509840000173,None,,509.54509840000173,506.8875934000025,miss,0,,512.5470084300014,None,None,512.5470084300014,None,,,,,,,,,,,,,,,,,,,,,,,,,,,,,,,,,,,,,,,,,,,,,,,,,,,,,24,001,0,20,450,450,2022_Oct_18_1420,Experiment,2021.1.4,360.05155937770405,
images\S3_F_S_03.png,images\S3_F_S_03_scrambled.png,3,sad,-30,female,1,,498,off,1,0.5,0.75,0.5,0.798,3,497,1,1,1,0,0,0,0,1,,,,,,0,58,58,58,,,,,,,,,,,,,,,,,,,,,,,,,,,,,,,,,,,,,,,,,,,,,,,,,,,,,,,,,512.699868300002,513.1995322000002,513.1995322000002,513.9520681000031,513.9520681000031,514.4547808000025,514.4547808000025,515.2545696000016,515.2545696000016,None,num_4,0.5640391999986605,515.2545696000016,512.699868300002,sad,0,Sad,515.8292861200025,None,None,515.8292861200025,None,,,,,,,,,,,,,,,,,,,,,,,,,,,,,,,,,,,,,,,,,,,,,,,,,,,,,24,001,0,20,450,450,2022_Oct_18_1420,Experiment,2021.1.4,360.05155937770405,
images\S10_M_H_01.png,images\S10_M_H_01_scrambled.png,10,happy,10,male,4,,175,off,1,0.5,0.75,0.5,0.916,3,174,2,1,1,0,0,0,0,4,,,,,,0,59,59,59,,,,,,,,,,,,,,,,,,,,,,,,,,,,,,,,,,,,,,,,,,,,,,,,,,,,,,,,,515.9153611000002,516.4179869,516.4179869,517.1705260000017,517.1705260000017,517.6731876000013,517.6731876000013,518.5951452000008,518.5951452000008,None,num_6,0.519420299999183,518.5951452000008,None,happy,0,Happy,519.1254601200017,None,None,519.1254601200017,None,,,,,,,,,,,,,,,,,,,,,,,,,,,,,,,,,,,,,,,,,,,,,,,,,,,,,24,001,0,20,450,450,2022_Oct_18_1420,Experiment,2021.1.4,360.05155937770405,
images\S9_F_H_03.png,images\S9_F_H_03_scrambled.png,9,happy,30,female,6,,171,off,1,0.5,0.75,0.5,0.853,3,170,3,1,1,0,0,0,0,6,,,,,,0,60,60,60,,,,,,,,,,,,,,,,,,,,,,,,,,,,,,,,,,,,,,,,,,,,,,,,,,,,,,,,,519.1837343000007,519.6864391000017,519.6864391000017,520.439094100002,520.439094100002,520.9444522000013,520.9444522000013,521.7996749000013,521.7996749000013,None,num_6,0.5631492000029539,521.7996749000013,None,happy,0,Happy,522.3772502200009,None,None,522.3772502200009,None,,,,,,,,,,,,,,,,,,,,,,,,,,,,,,,,,,,,,,,,,,,,,,,,,,,,,24,001,0,20,450,450,2022_Oct_18_1420,Experiment,2021.1.4,360.05155937770405,
images\S5_F_S_02.png,images\S5_F_S_02_scrambled.png,5,sad,-20,female,2,,569,on,2,0.5,0.75,0.5,0.903,3,568,1,1,1,2,2,32,128,162,,,,,,0,61,61,61,,,,,,,,,,,,,,,,,,,,,,,,,,,,,,,,,,,,,,,,,,,,,,,,,,,,,,,,,522.4605674000013,522.9659919000005,522.9659919000005,523.7213129000011,523.7213129000011,524.2267021000007,524.2267021000007,525.134812100001,525.134812100001,None,num_4,0.4759085000005143,525.134812100001,None,sad,0,Sad,525.6234498200029,None,None,525.6234498200029,None,,,,,,,,,,,,,,,,,,,,,,,,,,,,,,,,,,,,,,,,,,,,,,,,,,,,,24,001,0,20,450,450,2022_Oct_18_1420,Experiment,2021.1.4,360.05155937770405,
images\S7_F_H_03.png,images\S7_F_H_03_scrambled.png,7,happy,30,female,6,,219,on,2,0.5,0.75,0.5,0.931,3,218,2,1,1,2,2,32,128,166,,,,,,0,62,62,62,,,,,,,,,,,,,,,,,,,,,,,,,,,,,,,,,,,,,,,,,,,,,,,,,,,,,,,,,525.676335600001,526.1816611000031,526.1816611000031,526.9343274000021,526.9343274000021,527.4396769000014,527.4396769000014,528.3754449000007,528.3754449000007,None,num_6,0.5072119999967981,528.3754449000007,None,happy,0,Happy,528.8974588199999,None,None,528.8974588199999,None,,,,,,,,,,,,,,,,,,,,,,,,,,,,,,,,,,,,,,,,,,,,,,,,,,,,,24,001,0,20,450,450,2022_Oct_18_1420,Experiment,2021.1.4,360.05155937770405,
images\S10_M_S_03.png,images\S10_M_S_03_scrambled.png,10,sad,-30,male,1,,60,off,1,0.5,0.75,0.5,0.794,3,59,1,1,1,0,0,0,0,1,,,,,,0,63,63,63,,,,,,,,,,,,,,,,,,,,,,,,,,,,,,,,,,,,,,,,,,,,,,,,,,,,,,,,,528.9474513000023,529.4473124000033,529.4473124000033,530.1999385000017,530.1999385000017,530.7052856000009,530.7052856000009,531.5050599000024,531.5050599000024,None,num_4,0.4655902000013157,531.5050599000024,None,sad,0,Sad,531.9853985200025,None,None,531.9853985200025,None,,,,,,,,,,,,,,,,,,,,,,,,,,,,,,,,,,,,,,,,,,,,,,,,,,,,,24,001,0,20,450,450,2022_Oct_18_1420,Experiment,2021.1.4,360.05155937770405,
images\S3_F_H_01.png,images\S3_F_H_01_scrambled.png,3,happy,10,female,4,,13,off,1,0.5,0.75,0.5,0.759,3,12,2,1,1,0,0,0,0,4,,,,,,0,64,64,64,,,,,,,,,,,,,,,,,,,,,,,,,,,,,,,,,,,,,,,,,,,,,,,,,,,,,,,,,532.0687204000023,532.5685567,532.5685567,533.3211322000025,533.3211322000025,533.8209550000029,533.8209550000029,534.5818573000033,534.5818573000033,None,num_4,0.5567039000015939,534.5818573000033,None,sad,0,Happy,535.1482797600002,None,None,535.1482797600002,None,,,,,,,,,,,,,,,,,,,,,,,,,,,,,,,,,,,,,,,,,,,,,,,,,,,,,24,001,0,20,450,450,2022_Oct_18_1420,Experiment,2021.1.4,360.05155937770405,
images\S1_F_H_03.png,images\S1_F_H_03_scrambled.png,1,happy,30,female,6,,63,on,2,0.5,0.75,0.5,0.78,3,62,1,1,1,2,2,32,128,166,,,,,,0,65,65,65,,,,,,,,,,,,,,,,,,,,,,,,,,,,,,,,,,,,,,,,,,,,,,,,,,,,,,,,,535.2344179000029,535.7398756000002,535.7398756000002,536.4951822000003,536.4951822000003,537.000568200001,537.000568200001,537.7864316000014,537.7864316000014,None,num_6,0.504355699998996,537.7864316000014,None,happy,0,Happy,538.3084542200013,None,None,538.3084542200013,None,,,,,,,,,,,,,,,,,,,,,,,,,,,,,,,,,,,,,,,,,,,,,,,,,,,,,24,001,0,20,450,450,2022_Oct_18_1420,Experiment,2021.1.4,360.05155937770405,
images\S10_M_H_02.png,images\S10_M_H_02_scrambled.png,10,happy,20,male,5,,56,off,1,0.5,0.75,0.5,0.898,3,55,1,1,1,0,0,0,0,5,,,,,,0,66,66,66,,,,,,,,,,,,,,,,,,,,,,,,,,,,,,,,,,,,,,,,,,,,,,,,,,,,,,,,,538.3917752000016,538.8916149000033,538.8916149000033,539.6469479000007,539.6469479000007,540.1496545000009,540.1496545000009,541.0520754000026,541.0520754000026,None,num_6,0.502399000000878,541.0520754000026,None,happy,0,Happy,541.565760720001,None,None,541.565760720001,None,,,,,,,,,,,,,,,,,,,,,,,,,,,,,,,,,,,,,,,,,,,,,,,,,,,,,24,001,0,20,450,450,2022_Oct_18_1420,Experiment,2021.1.4,360.05155937770405,
images\S10_M_H_03.png,images\S10_M_H_03_scrambled.png,10,happy,30,male,6,,237,on,2,0.5,0.75,0.5,0.804,3,236,1,2,1,2,2,32,128,166,,,,,,0,67,67,67,,,,,,,,,,,,,,,,,,,,,,,,,,,,,,,,,,,,,,,,,,,,,,,,,,,,,,,,,541.6157736000023,542.1156227000029,542.1156227000029,542.865389300001,542.865389300001,543.3680486000012,543.3680486000012,544.1733209000013,544.1733209000013,None,num_6,0.613590100001602,544.1733209000013,None,happy,0,Happy,544.8065410800009,None,None,544.8065410800009,None,,,,,,,,,,,,,,,,,,,,,,,,,,,,,,,,,,,,,,,,,,,,,,,,,,,,,24,001,0,20,450,450,2022_Oct_18_1420,Experiment,2021.1.4,360.05155937770405,
images\S3_F_H_01.png,images\S3_F_H_01_scrambled.png,3,happy,10,female,4,,253,off,1,0.5,0.75,0.5,0.776,3,252,1,1,1,0,0,0,0,4,,,,,,0,68,68,68,,,,,,,,,,,,,,,,,,,,,,,,,,,,,,,,,,,,,,,,,,,,,,,,,,,,,,,,,544.8592198000006,545.3618610000012,545.3618610000012,546.1144808000026,546.1144808000026,546.619895900003,546.619895900003,547.4001479000035,547.4001479000035,None,num_4,0.514412500000617,547.4001479000035,None,sad,0,Happy,547.9193883600019,None,None,547.9193883600019,None,,,,,,,,,,,,,,,,,,,,,,,,,,,,,,,,,,,,,,,,,,,,,,,,,,,,,24,001,0,20,450,450,2022_Oct_18_1420,Experiment,2021.1.4,360.05155937770405,
images\S8_M_H_02.png,images\S8_M_H_02_scrambled.png,8,happy,20,male,5,,584,on,2,0.5,0.75,0.5,0.803,3,583,1,1,1,2,2,32,128,165,,,,,,0,69,69,69,,,,,,,,,,,,,,,,,,,,,,,,,,,,,,,,,,,,,,,,,,,,,,,,,,,,,,,,,547.966617500002,548.4692151000017,548.4692151000017,549.2217615000009,549.2217615000009,549.7271787000027,549.7271787000027,550.5324843000017,550.5324843000017,None,num_6,0.5341029000010167,550.5324843000017,None,happy,0,Happy,551.0767680200006,None,None,551.0767680200006,None,,,,,,,,,,,,,,,,,,,,,,,,,,,,,,,,,,,,,,,,,,,,,,,,,,,,,24,001,0,20,450,450,2022_Oct_18_1420,Experiment,2021.1.4,360.05155937770405,
images\blank.jpg,images\blank.jpg,none,none,none,none,0,,616,on,2,0.5,0.75,0.5,0.871,0,615,2,1,1,3,3,48,192,240,,,,,,0,70,70,70,,,,,,,,,,,,,,,,,,,,,,,,,,,,,,,,,,,,,,,,,,,,,,,,,,,,,,,,,551.1630453000034,551.6654978000006,551.6654978000006,552.4180073000025,552.4180073000025,552.9206638000032,552.9206638000032,553.7953945000008,553.7953945000008,553.7953945000008,None,,553.7953945000008,None,miss,0,,556.8000455600013,None,None,556.8000455600013,None,,,,,,,,,,,,,,,,,,,,,,,,,,,,,,,,,,,,,,,,,,,,,,,,,,,,,24,001,0,20,450,450,2022_Oct_18_1420,Experiment,2021.1.4,360.05155937770405,
images\S2_M_S_02.png,images\S2_M_S_02_scrambled.png,2,sad,-20,male,2,,131,off,1,0.5,0.75,0.5,0.932,3,130,1,1,1,0,0,0,0,2,,,,,,0,71,71,71,,,,,,,,,,,,,,,,,,,,,,,,,,,,,,,,,,,,,,,,,,,,,,,,,,,,,,,,,556.9224576000015,557.4220124000021,557.4220124000021,558.174695200003,558.174695200003,558.6771800000024,558.6771800000024,559.6102395000016,559.6102395000016,None,num_4,0.4242515999976604,559.6102395000016,556.9224576000015,sad,0,Sad,560.062808470002,None,None,560.062808470002,None,,,,,,,,,,,,,,,,,,,,,,,,,,,,,,,,,,,,,,,,,,,,,,,,,,,,,24,001,0,20,450,450,2022_Oct_18_1420,Experiment,2021.1.4,360.05155937770405,
images\S6_M_H_02.png,images\S6_M_H_02_scrambled.png,6,happy,20,male,5,,332,on,2,0.5,0.75,0.5,0.776,3,331,1,1,1,2,2,32,128,165,,,,,,0,72,72,72,,,,,,,,,,,,,,,,,,,,,,,,,,,,,,,,,,,,,,,,,,,,,,,,,,,,,,,,,560.1156357,560.6154693000026,560.6154693000026,561.3708299000027,561.3708299000027,561.8762259000032,561.8762259000032,562.659392900001,562.659392900001,None,num_6,0.5192591000013635,562.659392900001,None,happy,0,Happy,563.1896890200005,None,None,563.1896890200005,None,,,,,,,,,,,,,,,,,,,,,,,,,,,,,,,,,,,,,,,,,,,,,,,,,,,,,24,001,0,20,450,450,2022_Oct_18_1420,Experiment,2021.1.4,360.05155937770405,
images\S1_F_H_01.png,images\S1_F_H_01_scrambled.png,1,happy,10,female,4,,1,off,1,0.5,0.75,0.5,0.759,3,0,1,1,1,0,0,0,0,4,,,,,,0,73,73,73,,,,,,,,,,,,,,,,,,,,,,,,,,,,,,,,,,,,,,,,,,,,,,,,,,,,,,,,,563.2368896000007,563.7395968000019,563.7395968000019,564.4948906000027,564.4948906000027,565.000299700001,565.000299700001,565.7611436000007,565.7611436000007,None,num_6,0.8336486000007426,565.7611436000007,None,happy,0,Happy,566.6053642200022,None,None,566.6053642200022,None,,,,,,,,,,,,,,,,,,,,,,,,,,,,,,,,,,,,,,,,,,,,,,,,,,,,,24,001,0,20,450,450,2022_Oct_18_1420,Experiment,2021.1.4,360.05155937770405,
images\S3_F_S_01.png,images\S3_F_S_01_scrambled.png,3,sad,-10,female,3,,136,off,1,0.5,0.75,0.5,0.784,3,135,2,1,1,0,0,0,0,3,,,,,,0,74,74,74,,,,,,,,,,,,,,,,,,,,,,,,,,,,,,,,,,,,,,,,,,,,,,,,,,,,,,,,,566.688606300002,567.191228300002,567.191228300002,567.9465750000018,567.9465750000018,568.4493282000003,568.4493282000003,569.235101000002,569.235101000002,None,num_4,0.5033739999998943,569.235101000002,None,sad,0,Sad,569.74877672,None,None,569.74877672,None,,,,,,,,,,,,,,,,,,,,,,,,,,,,,,,,,,,,,,,,,,,,,,,,,,,,,24,001,0,20,450,450,2022_Oct_18_1420,Experiment,2021.1.4,360.05155937770405,
images\S8_M_H_02.png,images\S8_M_H_02_scrambled.png,8,happy,20,male,5,,344,on,2,0.5,0.75,0.5,0.793,3,343,1,1,1,2,2,32,128,165,,,,,,0,75,75,75,,,,,,,,,,,,,,,,,,,,,,,,,,,,,,,,,,,,,,,,,,,,,,,,,,,,,,,,,569.7959966000017,570.3013986000005,570.3013986000005,571.056724500002,571.056724500002,571.5594517000027,571.5594517000027,572.3563396000027,572.3563396000027,None,num_6,0.5104156000015792,572.3563396000027,None,happy,0,Happy,572.8811368200004,None,None,572.8811368200004,None,,,,,,,,,,,,,,,,,,,,,,,,,,,,,,,,,,,,,,,,,,,,,,,,,,,,,24,001,0,20,450,450,2022_Oct_18_1420,Experiment,2021.1.4,360.05155937770405,
images\S4_M_H_02.png,images\S4_M_H_02_scrambled.png,4,happy,20,male,5,,20,off,1,0.5,0.75,0.5,0.756,3,19,1,1,2,0,0,0,0,5,,,,,,0,76,76,76,,,,,,,,,,,,,,,,,,,,,,,,,,,,,,,,,,,,,,,,,,,,,,,,,,,,,,,,,572.9311288000026,573.4338833000002,573.4338833000002,574.1892105000006,574.1892105000006,574.6917147000022,574.6917147000022,575.4498828000033,575.4498828000033,None,num_4,0.6088559999989229,575.4498828000033,None,sad,0,Happy,576.063499060001,None,None,576.063499060001,None,,,,,,,,,,,,,,,,,,,,,,,,,,,,,,,,,,,,,,,,,,,,,,,,,,,,,24,001,0,20,450,450,2022_Oct_18_1420,Experiment,2021.1.4,360.05155937770405,
images\S2_M_H_03.png,images\S2_M_H_03_scrambled.png,2,happy,30,male,6,,129,off,1,0.5,0.75,0.5,0.934,3,128,2,1,1,0,0,0,0,6,,,,,,0,77,77,77,,,,,,,,,,,,,,,,,,,,,,,,,,,,,,,,,,,,,,,,,,,,,,,,,,,,,,,,,576.110704900002,576.6161303000008,576.6161303000008,577.3687782000015,577.3687782000015,577.8712975000017,577.8712975000017,578.8099349000004,578.8099349000004,None,num_6,0.5367359000010765,578.8099349000004,None,happy,0,Happy,579.3624769199996,None,None,579.3624769199996,None,,,,,,,,,,,,,,,,,,,,,,,,,,,,,,,,,,,,,,,,,,,,,,,,,,,,,24,001,0,20,450,450,2022_Oct_18_1420,Experiment,2021.1.4,360.05155937770405,
images\blank.jpg,images\blank.jpg,none,none,none,none,0,,603,on,2,0.5,0.75,0.5,0.94,0,602,1,1,1,3,3,48,192,240,,,,,,0,78,78,78,,,,,,,,,,,,,,,,,,,,,,,,,,,,,,,,,,,,,,,,,,,,,,,,,,,,,,,,,579.4460633000017,579.9456369,579.9456369,580.695408800002,580.695408800002,581.2008406000023,581.2008406000023,582.1449521000031,582.1449521000031,582.1449521000031,None,,582.1449521000031,None,miss,0,,585.1496527600029,None,None,585.1496527600029,None,,,,,,,,,,,,,,,,,,,,,,,,,,,,,,,,,,,,,,,,,,,,,,,,,,,,,24,001,0,20,450,450,2022_Oct_18_1420,Experiment,2021.1.4,360.05155937770405,
images\S10_M_H_03.png,images\S10_M_H_03_scrambled.png,10,happy,30,male,6,,417,off,1,0.5,0.75,0.5,0.88,3,416,1,1,1,0,0,0,0,6,,,,,,0,79,79,79,,,,,,,,,,,,,,,,,,,,,,,,,,,,,,,,,,,,,,,,,,,,,,,,,,,,,,,,,585.2720633000026,585.7745297000001,585.7745297000001,586.5242048,586.5242048,587.0268253000031,587.0268253000031,587.9099757000004,587.9099757000004,None,num_6,0.4926099999975122,587.9099757000004,585.2720633000026,happy,0,Happy,588.4180499500017,None,None,588.4180499500017,None,,,,,,,,,,,,,,,,,,,,,,,,,,,,,,,,,,,,,,,,,,,,,,,,,,,,,24,001,0,20,450,450,2022_Oct_18_1420,Experiment,2021.1.4,360.05155937770405,
images\S3_F_H_01.png,images\S3_F_H_01_scrambled.png,3,happy,10,female,4,,553,on,2,0.5,0.75,0.5,0.78,3,552,1,1,1,2,2,32,128,164,,,,,,0,80,80,80,,,,,,,,,,,,,,,,,,,,,,,,,,,,,,,,,,,,,,,,,,,,,,,,,,,,,,,,,588.4680060999999,588.9707041000001,588.9707041000001,589.7259471000034,589.7259471000034,590.2313934000013,590.2313934000013,591.0144500000024,591.0144500000024,None,num_6,0.5961599999973259,591.0144500000024,None,happy,0,Happy,591.6225296200028,None,None,591.6225296200028,None,,,,,,,,,,,,,,,,,,,,,,,,,,,,,,,,,,,,,,,,,,,,,,,,,,,,,24,001,0,20,450,450,2022_Oct_18_1420,Experiment,2021.1.4,360.05155937770405,
images\S7_F_S_02.png,images\S7_F_S_02_scrambled.png,7,sad,-20,female,2,,581,on,2,0.5,0.75,0.5,0.908,3,580,2,1,1,2,2,32,128,162,,,,,,0,81,81,81,,,,,,,,,,,,,,,,,,,,,,,,,,,,,,,,,,,,,,,,,,,,,,,,,,,,,,,,,591.6698009000029,592.1724452000017,592.1724452000017,592.9250974000024,592.9250974000024,593.4276108000013,593.4276108000013,594.3412504000007,594.3412504000007,None,num_4,0.6611806000000797,594.3412504000007,None,sad,0,Sad,595.0132022200014,None,None,595.0132022200014,None,,,,,,,,,,,,,,,,,,,,,,,,,,,,,,,,,,,,,,,,,,,,,,,,,,,,,24,001,0,20,450,450,2022_Oct_18_1420,Experiment,2021.1.4,360.05155937770405,
images\S7_F_S_03.png,images\S7_F_S_03_scrambled.png,7,sad,-30,female,1,,522,off,1,0.5,0.75,0.5,0.931,3,521,1,2,1,0,0,0,0,1,,,,,,0,82,82,82,,,,,,,,,,,,,,,,,,,,,,,,,,,,,,,,,,,,,,,,,,,,,,,,,,,,,,,,,595.0937446000025,595.5963685000024,595.5963685000024,596.3517202000003,596.3517202000003,596.857118400003,596.857118400003,597.7902663000023,597.7902663000023,None,num_4,0.628123599999526,597.7902663000023,None,sad,0,Sad,598.4288375200013,None,None,598.4288375200013,None,,,,,,,,,,,,,,,,,,,,,,,,,,,,,,,,,,,,,,,,,,,,,,,,,,,,,24,001,0,20,450,450,2022_Oct_18_1420,Experiment,2021.1.4,360.05155937770405,
images\S7_F_S_02.png,images\S7_F_S_02_scrambled.png,7,sad,-20,female,2,,521,off,1,0.5,0.75,0.5,0.814,3,520,2,3,1,0,0,0,0,2,,,,,,0,83,83,83,,,,,,,,,,,,,,,,,,,,,,,,,,,,,,,,,,,,,,,,,,,,,,,,,,,,,,,,,598.476039000001,598.9814799000014,598.9814799000014,599.7367857000027,599.7367857000027,600.2421884000032,600.2421884000032,601.0613908000014,601.0613908000014,None,num_6,0.5251572000015585,601.0613908000014,None,happy,0,Sad,601.5917399600003,None,None,601.5917399600003,None,,,,,,,,,,,,,,,,,,,,,,,,,,,,,,,,,,,,,,,,,,,,,,,,,,,,,24,001,0,20,450,450,2022_Oct_18_1420,Experiment,2021.1.4,360.05155937770405,
images\S10_M_H_02.png,images\S10_M_H_02_scrambled.png,10,happy,20,male,5,,476,on,2,0.5,0.75,0.5,0.935,3,475,1,1,1,2,2,32,128,165,,,,,,0,84,84,84,,,,,,,,,,,,,,,,,,,,,,,,,,,,,,,,,,,,,,,,,,,,,,,,,,,,,,,,,601.6389596000008,602.1387932000034,602.1387932000034,602.8913949000016,602.8913949000016,603.3939658000018,603.3939658000018,604.3297853000004,604.3297853000004,None,num_6,0.6248860999985482,604.3297853000004,None,happy,0,Happy,604.9795561400024,None,None,604.9795561400024,None,,,,,,,,,,,,,,,,,,,,,,,,,,,,,,,,,,,,,,,,,,,,,,,,,,,,,24,001,0,20,450,450,2022_Oct_18_1420,Experiment,2021.1.4,360.05155937770405,
images\S10_M_S_03.png,images\S10_M_S_03_scrambled.png,10,sad,-30,male,1,,540,off,1,0.5,0.75,0.5,0.867,3,539,1,2,1,0,0,0,0,1,,,,,,0,85,85,85,,,,,,,,,,,,,,,,,,,,,,,,,,,,,,,,,,,,,,,,,,,,,,,,,,,,,,,,,605.0323559000026,605.5377695000025,605.5377695000025,606.2904306000019,606.2904306000019,606.7957845000019,606.7957845000019,607.6648743000005,607.6648743000005,None,num_4,0.5059108000023116,607.6648743000005,None,sad,0,Sad,608.1869240200031,None,None,608.1869240200031,None,,,,,,,,,,,,,,,,,,,,,,,,,,,,,,,,,,,,,,,,,,,,,,,,,,,,,24,001,0,20,450,450,2022_Oct_18_1420,Experiment,2021.1.4,360.05155937770405,
images\S7_F_H_02.png,images\S7_F_H_02_scrambled.png,7,happy,20,female,5,,98,on,2,0.5,0.75,0.5,0.868,3,97,1,1,1,2,2,32,128,165,,,,,,0,86,86,86,,,,,,,,,,,,,,,,,,,,,,,,,,,,,,,,,,,,,,,,,,,,,,,,,,,,,,,,,608.2980022000011,608.8007192000005,608.8007192000005,609.556000800003,609.556000800003,610.0614125000029,610.0614125000029,610.9361285000014,610.9361285000014,None,num_6,0.5625935000025493,610.9361285000014,None,happy,0,Happy,611.5192859500003,None,None,611.5192859500003,None,,,,,,,,,,,,,,,,,,,,,,,,,,,,,,,,,,,,,,,,,,,,,,,,,,,,,24,001,0,20,450,450,2022_Oct_18_1420,Experiment,2021.1.4,360.05155937770405,
images\blank.jpg,images\blank.jpg,none,none,none,none,0,,607,on,2,0.5,0.75,0.5,0.925,0,606,2,1,1,3,3,48,192,240,,,,,,0,87,87,87,,,,,,,,,,,,,,,,,,,,,,,,,,,,,,,,,,,,,,,,,,,,,,,,,,,,,,,,,611.6194326000004,612.1218356000027,612.1218356000027,612.8745044000025,612.8745044000025,613.3770010000007,613.3770010000007,614.3046201000034,614.3046201000034,614.3046201000034,None,,614.3046201000034,None,miss,0,,617.3064017600009,None,None,617.3064017600009,None,,,,,,,,,,,,,,,,,,,,,,,,,,,,,,,,,,,,,,,,,,,,,,,,,,,,,24,001,0,20,450,450,2022_Oct_18_1420,Experiment,2021.1.4,360.05155937770405,
images\S6_M_H_01.png,images\S6_M_H_01_scrambled.png,6,happy,10,male,4,,91,on,2,0.5,0.75,0.5,0.912,3,90,3,1,1,2,2,32,128,164,,,,,,0,88,88,88,,,,,,,,,,,,,,,,,,,,,,,,,,,,,,,,,,,,,,,,,,,,,,,,,,,,,,,,,617.4648959000006,617.9672820000014,617.9672820000014,618.7199334000034,618.7199334000034,619.2252855000006,619.2252855000006,620.141623800002,620.141623800002,None,num_6,0.5731216999993194,620.141623800002,617.4648959000006,happy,0,Happy,620.7274759200009,None,None,620.7274759200009,None,,,,,,,,,,,,,,,,,,,,,,,,,,,,,,,,,,,,,,,,,,,,,,,,,,,,,24,001,0,20,450,450,2022_Oct_18_1420,Experiment,2021.1.4,360.05155937770405,
images\S1_F_S_03.png,images\S1_F_S_03_scrambled.png,1,sad,-30,female,1,,246,off,1,0.5,0.75,0.5,0.837,3,245,1,1,1,0,0,0,0,1,,,,,,0,89,89,89,,,,,,,,,,,,,,,,,,,,,,,,,,,,,,,,,,,,,,,,,,,,,,,,,,,,,,,,,620.7747255000031,621.2745630000027,621.2745630000027,622.0271429000022,622.0271429000022,622.5297576000012,622.5297576000012,623.3711988000032,623.3711988000032,None,num_4,0.5112511000006634,623.3711988000032,None,sad,0,Sad,623.8931703199996,None,None,623.8931703199996,None,,,,,,,,,,,,,,,,,,,,,,,,,,,,,,,,,,,,,,,,,,,,,,,,,,,,,24,001,0,20,450,450,2022_Oct_18_1420,Experiment,2021.1.4,360.05155937770405,
images\S2_M_H_01.png,images\S2_M_H_01_scrambled.png,2,happy,10,male,4,,427,on,2,0.5,0.75,0.5,0.774,3,426,1,1,1,2,2,32,128,164,,,,,,0,90,90,90,,,,,,,,,,,,,,,,,,,,,,,,,,,,,,,,,,,,,,,,,,,,,,,,,,,,,,,,,623.9792901000001,624.4791397000008,624.4791397000008,625.2289135000028,625.2289135000028,625.7288045000023,625.7288045000023,626.5063340000015,626.5063340000015,None,num_6,0.46415369999886025,626.5063340000015,None,happy,0,Happy,626.9838828200009,None,None,626.9838828200009,None,,,,,,,,,,,,,,,,,,,,,,,,,,,,,,,,,,,,,,,,,,,,,,,,,,,,,24,001,0,20,450,450,2022_Oct_18_1420,Experiment,2021.1.4,360.05155937770405,
images\S9_F_S_01.png,images\S9_F_S_01_scrambled.png,9,sad,-10,female,3,,172,off,1,0.5,0.75,0.5,0.777,3,171,1,1,1,0,0,0,0,3,,,,,,0,91,91,91,,,,,,,,,,,,,,,,,,,,,,,,,,,,,,,,,,,,,,,,,,,,,,,,,,,,,,,,,627.0700070000021,627.5698463000008,627.5698463000008,628.3196161000014,628.3196161000014,628.8222403,628.8222403,629.602577200003,629.602577200003,None,num_6,0.5760628000025463,629.602577200003,None,happy,0,Sad,630.1856885600027,None,None,630.1856885600027,None,,,,,,,,,,,,,,,,,,,,,,,,,,,,,,,,,,,,,,,,,,,,,,,,,,,,,24,001,0,20,450,450,2022_Oct_18_1420,Experiment,2021.1.4,360.05155937770405,
images\S5_F_S_01.png,images\S5_F_S_01_scrambled.png,5,sad,-10,female,3,,388,off,1,0.5,0.75,0.5,0.917,3,387,2,1,2,0,0,0,0,3,,,,,,0,92,92,92,,,,,,,,,,,,,,,,,,,,,,,,,,,,,,,,,,,,,,,,,,,,,,,,,,,,,,,,,630.2718104000014,630.7744212000034,630.7744212000034,631.529878100002,631.529878100002,632.0352379000033,632.0352379000033,632.9542987000023,632.9542987000023,None,num_6,0.536379000001034,632.9542987000023,None,happy,0,Sad,633.4985919600003,None,None,633.4985919600003,None,,,,,,,,,,,,,,,,,,,,,,,,,,,,,,,,,,,,,,,,,,,,,,,,,,,,,24,001,0,20,450,450,2022_Oct_18_1420,Experiment,2021.1.4,360.05155937770405,
images\S10_M_S_03.png,images\S10_M_S_03_scrambled.png,10,sad,-30,male,1,,420,off,1,0.5,0.75,0.5,0.813,3,419,3,1,1,0,0,0,0,1,,,,,,0,93,93,93,,,,,,,,,,,,,,,,,,,,,,,,,,,,,,,,,,,,,,,,,,,,,,,,,,,,,,,,,633.5485646000016,634.0512308000034,634.0512308000034,634.8037447000024,634.8037447000024,635.3035894000022,635.3035894000022,636.1227921000027,636.1227921000027,None,num_4,0.47184329999799957,636.1227921000027,None,sad,0,Sad,636.6086960200009,None,None,636.6086960200009,None,,,,,,,,,,,,,,,,,,,,,,,,,,,,,,,,,,,,,,,,,,,,,,,,,,,,,24,001,0,20,450,450,2022_Oct_18_1420,Experiment,2021.1.4,360.05155937770405,
images\S3_F_H_01.png,images\S3_F_H_01_scrambled.png,3,happy,10,female,4,,433,on,2,0.5,0.75,0.5,0.865,3,432,1,1,1,2,2,32,128,164,,,,,,0,94,94,94,,,,,,,,,,,,,,,,,,,,,,,,,,,,,,,,,,,,,,,,,,,,,,,,,,,,,,,,,636.655946400002,637.1585799000022,637.1585799000022,637.9111552000031,637.9111552000031,638.410963600003,638.410963600003,639.2802695000028,639.2802695000028,None,num_6,0.4663144000005559,639.2802695000028,None,happy,0,Happy,639.7605292200024,None,None,639.7605292200024,None,,,,,,,,,,,,,,,,,,,,,,,,,,,,,,,,,,,,,,,,,,,,,,,,,,,,,24,001,0,20,450,450,2022_Oct_18_1420,Experiment,2021.1.4,360.05155937770405,
images\S8_M_H_03.png,images\S8_M_H_03_scrambled.png,8,happy,30,male,6,,525,off,1,0.5,0.75,0.5,0.786,3,524,1,1,1,0,0,0,0,6,,,,,,0,95,95,95,,,,,,,,,,,,,,,,,,,,,,,,,,,,,,,,,,,,,,,,,,,,,,,,,,,,,,,,,639.841072700001,640.3437051000001,640.3437051000001,641.096249000002,641.096249000002,641.5988591000023,641.5988591000023,642.3904199000026,642.3904199000026,None,num_6,0.524147100000846,642.3904199000026,None,happy,0,Happy,642.9289654200002,None,None,642.9289654200002,None,,,,,,,,,,,,,,,,,,,,,,,,,,,,,,,,,,,,,,,,,,,,,,,,,,,,,24,001,0,20,450,450,2022_Oct_18_1420,Experiment,2021.1.4,360.05155937770405,
images\S10_M_H_02.png,images\S10_M_H_02_scrambled.png,10,happy,20,male,5,,176,off,1,0.5,0.75,0.5,0.765,3,175,2,1,1,0,0,0,0,5,,,,,,0,96,96,96,,,,,,,,,,,,,,,,,,,,,,,,,,,,,,,,,,,,,,,,,,,,,,,,,,,,,,,,,642.9762376000035,643.4816567000016,643.4816567000016,644.2369668000028,644.2369668000028,644.7368129000024,644.7368129000024,645.5059906000024,645.5059906000024,None,num_6,0.4733797000008053,645.5059906000024,None,happy,0,Happy,646.0031627100016,None,None,646.0031627100016,None,,,,,,,,,,,,,,,,,,,,,,,,,,,,,,,,,,,,,,,,,,,,,,,,,,,,,24,001,0,20,450,450,2022_Oct_18_1420,Experiment,2021.1.4,360.05155937770405,
images\S10_M_H_01.png,images\S10_M_H_01_scrambled.png,10,happy,10,male,4,,595,on,2,0.5,0.75,0.5,0.92,3,594,1,2,1,2,2,32,128,164,,,,,,0,97,97,97,,,,,,,,,,,,,,,,,,,,,,,,,,,,,,,,,,,,,,,,,,,,,,,,,,,,,,,,,646.0530611000031,646.5529157000019,646.5529157000019,647.3055355000033,647.3055355000033,647.8080749000001,647.8080749000001,648.7301408000021,648.7301408000021,None,num_6,0.5604370999972161,648.7301408000021,None,happy,0,Happy,649.3076012199999,None,None,649.3076012199999,None,,,,,,,,,,,,,,,,,,,,,,,,,,,,,,,,,,,,,,,,,,,,,,,,,,,,,24,001,0,20,450,450,2022_Oct_18_1420,Experiment,2021.1.4,360.05155937770405,
images\S6_M_H_01.png,images\S6_M_H_01_scrambled.png,6,happy,10,male,4,,391,off,1,0.5,0.75,0.5,0.88,3,390,1,1,2,0,0,0,0,4,,,,,,0,98,98,98,,,,,,,,,,,,,,,,,,,,,,,,,,,,,,,,,,,,,,,,,,,,,,,,,,,,,,,,,649.3548082000016,649.8574509000027,649.8574509000027,650.6101181000013,650.6101181000013,651.1098475000035,651.1098475000035,651.9957807000028,651.9957807000028,None,num_4,0.4634866999986116,651.9957807000028,None,sad,0,Happy,652.4705682900003,None,None,652.4705682900003,None,,,,,,,,,,,,,,,,,,,,,,,,,,,,,,,,,,,,,,,,,,,,,,,,,,,,,24,001,0,20,450,450,2022_Oct_18_1420,Experiment,2021.1.4,360.05155937770405,
images\S7_F_H_03.png,images\S7_F_H_03_scrambled.png,7,happy,30,female,6,,399,off,1,0.5,0.75,0.5,0.875,3,398,2,1,1,0,0,0,0,6,,,,,,0,99,99,99,,,,,,,,,,,,,,,,,,,,,,,,,,,,,,,,,,,,,,,,,,,,,,,,,,,,,,,,,652.5343832000035,653.0342299000004,653.0342299000004,653.7868103000001,653.7868103000001,654.2866214000023,654.2866214000023,655.1641524000006,655.1641524000006,None,num_6,0.5665698000011616,655.1641524000006,None,happy,0,Happy,655.7444725200003,None,None,655.7444725200003,None,,,,,,,,,,,,,,,,,,,,,,,,,,,,,,,,,,,,,,,,,,,,,,,,,,,,,24,001,0,20,450,450,2022_Oct_18_1420,Experiment,2021.1.4,360.05155937770405,
images\S9_F_S_02.png,images\S9_F_S_02_scrambled.png,9,sad,-20,female,2,,293,off,1,0.5,0.75,0.5,0.855,3,292,3,1,1,0,0,0,0,2,,,,,,0,100,100,100,,,,,,,,,,,,,,,,,,,,,,,,,,,,,,,,,,,,,,,,,,,,,,,,,,,,,,,,,655.8278203000009,656.3305727000006,656.3305727000006,657.0802304000026,657.0802304000026,657.5856924,657.5856924,658.4464965000006,658.4464965000006,None,num_6,0.4280189999990398,658.4464965000006,None,happy,0,Sad,658.87962806,None,None,658.87962806,None,,,,,,,,,,,,,,,,,,,,,,,,,,,,,,,,,,,,,,,,,,,,,,,,,,,,,24,001,0,20,450,450,2022_Oct_18_1420,Experiment,2021.1.4,360.05155937770405,
images\S4_M_H_02.png,images\S4_M_H_02_scrambled.png,4,happy,20,male,5,,380,off,1,0.5,0.75,0.5,0.862,3,379,4,1,1,0,0,0,0,5,,,,,,0,101,101,101,,,,,,,,,,,,,,,,,,,,,,,,,,,,,,,,,,,,,,,,,,,,,,,,,,,,,,,,,658.9296345000002,659.4322555000035,659.4322555000035,660.182021200002,660.182021200002,660.6847815000001,660.6847815000001,661.5511062000005,661.5511062000005,None,num_6,0.5154634999998962,661.5511062000005,None,happy,0,Happy,662.0814019200006,None,None,662.0814019200006,None,,,,,,,,,,,,,,,,,,,,,,,,,,,,,,,,,,,,,,,,,,,,,,,,,,,,,24,001,0,20,450,450,2022_Oct_18_1420,Experiment,2021.1.4,360.05155937770405,
images\S4_M_H_01.png,images\S4_M_H_01_scrambled.png,4,happy,10,male,4,,199,on,2,0.5,0.75,0.5,0.893,3,198,1,2,1,2,2,32,128,164,,,,,,0,102,102,102,,,,,,,,,,,,,,,,,,,,,,,,,,,,,,,,,,,,,,,,,,,,,,,,,,,,,,,,,662.1647561000027,662.667393300002,662.667393300002,663.4200694000028,663.4200694000028,663.9254484000012,663.9254484000012,664.822293600002,664.822293600002,None,num_6,0.7962090000000899,664.822293600002,None,happy,0,Happy,665.63308702,None,None,665.63308702,None,,,,,,,,,,,,,,,,,,,,,,,,,,,,,,,,,,,,,,,,,,,,,,,,,,,,,24,001,0,20,450,450,2022_Oct_18_1420,Experiment,2021.1.4,360.05155937770405,
images\S6_M_S_01.png,images\S6_M_S_01_scrambled.png,6,sad,-10,male,3,,274,off,1,0.5,0.75,0.5,0.925,3,273,1,1,1,0,0,0,0,3,,,,,,0,103,103,103,,,,,,,,,,,,,,,,,,,,,,,,,,,,,,,,,,,,,,,,,,,,,,,,,,,,,,,,,665.7164408000026,666.2218666000008,666.2218666000008,666.9771938000013,666.9771938000013,667.4799078000033,667.4799078000033,668.407293100001,668.407293100001,None,num_4,0.5071865999998408,668.407293100001,None,sad,0,Sad,668.9432246699998,None,None,668.9432246699998,None,,,,,,,,,,,,,,,,,,,,,,,,,,,,,,,,,,,,,,,,,,,,,,,,,,,,,24,001,0,20,450,450,2022_Oct_18_1420,Experiment,2021.1.4,360.05155937770405,
images\S6_M_S_01.png,images\S6_M_S_01_scrambled.png,6,sad,-10,male,3,,334,on,2,0.5,0.75,0.5,0.922,3,333,1,2,2,2,2,32,128,163,,,,,,0,104,104,104,,,,,,,,,,,,,,,,,,,,,,,,,,,,,,,,,,,,,,,,,,,,,,,,,,,,,,,,,668.9959841000018,669.5014206000014,669.5014206000014,670.2511603000021,670.2511603000021,670.7565864000026,670.7565864000026,671.6812620000019,671.6812620000019,None,num_4,0.5452514000025985,671.6812620000019,None,sad,0,Sad,672.2366590199999,None,None,672.2366590199999,None,,,,,,,,,,,,,,,,,,,,,,,,,,,,,,,,,,,,,,,,,,,,,,,,,,,,,24,001,0,20,450,450,2022_Oct_18_1420,Experiment,2021.1.4,360.05155937770405,
images\S9_F_H_01.png,images\S9_F_H_01_scrambled.png,9,happy,10,female,4,,109,on,2,0.5,0.75,0.5,0.916,3,108,2,1,1,2,2,32,128,164,,,,,,0,105,105,105,,,,,,,,,,,,,,,,,,,,,,,,,,,,,,,,,,,,,,,,,,,,,,,,,,,,,,,,,672.286630300001,672.7864797000002,672.7864797000002,673.5390240000015,673.5390240000015,674.0416922000004,674.0416922000004,674.9608680000019,674.9608680000019,None,num_6,0.48947079999925336,674.9608680000019,None,happy,0,Happy,675.460636920001,None,None,675.460636920001,None,,,,,,,,,,,,,,,,,,,,,,,,,,,,,,,,,,,,,,,,,,,,,,,,,,,,,24,001,0,20,450,450,2022_Oct_18_1420,Experiment,2021.1.4,360.05155937770405,
images\S5_F_H_01.png,images\S5_F_H_01_scrambled.png,5,happy,10,female,4,,445,on,2,0.5,0.75,0.5,0.815,3,444,3,1,2,2,2,32,128,164,,,,,,0,106,106,106,,,,,,,,,,,,,,,,,,,,,,,,,,,,,,,,,,,,,,,,,,,,,,,,,,,,,,,,,675.5717322000019,676.077161600002,676.077161600002,676.8324747000006,676.8324747000006,677.335203300001,677.335203300001,678.1543097000031,678.1543097000031,None,num_6,0.3441168999997899,678.1543097000031,None,happy,0,Happy,678.5235810700015,None,None,678.5235810700015,None,,,,,,,,,,,,,,,,,,,,,,,,,,,,,,,,,,,,,,,,,,,,,,,,,,,,,24,001,0,20,450,450,2022_Oct_18_1420,Experiment,2021.1.4,360.05155937770405,
images\S8_M_H_02.png,images\S8_M_H_02_scrambled.png,8,happy,20,male,5,,404,off,1,0.5,0.75,0.5,0.795,3,403,1,1,1,0,0,0,0,5,,,,,,0,107,107,107,,,,,,,,,,,,,,,,,,,,,,,,,,,,,,,,,,,,,,,,,,,,,,,,,,,,,,,,,678.5763626000007,679.0817969000018,679.0817969000018,679.8315430000002,679.8315430000002,680.3341512000006,680.3341512000006,681.1311560000031,681.1311560000031,None,num_6,0.4556135000020731,681.1311560000031,None,happy,0,Happy,681.6003902200027,None,None,681.6003902200027,None,,,,,,,,,,,,,,,,,,,,,,,,,,,,,,,,,,,,,,,,,,,,,,,,,,,,,24,001,0,20,450,450,2022_Oct_18_1420,Experiment,2021.1.4,360.05155937770405,
images\S5_F_S_01.png,images\S5_F_S_01_scrambled.png,5,sad,-10,female,3,,148,off,1,0.5,0.75,0.5,0.823,3,147,2,1,1,0,0,0,0,3,,,,,,0,108,108,108,,,,,,,,,,,,,,,,,,,,,,,,,,,,,,,,,,,,,,,,,,,,,,,,,,,,,,,,,681.6559092000025,682.1614066000002,682.1614066000002,682.9139090000026,682.9139090000026,683.413757600003,683.413757600003,684.2413001000023,684.2413001000023,None,num_6,0.4491541999996116,684.2413001000023,None,happy,0,Sad,684.6994353600021,None,None,684.6994353600021,None,,,,,,,,,,,,,,,,,,,,,,,,,,,,,,,,,,,,,,,,,,,,,,,,,,,,,24,001,0,20,450,450,2022_Oct_18_1420,Experiment,2021.1.4,360.05155937770405,
images\S3_F_H_01.png,images\S3_F_H_01_scrambled.png,3,happy,10,female,4,,493,off,1,0.5,0.75,0.5,0.831,3,492,3,1,1,0,0,0,0,4,,,,,,0,109,109,109,,,,,,,,,,,,,,,,,,,,,,,,,,,,,,,,,,,,,,,,,,,,,,,,,,,,,,,,,684.7466895000034,685.2494306000008,685.2494306000008,686.0018920000002,686.0018920000002,686.5072731,686.5072731,687.3431987000004,687.3431987000004,None,num_6,0.5397582000005059,687.3431987000004,None,happy,0,Happy,687.9096846400025,None,None,687.9096846400025,None,,,,,,,,,,,,,,,,,,,,,,,,,,,,,,,,,,,,,,,,,,,,,,,,,,,,,24,001,0,20,450,450,2022_Oct_18_1420,Experiment,2021.1.4,360.05155937770405,
images\S4_M_H_01.png,images\S4_M_H_01_scrambled.png,4,happy,10,male,4,,139,off,1,0.5,0.75,0.5,0.91,3,138,4,1,2,0,0,0,0,4,,,,,,0,110,110,110,,,,,,,,,,,,,,,,,,,,,,,,,,,,,,,,,,,,,,,,,,,,,,,,,,,,,,,,,687.9623726000027,688.4677558000003,688.4677558000003,689.2204459000022,689.2204459000022,689.7229353000002,689.7229353000002,690.6365817000005,690.6365817000005,None,num_4,0.47805030000017723,690.6365817000005,None,sad,0,Happy,691.1224876600027,None,None,691.1224876600027,None,,,,,,,,,,,,,,,,,,,,,,,,,,,,,,,,,,,,,,,,,,,,,,,,,,,,,24,001,0,20,450,450,2022_Oct_18_1420,Experiment,2021.1.4,360.05155937770405,
images\S4_M_S_03.png,images\S4_M_S_03_scrambled.png,4,sad,-30,male,1,,384,off,1,0.5,0.75,0.5,0.844,3,383,5,2,1,0,0,0,0,1,,,,,,0,111,111,111,,,,,,,,,,,,,,,,,,,,,,,,,,,,,,,,,,,,,,,,,,,,,,,,,,,,,,,,,691.1697084000007,691.6752388000023,691.6752388000023,692.4249067000019,692.4249067000019,692.9304034000015,692.9304034000015,693.7772540000005,693.7772540000005,None,num_4,0.5451579000000493,693.7772540000005,None,sad,0,Sad,694.3353600200026,None,None,694.3353600200026,None,,,,,,,,,,,,,,,,,,,,,,,,,,,,,,,,,,,,,,,,,,,,,,,,,,,,,24,001,0,20,450,450,2022_Oct_18_1420,Experiment,2021.1.4,360.05155937770405,
images\S9_F_H_01.png,images\S9_F_H_01_scrambled.png,9,happy,10,female,4,,169,off,1,0.5,0.75,0.5,0.856,3,168,6,1,1,0,0,0,0,4,,,,,,0,112,112,112,,,,,,,,,,,,,,,,,,,,,,,,,,,,,,,,,,,,,,,,,,,,,,,,,,,,,,,,,694.3826084000029,694.8853721000014,694.8853721000014,695.6406541000033,695.6406541000033,696.1460076000003,696.1460076000003,697.0040184000027,697.0040184000027,None,num_6,0.42247819999829517,697.0040184000027,None,happy,0,Happy,697.43719882,None,None,697.43719882,None,,,,,,,,,,,,,,,,,,,,,,,,,,,,,,,,,,,,,,,,,,,,,,,,,,,,,24,001,0,20,450,450,2022_Oct_18_1420,Experiment,2021.1.4,360.05155937770405,
images\S9_F_S_03.png,images\S9_F_S_03_scrambled.png,9,sad,-30,female,1,,294,off,1,0.5,0.75,0.5,0.85,3,293,7,2,1,0,0,0,0,1,,,,,,0,113,113,113,,,,,,,,,,,,,,,,,,,,,,,,,,,,,,,,,,,,,,,,,,,,,,,,,,,,,,,,,697.5205282000024,698.0203701000028,698.0203701000028,698.7729346000015,698.7729346000015,699.275625600003,699.275625600003,700.1308799000035,700.1308799000035,None,num_4,0.42365029999928083,700.1308799000035,None,sad,0,Sad,700.5695835200022,None,None,700.5695835200022,None,,,,,,,,,,,,,,,,,,,,,,,,,,,,,,,,,,,,,,,,,,,,,,,,,,,,,24,001,0,20,450,450,2022_Oct_18_1420,Experiment,2021.1.4,360.05155937770405,
images\blank.jpg,images\blank.jpg,none,none,none,none,0,,632,on,2,0.5,0.75,0.5,0.781,0,631,1,1,1,3,3,48,192,240,,,,,,0,114,114,114,,,,,,,,,,,,,,,,,,,,,,,,,,,,,,,,,,,,,,,,,,,,,,,,,,,,,,,,,700.6532056000033,701.1556059000031,701.1556059000031,701.9108815,701.9108815,702.4162848000014,702.4162848000014,703.2021350000032,703.2021350000032,703.2021350000032,None,,703.2021350000032,None,miss,0,,706.2068171600004,None,None,706.2068171600004,None,,,,,,,,,,,,,,,,,,,,,,,,,,,,,,,,,,,,,,,,,,,,,,,,,,,,,24,001,0,20,450,450,2022_Oct_18_1420,Experiment,2021.1.4,360.05155937770405,
images\S2_M_S_01.png,images\S2_M_S_01_scrambled.png,2,sad,-10,male,3,,310,on,2,0.5,0.75,0.5,0.852,3,309,2,1,1,2,2,32,128,163,,,,,,0,115,115,115,,,,,,,,,,,,,,,,,,,,,,,,,,,,,,,,,,,,,,,,,,,,,,,,,,,,,,,,,706.3290723000027,706.8315722000007,706.8315722000007,707.5841217000016,707.5841217000016,708.0839451000029,708.0839451000029,708.9448712000012,708.9448712000012,None,num_4,0.47402389999842853,708.9448712000012,706.3290723000027,sad,0,Sad,709.4419646100014,None,None,709.4419646100014,None,,,,,,,,,,,,,,,,,,,,,,,,,,,,,,,,,,,,,,,,,,,,,,,,,,,,,24,001,0,20,450,450,2022_Oct_18_1420,Experiment,2021.1.4,360.05155937770405,
images\S6_M_S_03.png,images\S6_M_S_03_scrambled.png,6,sad,-30,male,1,,576,on,2,0.5,0.75,0.5,0.783,3,575,3,1,1,2,2,32,128,161,,,,,,0,116,116,116,,,,,,,,,,,,,,,,,,,,,,,,,,,,,,,,,,,,,,,,,,,,,,,,,,,,,,,,,709.4918362000026,709.9944767000015,709.9944767000015,710.747018500002,710.747018500002,711.2524975000015,711.2524975000015,712.0354980000011,712.0354980000011,None,num_4,0.43106519999855664,712.0354980000011,None,sad,0,Sad,712.4770466200025,None,None,712.4770466200025,None,,,,,,,,,,,,,,,,,,,,,,,,,,,,,,,,,,,,,,,,,,,,,,,,,,,,,24,001,0,20,450,450,2022_Oct_18_1420,Experiment,2021.1.4,360.05155937770405,
images\S5_F_S_03.png,images\S5_F_S_03_scrambled.png,5,sad,-30,female,1,,210,on,2,0.5,0.75,0.5,0.784,3,209,4,1,2,2,2,32,128,161,,,,,,0,117,117,117,,,,,,,,,,,,,,,,,,,,,,,,,,,,,,,,,,,,,,,,,,,,,,,,,,,,,,,,,712.5298742000014,713.0325438,713.0325438,713.7878040000032,713.7878040000032,714.2931847,714.2931847,715.0790012000034,715.0790012000034,None,num_4,0.6196879000017361,715.0790012000034,None,sad,0,Sad,715.7121413200002,None,None,715.7121413200002,None,,,,,,,,,,,,,,,,,,,,,,,,,,,,,,,,,,,,,,,,,,,,,,,,,,,,,24,001,0,20,450,450,2022_Oct_18_1420,Experiment,2021.1.4,360.05155937770405,
images\blank.jpg,images\blank.jpg,none,none,none,none,0,,649,on,2,0.5,0.75,0.5,0.814,0,648,5,1,1,3,3,48,192,240,,,,,,0,118,118,118,,,,,,,,,,,,,,,,,,,,,,,,,,,,,,,,,,,,,,,,,,,,,,,,,,,,,,,,,715.795735300002,716.2980809000001,716.2980809000001,717.0506771,717.0506771,717.5532816000014,717.5532816000014,718.3668790000011,718.3668790000011,718.3668790000011,None,,718.3668790000011,None,miss,0,,721.3687499300013,None,None,721.3687499300013,None,,,,,,,,,,,,,,,,,,,,,,,,,,,,,,,,,,,,,,,,,,,,,,,,,,,,,24,001,0,20,450,450,2022_Oct_18_1420,Experiment,2021.1.4,360.05155937770405,
images\S1_F_S_03.png,images\S1_F_S_03_scrambled.png,1,sad,-30,female,1,,6,off,1,0.5,0.75,0.5,0.871,3,5,1,1,1,0,0,0,0,1,,,,,,0,119,119,119,,,,,,,,,,,,,,,,,,,,,,,,,,,,,,,,,,,,,,,,,,,,,,,,,,,,,,,,,721.4856515000029,721.987984000003,721.987984000003,722.7377579000022,722.7377579000022,723.2431927000034,723.2431927000034,724.1179360000024,724.1179360000024,None,num_4,0.42914939999900525,724.1179360000024,721.4856515000029,sad,0,Sad,724.5732831400019,None,None,724.5732831400019,None,,,,,,,,,,,,,,,,,,,,,,,,,,,,,,,,,,,,,,,,,,,,,,,,,,,,,24,001,0,20,450,450,2022_Oct_18_1420,Experiment,2021.1.4,360.05155937770405,
images\S9_F_H_01.png,images\S9_F_H_01_scrambled.png,9,happy,10,female,4,,49,off,1,0.5,0.75,0.5,0.879,3,48,2,1,1,0,0,0,0,4,,,,,,0,120,120,120,,,,,,,,,,,,,,,,,,,,,,,,,,,,,,,,,,,,,,,,,,,,,,,,,,,,,,,,,724.6260720000028,725.1287321000018,725.1287321000018,725.8840114000013,725.8840114000013,726.3894302000008,726.3894302000008,727.2752626000001,727.2752626000001,None,num_6,0.5592327000013029,727.2752626000001,None,happy,0,Happy,727.8500260200017,None,None,727.8500260200017,None,,,,,,,,,,,,,,,,,,,,,,,,,,,,,,,,,,,,,,,,,,,,,,,,,,,,,24,001,0,20,450,450,2022_Oct_18_1420,Experiment,2021.1.4,360.05155937770405,
images\S2_M_H_02.png,images\S2_M_H_02_scrambled.png,2,happy,20,male,5,,548,on,2,0.5,0.75,0.5,0.785,3,547,1,1,1,2,2,32,128,165,,,,,,0,121,121,121,,,,,,,,,,,,,,,,,,,,,,,,,,,,,,,,,,,,,,,,,,,,,,,,,,,,,,,,,727.9583802000016,728.4582257000002,728.4582257000002,729.2107929000013,729.2107929000013,729.7134366000028,729.7134366000028,730.5048244000027,730.5048244000027,None,num_6,0.537543900001765,730.5048244000027,None,happy,0,Happy,731.0601906200027,None,None,731.0601906200027,None,,,,,,,,,,,,,,,,,,,,,,,,,,,,,,,,,,,,,,,,,,,,,,,,,,,,,24,001,0,20,450,450,2022_Oct_18_1420,Experiment,2021.1.4,360.05155937770405,
images\S8_M_S_02.png,images\S8_M_S_02_scrambled.png,8,sad,-20,male,2,,227,on,2,0.5,0.75,0.5,0.847,3,226,2,1,1,2,2,32,128,162,,,,,,0,122,122,122,,,,,,,,,,,,,,,,,,,,,,,,,,,,,,,,,,,,,,,,,,,,,,,,,,,,,,,,,731.1101804000027,731.6128116,731.6128116,732.3681703000002,732.3681703000002,732.873566000002,732.873566000002,733.7233047000009,733.7233047000009,None,num_4,0.4309389000009105,733.7233047000009,None,sad,0,Sad,734.1675293200024,None,None,734.1675293200024,None,,,,,,,,,,,,,,,,,,,,,,,,,,,,,,,,,,,,,,,,,,,,,,,,,,,,,24,001,0,20,450,450,2022_Oct_18_1420,Experiment,2021.1.4,360.05155937770405,
images\S2_M_H_03.png,images\S2_M_H_03_scrambled.png,2,happy,30,male,6,,9,off,1,0.5,0.75,0.5,0.834,3,8,1,1,1,0,0,0,0,6,,,,,,0,123,123,123,,,,,,,,,,,,,,,,,,,,,,,,,,,,,,,,,,,,,,,,,,,,,,,,,,,,,,,,,734.2369952000008,734.7424813000034,734.7424813000034,735.4949762000033,735.4949762000033,735.9976502000027,735.9976502000027,736.8361945000033,736.8361945000033,None,num_6,0.4462371000008716,736.8361945000033,None,happy,0,Happy,737.297124120003,None,None,737.297124120003,None,,,,,,,,,,,,,,,,,,,,,,,,,,,,,,,,,,,,,,,,,,,,,,,,,,,,,24,001,0,20,450,450,2022_Oct_18_1420,Experiment,2021.1.4,360.05155937770405,
images\S2_M_S_01.png,images\S2_M_S_01_scrambled.png,2,sad,-10,male,3,,70,on,2,0.5,0.75,0.5,0.758,3,69,1,2,1,2,2,32,128,163,,,,,,0,124,124,124,,,,,,,,,,,,,,,,,,,,,,,,,,,,,,,,,,,,,,,,,,,,,,,,,,,,,,,,,737.3443721000003,737.8497827000028,737.8497827000028,738.6024763000023,738.6024763000023,739.1077710000027,739.1077710000027,739.8658135000005,739.8658135000005,None,num_4,0.5366117999983544,739.8658135000005,None,sad,0,Sad,740.4129161199999,None,None,740.4129161199999,None,,,,,,,,,,,,,,,,,,,,,,,,,,,,,,,,,,,,,,,,,,,,,,,,,,,,,24,001,0,20,450,450,2022_Oct_18_1420,Experiment,2021.1.4,360.05155937770405,
images\S2_M_S_02.png,images\S2_M_S_02_scrambled.png,2,sad,-20,male,2,,11,off,1,0.5,0.75,0.5,0.827,3,10,1,3,1,0,0,0,0,2,,,,,,0,125,125,125,,,,,,,,,,,,,,,,,,,,,,,,,,,,,,,,,,,,,,,,,,,,,,,,,,,,,,,,,740.4628480000029,740.9654894000014,740.9654894000014,741.7180840000001,741.7180840000001,742.2207021000031,742.2207021000031,743.0509734000007,743.0509734000007,None,num_4,0.5674996999987343,743.0509734000007,None,sad,0,Sad,743.6312871200025,None,None,743.6312871200025,None,,,,,,,,,,,,,,,,,,,,,,,,,,,,,,,,,,,,,,,,,,,,,,,,,,,,,24,001,0,20,450,450,2022_Oct_18_1420,Experiment,2021.1.4,360.05155937770405,
images\blank.jpg,images\blank.jpg,none,none,none,none,0,,650,on,2,0.5,0.75,0.5,0.941,0,649,1,1,1,3,3,48,192,240,,,,,,0,126,126,126,,,,,,,,,,,,,,,,,,,,,,,,,,,,,,,,,,,,,,,,,,,,,,,,,,,,,,,,,743.7179338000024,744.2200464000016,744.2200464000016,744.9726534000001,744.9726534000001,745.4780210000026,745.4780210000026,746.4222738000026,746.4222738000026,746.4222738000026,None,,746.4222738000026,None,miss,0,,749.4267688300006,None,None,749.4267688300006,None,,,,,,,,,,,,,,,,,,,,,,,,,,,,,,,,,,,,,,,,,,,,,,,,,,,,,24,001,0,20,450,450,2022_Oct_18_1420,Experiment,2021.1.4,360.05155937770405,
images\S10_M_H_01.png,images\S10_M_H_01_scrambled.png,10,happy,10,male,4,,535,off,1,0.5,0.75,0.5,0.797,3,534,1,1,1,0,0,0,0,4,,,,,,0,127,127,127,,,,,,,,,,,,,,,,,,,,,,,,,,,,,,,,,,,,,,,,,,,,,,,,,,,,,,,,,749.5436205000005,750.0460102000034,750.0460102000034,750.8013552000011,750.8013552000011,751.3039832000031,751.3039832000031,752.1038562000031,752.1038562000031,None,num_6,0.4426047999986622,752.1038562000031,749.5436205000005,happy,0,Happy,752.5590906200014,None,None,752.5590906200014,None,,,,,,,,,,,,,,,,,,,,,,,,,,,,,,,,,,,,,,,,,,,,,,,,,,,,,24,001,0,20,450,450,2022_Oct_18_1420,Experiment,2021.1.4,360.05155937770405,
images\S10_M_S_02.png,images\S10_M_S_02_scrambled.png,10,sad,-20,male,2,,479,on,2,0.5,0.75,0.5,0.799,3,478,1,2,1,2,2,32,128,162,,,,,,0,128,128,128,,,,,,,,,,,,,,,,,,,,,,,,,,,,,,,,,,,,,,,,,,,,,,,,,,,,,,,,,752.6063355000006,753.1089602000029,753.1089602000029,753.8615229000025,753.8615229000025,754.3642577999999,754.3642577999999,755.1695274000012,755.1695274000012,None,num_6,0.544895600000018,755.1695274000012,None,happy,0,Sad,755.7248135600021,None,None,755.7248135600021,None,,,,,,,,,,,,,,,,,,,,,,,,,,,,,,,,,,,,,,,,,,,,,,,,,,,,,24,001,0,20,450,450,2022_Oct_18_1420,Experiment,2021.1.4,360.05155937770405,
images\S9_F_H_01.png,images\S9_F_H_01_scrambled.png,9,happy,10,female,4,,289,off,1,0.5,0.75,0.5,0.875,3,288,1,1,1,0,0,0,0,4,,,,,,0,129,129,129,,,,,,,,,,,,,,,,,,,,,,,,,,,,,,,,,,,,,,,,,,,,,,,,,,,,,,,,,755.7720334000005,756.2747252000008,756.2747252000008,757.0300135000034,757.0300135000034,757.5326047000017,757.5326047000017,758.4101477000004,758.4101477000004,None,num_6,0.43223049999869545,758.4101477000004,None,happy,0,Happy,758.8571791200011,None,None,758.8571791200011,None,,,,,,,,,,,,,,,,,,,,,,,,,,,,,,,,,,,,,,,,,,,,,,,,,,,,,24,001,0,20,450,450,2022_Oct_18_1420,Experiment,2021.1.4,360.05155937770405,
images\blank.jpg,images\blank.jpg,none,none,none,none,0,,645,on,2,0.5,0.75,0.5,0.861,0,644,1,1,1,3,3,48,192,240,,,,,,0,130,130,130,,,,,,,,,,,,,,,,,,,,,,,,,,,,,,,,,,,,,,,,,,,,,,,,,,,,,,,,,758.9407226000003,759.4432627000024,759.4432627000024,760.1957057,760.1957057,760.6955379999999,760.6955379999999,761.5592257000026,761.5592257000026,761.5592257000026,None,,761.5592257000026,None,miss,0,,764.5637877000008,None,space,764.5637877000008,None,101.4858435999995,,,,,,,,,,,,,,,,,,,,,,,,,,,,,,,,,,,,,,,,,,,,,,,,,,,,24,001,0,20,450,450,2022_Oct_18_1420,Experiment,2021.1.4,360.05155937770405,
images\S5_F_H_02.png,images\S5_F_H_02_scrambled.png,5,happy,20,female,5,,566,on,2,0.5,0.75,0.5,0.769,3,565,2,1,1,2,2,32,128,165,,,,,,0,131,131,131,,,,,,,,,,,,,,,,,,,,,,,,,,,,,,,,,,,,,,,,,,,,,,,,,,,,,,,,,866.1660486000001,866.6684400000013,866.6684400000013,867.4237736000032,867.4237736000032,867.9235879000007,867.9235879000007,868.6984408000026,868.6984408000026,None,num_6,0.39982640000016545,868.6984408000026,None,happy,0,Happy,869.1092899200012,None,None,869.1092899200012,None,,,,,,,,,,,,,,,,,,,,,,,,,,,,,,,,,,,,,,,,,,,,,,,,,,,,,24,001,0,20,450,450,2022_Oct_18_1420,Experiment,2021.1.4,360.05155937770405,
images\S4_M_S_01.png,images\S4_M_S_01_scrambled.png,4,sad,-10,male,3,,382,off,1,0.5,0.75,0.5,0.809,3,381,1,1,1,0,0,0,0,3,,,,,,0,132,132,132,,,,,,,,,,,,,,,,,,,,,,,,,,,,,,,,,,,,,,,,,,,,,,,,,,,,,,,,,869.1593295000021,869.659171700001,869.659171700001,870.4117116000016,870.4117116000016,870.9143746000009,870.9143746000009,871.7252173000015,871.7252173000015,None,num_4,0.4055152000000817,871.7252173000015,None,sad,0,Sad,872.1501667800003,None,None,872.1501667800003,None,,,,,,,,,,,,,,,,,,,,,,,,,,,,,,,,,,,,,,,,,,,,,,,,,,,,,24,001,0,20,450,450,2022_Oct_18_1420,Experiment,2021.1.4,360.05155937770405,
images\S3_F_S_03.png,images\S3_F_S_03_scrambled.png,3,sad,-30,female,1,,318,on,2,0.5,0.75,0.5,0.911,3,317,1,1,1,2,2,32,128,161,,,,,,0,133,133,133,,,,,,,,,,,,,,,,,,,,,,,,,,,,,,,,,,,,,,,,,,,,,,,,,,,,,,,,,872.2028358000025,872.7083682000011,872.7083682000011,873.4607762000014,873.4607762000014,873.9634989000006,873.9634989000006,874.8770025000013,874.8770025000013,None,num_4,0.46133349999945494,874.8770025000013,None,sad,0,Sad,875.3490781200016,None,None,875.3490781200016,None,,,,,,,,,,,,,,,,,,,,,,,,,,,,,,,,,,,,,,,,,,,,,,,,,,,,,24,001,0,20,450,450,2022_Oct_18_1420,Experiment,2021.1.4,360.05155937770405,
images\S3_F_S_03.png,images\S3_F_S_03_scrambled.png,3,sad,-30,female,1,,138,off,1,0.5,0.75,0.5,0.855,3,137,1,2,2,0,0,0,0,1,,,,,,0,134,134,134,,,,,,,,,,,,,,,,,,,,,,,,,,,,,,,,,,,,,,,,,,,,,,,,,,,,,,,,,875.3962906000015,875.8989610000026,875.8989610000026,876.6542740000004,876.6542740000004,877.1568957000018,877.1568957000018,878.0149569000023,878.0149569000023,None,num_4,0.3873114000016358,878.0149569000023,None,sad,0,Sad,878.4175717200014,None,None,878.4175717200014,None,,,,,,,,,,,,,,,,,,,,,,,,,,,,,,,,,,,,,,,,,,,,,,,,,,,,,24,001,0,20,450,450,2022_Oct_18_1420,Experiment,2021.1.4,360.05155937770405,
images\S7_F_H_01.png,images\S7_F_H_01_scrambled.png,7,happy,10,female,4,,397,off,1,0.5,0.75,0.5,0.769,3,396,2,1,1,0,0,0,0,4,,,,,,0,135,135,135,,,,,,,,,,,,,,,,,,,,,,,,,,,,,,,,,,,,,,,,,,,,,,,,,,,,,,,,,878.4981129000007,879.0035724000008,879.0035724000008,879.758877100001,879.758877100001,880.261504500002,880.261504500002,881.0335359000019,881.0335359000019,None,num_6,0.3766972999983409,881.0335359000019,None,happy,0,Happy,881.4249773200027,None,None,881.4249773200027,None,,,,,,,,,,,,,,,,,,,,,,,,,,,,,,,,,,,,,,,,,,,,,,,,,,,,,24,001,0,20,450,450,2022_Oct_18_1420,Experiment,2021.1.4,360.05155937770405,
images\S2_M_S_02.png,images\S2_M_S_02_scrambled.png,2,sad,-20,male,2,,251,off,1,0.5,0.75,0.5,0.839,3,250,3,1,1,0,0,0,0,2,,,,,,0,136,136,136,,,,,,,,,,,,,,,,,,,,,,,,,,,,,,,,,,,,,,,,,,,,,,,,,,,,,,,,,881.4721957000002,881.9720442000034,881.9720442000034,882.724618100001,882.724618100001,883.2244296000026,883.2244296000026,884.0658535000002,884.0658535000002,None,num_4,0.3686841999988246,884.0658535000002,None,sad,0,Sad,884.4490490200005,None,None,884.4490490200005,None,,,,,,,,,,,,,,,,,,,,,,,,,,,,,,,,,,,,,,,,,,,,,,,,,,,,,24,001,0,20,450,450,2022_Oct_18_1420,Experiment,2021.1.4,360.05155937770405,
images\S10_M_H_01.png,images\S10_M_H_01_scrambled.png,10,happy,10,male,4,,355,on,2,0.5,0.75,0.5,0.913,3,354,1,1,1,2,2,32,128,164,,,,,,0,137,137,137,,,,,,,,,,,,,,,,,,,,,,,,,,,,,,,,,,,,,,,,,,,,,,,,,,,,,,,,,884.4962673000009,884.9989432000002,884.9989432000002,885.7486492000025,885.7486492000025,886.2540985000014,886.2540985000014,887.1733408,887.1733408,None,num_6,0.4528565999971761,887.1733408,None,happy,0,Happy,887.6369659200027,None,None,887.6369659200027,None,,,,,,,,,,,,,,,,,,,,,,,,,,,,,,,,,,,,,,,,,,,,,,,,,,,,,24,001,0,20,450,450,2022_Oct_18_1420,Experiment,2021.1.4,360.05155937770405,
images\S8_M_H_01.png,images\S8_M_H_01_scrambled.png,8,happy,10,male,4,,463,on,2,0.5,0.75,0.5,0.805,3,462,2,1,2,2,2,32,128,164,,,,,,0,138,138,138,,,,,,,,,,,,,,,,,,,,,,,,,,,,,,,,,,,,,,,,,,,,,,,,,,,,,,,,,887.6869452000028,888.1895665000011,888.1895665000011,888.9449225000026,888.9449225000026,889.4476503000005,889.4476503000005,890.2584672000012,890.2584672000012,None,num_6,0.31212109999978566,890.2584672000012,None,happy,0,Happy,890.5860469200015,None,None,890.5860469200015,None,,,,,,,,,,,,,,,,,,,,,,,,,,,,,,,,,,,,,,,,,,,,,,,,,,,,,24,001,0,20,450,450,2022_Oct_18_1420,Experiment,2021.1.4,360.05155937770405,
images\S5_F_S_01.png,images\S5_F_S_01_scrambled.png,5,sad,-10,female,3,,88,on,2,0.5,0.75,0.5,0.859,3,87,3,1,1,2,2,32,128,163,,,,,,0,139,139,139,,,,,,,,,,,,,,,,,,,,,,,,,,,,,,,,,,,,,,,,,,,,,,,,,,,,,,,,,890.6332632000012,891.1358988000029,891.1358988000029,891.8884983000025,891.8884983000025,892.3938794000023,892.3938794000023,893.2547059000026,893.2547059000026,None,num_6,0.3795191999997769,893.2547059000026,None,happy,0,Sad,893.6434376600009,None,None,893.6434376600009,None,,,,,,,,,,,,,,,,,,,,,,,,,,,,,,,,,,,,,,,,,,,,,,,,,,,,,24,001,0,20,450,450,2022_Oct_18_1420,Experiment,2021.1.4,360.05155937770405,
