image_face,image_scram,avatar,emo,emotion,sex,trigeeg,dac,trial_no,NMES,stimtime,baseline,iti,face,scr_face,resp_time,index,count_NMES,count_avatar,count_emotion,dac1,dac2,dac1_output,dac2_output,trigs_out,nmes,practice_trials.thisRepN,practice_trials.thisTrialN,practice_trials.thisN,practice_trials.thisIndex,real_trials.thisRepN,real_trials.thisTrialN,real_trials.thisN,real_trials.thisIndex,trials.thisRepN,trials.thisTrialN,trials.thisN,trials.thisIndex,position,Welcome.started,Welcome.stopped,Welcome_resp.keys,Welcome_resp.rt,text_2.started,text_2.stopped,form_2.index,form_2.itemText,form_2.type,form_2.response,form_2.rt,key_resp_4.keys,key_resp_4.rt,key_resp_4.started,key_resp_4.stopped,instructions.started,instructions.stopped,end_instr.keys,end_instr.rt,instructions_2.started,instructions_2.stopped,end_instr_2.keys,end_instr_2.rt,end_instr_2.started,end_instr_2.stopped,instruct_keypress.started,instruct_keypress.stopped,end_instruct_keypress.keys,end_instruct_keypress.rt,start_practice.started,start_practice.stopped,start_practice_resp.keys,start_practice_resp.rt,prac_baseline.started,prac_baseline.stopped,prac_iti.started,prac_iti.stopped,prac_stimulus.started,prac_stimulus.stopped,prac_scram_stim.started,prac_scram_stim.stopped,prac_stimulus_resp.started,prac_stimulus_resp.stopped,prac_resp.keys,prac_resp.started,prac_resp.stopped,prac_resp.rt,transition_to_real.started,transition_to_real.stopped,end_transition_to_real.keys,end_transition_to_real.rt,fixation_cross.started,fixation_cross.stopped,tr_iti.started,tr_iti.stopped,stimulus.started,stimulus.stopped,scram_stim.started,scram_stim.stopped,response_txt.started,response_txt.stopped,response.keys,response.rt,response.started,response.stopped,participant_Resp,grouping,corAnswer,break_msg.started,break_msg.stopped,end_break.keys,end_break.started,end_break.stopped,end_break.rt,text.started,text.stopped,key_resp_3.keys,key_resp_3.rt,key_resp_3.started,key_resp_3.stopped,fix_cross_comf.started,fix_cross_comf.stopped,stimulation_comf.started,stimulation_comf.stopped,rate_instr.started,rate_instr.stopped,comfort_rating.response,comfort_rating.rt,comfort_rating.started,comfort_rating.stopped,resp_form.keys,resp_form.rt,resp_form.started,resp_form.stopped,survey_instructions.started,survey_instructions.stopped,key_resp_2.keys,key_resp_2.rt,key_resp_2.started,key_resp_2.stopped,form.index,form.itemText,form.type,form.response,form.rt,key_resp.keys,key_resp.rt,key_resp.started,key_resp.stopped,text_3.started,text_3.stopped,rate_smile.response,rate_smile.rt,rate_smile.started,rate_smile.stopped,key_resp_5.keys,key_resp_5.rt,key_resp_5.started,key_resp_5.stopped,end_msg.started,end_msg.stopped,end_resp.keys,end_resp.rt,end_resp.started,end_resp.stopped,participant,session,gender,age,LEFT,RIGHT,date,expName,psychopyVersion,frameRate,
,,,,,,,,,,,,,,,,,,,,,,,,,,,,,,,,,,,,,,H-S,72.08163809999951,None,num_add,6.500575600000047,,,,,,,,,,,,,,,,,,,,,,,,,,,,,,,,,,,,,,,,,,,,,,,,,,,,,,,,,,,,,,,,,,,,,,,,,,,,,,,,,,,,,,,,,,,,,,,,,,,,,,,,,,,,,,,,,,,,,,,,,,25,001,1,25,450,500,2022_Oct_19_1041,Experiment,2021.1.4,360.22016657010056,
,,,,,,,,,,,,,,,,,,,,,,,,,,,,,,,,,,,,,,,,,,,78.59372199999962,80.65418509999927,1,"This scale consistes of a number of words that describe different feelings and emotion. Read each item and then list the number from the scale below each word. Indicate (by clicking) to what extend you feel this way RIGHT NOW, that is, AT THE PRESENT MOMENT.",description,,,,,,,,,,,,,,,,,,,,,,,,,,,,,,,,,,,,,,,,,,,,,,,,,,,,,,,,,,,,,,,,,,,,,,,,,,,,,,,,,,,,,,,,,,,,,,,,,,,,,,,,,,,,,,,,,,,,,25,001,1,25,450,500,2022_Oct_19_1041,Experiment,2021.1.4,360.22016657010056,
,,,,,,,,,,,,,,,,,,,,,,,,,,,,,,,,,,,,,,,,,,,,,2,Interested,rating,4.0,19.58257230000072,,,,,,,,,,,,,,,,,,,,,,,,,,,,,,,,,,,,,,,,,,,,,,,,,,,,,,,,,,,,,,,,,,,,,,,,,,,,,,,,,,,,,,,,,,,,,,,,,,,,,,,,,,,,,,,,,,,25,001,1,25,450,500,2022_Oct_19_1041,Experiment,2021.1.4,360.22016657010056,
,,,,,,,,,,,,,,,,,,,,,,,,,,,,,,,,,,,,,,,,,,,,,3,Distressed,rating,1.0,25.816679800000202,,,,,,,,,,,,,,,,,,,,,,,,,,,,,,,,,,,,,,,,,,,,,,,,,,,,,,,,,,,,,,,,,,,,,,,,,,,,,,,,,,,,,,,,,,,,,,,,,,,,,,,,,,,,,,,,,,,25,001,1,25,450,500,2022_Oct_19_1041,Experiment,2021.1.4,360.22016657010056,
,,,,,,,,,,,,,,,,,,,,,,,,,,,,,,,,,,,,,,,,,,,,,4,Excited,rating,5.0,27.06979010000032,,,,,,,,,,,,,,,,,,,,,,,,,,,,,,,,,,,,,,,,,,,,,,,,,,,,,,,,,,,,,,,,,,,,,,,,,,,,,,,,,,,,,,,,,,,,,,,,,,,,,,,,,,,,,,,,,,,25,001,1,25,450,500,2022_Oct_19_1041,Experiment,2021.1.4,360.22016657010056,
,,,,,,,,,,,,,,,,,,,,,,,,,,,,,,,,,,,,,,,,,,,,,5,Upset,rating,1.0,34.63965349999944,,,,,,,,,,,,,,,,,,,,,,,,,,,,,,,,,,,,,,,,,,,,,,,,,,,,,,,,,,,,,,,,,,,,,,,,,,,,,,,,,,,,,,,,,,,,,,,,,,,,,,,,,,,,,,,,,,,25,001,1,25,450,500,2022_Oct_19_1041,Experiment,2021.1.4,360.22016657010056,
,,,,,,,,,,,,,,,,,,,,,,,,,,,,,,,,,,,,,,,,,,,,,6,Strong,rating,4.0,37.33262569999988,,,,,,,,,,,,,,,,,,,,,,,,,,,,,,,,,,,,,,,,,,,,,,,,,,,,,,,,,,,,,,,,,,,,,,,,,,,,,,,,,,,,,,,,,,,,,,,,,,,,,,,,,,,,,,,,,,,25,001,1,25,450,500,2022_Oct_19_1041,Experiment,2021.1.4,360.22016657010056,
,,,,,,,,,,,,,,,,,,,,,,,,,,,,,,,,,,,,,,,,,,,,,7,Guilty,rating,1.0,13.309927999999672,,,,,,,,,,,,,,,,,,,,,,,,,,,,,,,,,,,,,,,,,,,,,,,,,,,,,,,,,,,,,,,,,,,,,,,,,,,,,,,,,,,,,,,,,,,,,,,,,,,,,,,,,,,,,,,,,,,25,001,1,25,450,500,2022_Oct_19_1041,Experiment,2021.1.4,360.22016657010056,
,,,,,,,,,,,,,,,,,,,,,,,,,,,,,,,,,,,,,,,,,,,,,8,Scared,rating,1.0,12.978945299999396,,,,,,,,,,,,,,,,,,,,,,,,,,,,,,,,,,,,,,,,,,,,,,,,,,,,,,,,,,,,,,,,,,,,,,,,,,,,,,,,,,,,,,,,,,,,,,,,,,,,,,,,,,,,,,,,,,,25,001,1,25,450,500,2022_Oct_19_1041,Experiment,2021.1.4,360.22016657010056,
,,,,,,,,,,,,,,,,,,,,,,,,,,,,,,,,,,,,,,,,,,,,,9,Hostile,rating,2.0,24.84784149999996,,,,,,,,,,,,,,,,,,,,,,,,,,,,,,,,,,,,,,,,,,,,,,,,,,,,,,,,,,,,,,,,,,,,,,,,,,,,,,,,,,,,,,,,,,,,,,,,,,,,,,,,,,,,,,,,,,,25,001,1,25,450,500,2022_Oct_19_1041,Experiment,2021.1.4,360.22016657010056,
,,,,,,,,,,,,,,,,,,,,,,,,,,,,,,,,,,,,,,,,,,,,,10,Enthusiastic,rating,4.0,20.56043950000003,,,,,,,,,,,,,,,,,,,,,,,,,,,,,,,,,,,,,,,,,,,,,,,,,,,,,,,,,,,,,,,,,,,,,,,,,,,,,,,,,,,,,,,,,,,,,,,,,,,,,,,,,,,,,,,,,,,25,001,1,25,450,500,2022_Oct_19_1041,Experiment,2021.1.4,360.22016657010056,
,,,,,,,,,,,,,,,,,,,,,,,,,,,,,,,,,,,,,,,,,,,,,11,Proud,rating,3.0,11.798166999999921,,,,,,,,,,,,,,,,,,,,,,,,,,,,,,,,,,,,,,,,,,,,,,,,,,,,,,,,,,,,,,,,,,,,,,,,,,,,,,,,,,,,,,,,,,,,,,,,,,,,,,,,,,,,,,,,,,,25,001,1,25,450,500,2022_Oct_19_1041,Experiment,2021.1.4,360.22016657010056,
,,,,,,,,,,,,,,,,,,,,,,,,,,,,,,,,,,,,,,,,,,,,,12,Irritable,rating,2.0,19.583768399999826,,,,,,,,,,,,,,,,,,,,,,,,,,,,,,,,,,,,,,,,,,,,,,,,,,,,,,,,,,,,,,,,,,,,,,,,,,,,,,,,,,,,,,,,,,,,,,,,,,,,,,,,,,,,,,,,,,,25,001,1,25,450,500,2022_Oct_19_1041,Experiment,2021.1.4,360.22016657010056,
,,,,,,,,,,,,,,,,,,,,,,,,,,,,,,,,,,,,,,,,,,,,,13,Alert,rating,1.0,21.924559600000066,,,,,,,,,,,,,,,,,,,,,,,,,,,,,,,,,,,,,,,,,,,,,,,,,,,,,,,,,,,,,,,,,,,,,,,,,,,,,,,,,,,,,,,,,,,,,,,,,,,,,,,,,,,,,,,,,,,25,001,1,25,450,500,2022_Oct_19_1041,Experiment,2021.1.4,360.22016657010056,
,,,,,,,,,,,,,,,,,,,,,,,,,,,,,,,,,,,,,,,,,,,,,14,Ashamed,rating,1.0,11.664973300000383,,,,,,,,,,,,,,,,,,,,,,,,,,,,,,,,,,,,,,,,,,,,,,,,,,,,,,,,,,,,,,,,,,,,,,,,,,,,,,,,,,,,,,,,,,,,,,,,,,,,,,,,,,,,,,,,,,,25,001,1,25,450,500,2022_Oct_19_1041,Experiment,2021.1.4,360.22016657010056,
,,,,,,,,,,,,,,,,,,,,,,,,,,,,,,,,,,,,,,,,,,,,,15,Inspired,rating,3.0,18.37340949999998,,,,,,,,,,,,,,,,,,,,,,,,,,,,,,,,,,,,,,,,,,,,,,,,,,,,,,,,,,,,,,,,,,,,,,,,,,,,,,,,,,,,,,,,,,,,,,,,,,,,,,,,,,,,,,,,,,,25,001,1,25,450,500,2022_Oct_19_1041,Experiment,2021.1.4,360.22016657010056,
,,,,,,,,,,,,,,,,,,,,,,,,,,,,,,,,,,,,,,,,,,,,,16,Nervous,rating,1.0,20.833698800000093,,,,,,,,,,,,,,,,,,,,,,,,,,,,,,,,,,,,,,,,,,,,,,,,,,,,,,,,,,,,,,,,,,,,,,,,,,,,,,,,,,,,,,,,,,,,,,,,,,,,,,,,,,,,,,,,,,,25,001,1,25,450,500,2022_Oct_19_1041,Experiment,2021.1.4,360.22016657010056,
,,,,,,,,,,,,,,,,,,,,,,,,,,,,,,,,,,,,,,,,,,,,,17,Determined,rating,3.0,9.382426399999531,,,,,,,,,,,,,,,,,,,,,,,,,,,,,,,,,,,,,,,,,,,,,,,,,,,,,,,,,,,,,,,,,,,,,,,,,,,,,,,,,,,,,,,,,,,,,,,,,,,,,,,,,,,,,,,,,,,25,001,1,25,450,500,2022_Oct_19_1041,Experiment,2021.1.4,360.22016657010056,
,,,,,,,,,,,,,,,,,,,,,,,,,,,,,,,,,,,,,,,,,,,,,18,Attentive,rating,5.0,14.190699199999472,,,,,,,,,,,,,,,,,,,,,,,,,,,,,,,,,,,,,,,,,,,,,,,,,,,,,,,,,,,,,,,,,,,,,,,,,,,,,,,,,,,,,,,,,,,,,,,,,,,,,,,,,,,,,,,,,,,25,001,1,25,450,500,2022_Oct_19_1041,Experiment,2021.1.4,360.22016657010056,
,,,,,,,,,,,,,,,,,,,,,,,,,,,,,,,,,,,,,,,,,,,,,19,Jittery,rating,3.0,23.112114600000496,,,,,,,,,,,,,,,,,,,,,,,,,,,,,,,,,,,,,,,,,,,,,,,,,,,,,,,,,,,,,,,,,,,,,,,,,,,,,,,,,,,,,,,,,,,,,,,,,,,,,,,,,,,,,,,,,,,25,001,1,25,450,500,2022_Oct_19_1041,Experiment,2021.1.4,360.22016657010056,
,,,,,,,,,,,,,,,,,,,,,,,,,,,,,,,,,,,,,,,,,,,,,20,Active,rating,4.0,5.88441260000036,,,,,,,,,,,,,,,,,,,,,,,,,,,,,,,,,,,,,,,,,,,,,,,,,,,,,,,,,,,,,,,,,,,,,,,,,,,,,,,,,,,,,,,,,,,,,,,,,,,,,,,,,,,,,,,,,,,25,001,1,25,450,500,2022_Oct_19_1041,Experiment,2021.1.4,360.22016657010056,
,,,,,,,,,,,,,,,,,,,,,,,,,,,,,,,,,,,,,,,,,,,,,21,Afraid,rating,1.0,17.08715149999989,,,,,,,,,,,,,,,,,,,,,,,,,,,,,,,,,,,,,,,,,,,,,,,,,,,,,,,,,,,,,,,,,,,,,,,,,,,,,,,,,,,,,,,,,,,,,,,,,,,,,,,,,,,,,,,,,,,25,001,1,25,450,500,2022_Oct_19_1041,Experiment,2021.1.4,360.22016657010056,
,,,,,,,,,,,,,,,,,,,,,,,,,,,,,,,,,,,,,,,,,,,,,22,Press the + button to submit your answers,description,,,,,,,,,,,,,,,,,,,,,,,,,,,,,,,,,,,,,,,,,,,,,,,,,,,,,,,,,,,,,,,,,,,,,,,,,,,,,,,,,,,,,,,,,,,,,,,,,,,,,,,,,,,,,,,,,,,,,25,001,1,25,450,500,2022_Oct_19_1041,Experiment,2021.1.4,360.22016657010056,
,,,,,,,,,,,,,,,,,,,,,,,,,,,,,,,,,,,,,,,,,,,,,,,,,,num_add,103.17287659999965,88.64893389999997,None,,,,,,,,,,,,,,,,,,,,,,,,,,,,,,,,,,,,,,,,,,,,,,,,,,,,,,,,,,,,,,,,,,,,,,,,,,,,,,,,,,,,,,,,,,,,,,,,,,,,,,,,,,,,,,,25,001,1,25,450,500,2022_Oct_19_1041,Experiment,2021.1.4,360.22016657010056,
,,,,,,,,,,,,,,,,,,,,,,,,,,,,,,,,,,,,,,,,,,,,,,,,,,,,,,191.8504656999994,None,num_add,21.39532059999965,,,,,,,,,,,,,,,,,,,,,,,,,,,,,,,,,,,,,,,,,,,,,,,,,,,,,,,,,,,,,,,,,,,,,,,,,,,,,,,,,,,,,,,,,,,,,,,,,,,,,,,,,,,25,001,1,25,450,500,2022_Oct_19_1041,Experiment,2021.1.4,360.22016657010056,
,,,,,,,,,,,,,,,,,,,,,,,,,,,,,,,,,,,,,,,,,,,,,,,,,,,,,,,,,,213.2576522999998,None,num_add,14.140326899999309,213.2576522999998,None,,,,,,,,,,,,,,,,,,,,,,,,,,,,,,,,,,,,,,,,,,,,,,,,,,,,,,,,,,,,,,,,,,,,,,,,,,,,,,,,,,,,,,,,,,,,,,,,,,,,,25,001,1,25,450,500,2022_Oct_19_1041,Experiment,2021.1.4,360.22016657010056,
,,,,,,,,,,,,,,,,,,,,,,,,,,,,,,,,,,,,,,,,,,,,,,,,,,,,,,,,,,,,,,,,227.41716589999942,None,num_add,23.076641699999527,,,,,,,,,,,,,,,,,,,,,,,,,,,,,,,,,,,,,,,,,,,,,,,,,,,,,,,,,,,,,,,,,,,,,,,,,,,,,,,,,,,,,,,,,,,,,,,,,25,001,1,25,450,500,2022_Oct_19_1041,Experiment,2021.1.4,360.22016657010056,
,,,,,,,,,,,,,,,,,,,,,,,,,,,,,,,,,,,,,,,,,,,,,,,,,,,,,,,,,,,,,,,,,,,,250.50169729999925,None,space,65.35181889999967,,,,,,,,,,,,,,,,,,,,,,,,,,,,,,,,,,,,,,,,,,,,,,,,,,,,,,,,,,,,,,,,,,,,,,,,,,,,,,,,,,,,,,,,,,,,,25,001,1,25,450,500,2022_Oct_19_1041,Experiment,2021.1.4,360.22016657010056,
images\S22_M_S_02.png,images\S22_M_S_02_scrambled.png,22,Sad,0.2,M,0,0,practice,off,1,0.5,0.75,0.5,0.751,3,,,,,,,,,,,0,0,0,3,,,,,,,,,,,,,,,,,,,,,,,,,,,,,,,,,,,,,,,,,,,316.0203354999994,316.5201735999999,316.5201735999999,317.27554059999966,317.27554059999966,317.7809265999995,317.7809265999995,318.5334381999992,318.5334381999992,None,None,318.5334381999992,None,,,,,,,,,,,,,,,,,,,,,,,,,,,,,,,,,,,,,,,,,,,,,,,,,,,,,,,,,,,,,,,,,,,,,,,,,,,,,,,,25,001,1,25,450,500,2022_Oct_19_1041,Experiment,2021.1.4,360.22016657010056,
images\S21_F_H_02.png,images\S21_F_H_02_scrambled.png,21,Happy,-0.2,F,0,0,practice,off,1,0.5,0.75,0.5,0.91,3,,,,,,,,,,,0,1,1,1,,,,,,,,,,,,,,,,,,,,,,,,,,,,,,,,,,,,,,,,,,,321.6158274999998,322.1184223,322.1184223,322.8710078999993,322.8710078999993,323.37645879999945,323.37645879999945,324.2928007999999,324.2928007999999,321.6158274999998,num_4,324.2928007999999,321.6158274999998,1.4493608000002496,,,,,,,,,,,,,,,,,,,,,,,,,,,,,,,,,,,,,,,,,,,,,,,,,,,,,,,,,,,,,,,,,,,,,,,,,,,,,,,25,001,1,25,450,500,2022_Oct_19_1041,Experiment,2021.1.4,360.22016657010056,
images\S22_M_S_03.png,images\S22_M_S_03_scrambled.png,22,Sad,0.3,M,0,0,practice,on,2,0.5,0.75,0.5,0.794,3,,,,,,,,,,,0,2,2,7,,,,,,,,,,,,,,,,,,,,,,,,,,,,,,,,,,,,,,,,,,,325.83119739999984,326.33663369999977,326.33663369999977,327.09194749999915,327.09194749999915,327.5945365999996,327.5945365999996,328.39155259999916,328.39155259999916,None,None,328.39155259999916,None,,,,,,,,,,,,,,,,,,,,,,,,,,,,,,,,,,,,,,,,,,,,,,,,,,,,,,,,,,,,,,,,,,,,,,,,,,,,,,,,25,001,1,25,450,500,2022_Oct_19_1041,Experiment,2021.1.4,360.22016657010056,
images\S22_M_S_02.png,images\S22_M_S_02_scrambled.png,22,Sad,0.2,M,0,0,practice,on,2,0.5,0.75,0.5,0.783,3,,,,,,,,,,,0,3,3,6,,,,,,,,,,,,,,,,,,,,,,,,,,,,,,,,,,,,,,,,,,,331.4377869,331.9404350999994,331.9404350999994,332.69017669999994,332.69017669999994,333.1957051999998,333.1957051999998,333.9814910999994,333.9814910999994,331.4377869,num_6,333.9814910999994,331.4377869,0.5609388000002582,,,,,,,,,,,,,,,,,,,,,,,,,,,,,,,,,,,,,,,,,,,,,,,,,,,,,,,,,,,,,,,,,,,,,,,,,,,,,,,25,001,1,25,450,500,2022_Oct_19_1041,Experiment,2021.1.4,360.22016657010056,
images\S22_M_H_02.png,images\S22_M_H_02_scrambled.png,22,Happy,-0.2,M,0,0,practice,off,1,0.5,0.75,0.5,0.883,3,,,,,,,,,,,0,4,4,2,,,,,,,,,,,,,,,,,,,,,,,,,,,,,,,,,,,,,,,,,,,334.6340253999997,335.1338760999997,335.1338760999997,335.8836437,335.8836437,336.38634339999953,336.38634339999953,337.2721331999992,337.2721331999992,None,num_4,337.2721331999992,None,0.44613140000001295,,,,,,,,,,,,,,,,,,,,,,,,,,,,,,,,,,,,,,,,,,,,,,,,,,,,,,,,,,,,,,,,,,,,,,,,,,,,,,,25,001,1,25,450,500,2022_Oct_19_1041,Experiment,2021.1.4,360.22016657010056,
images\S21_F_H_01.png,images\S21_F_H_01_scrambled.png,21,Happy,-0.1,F,0,0,practice,off,1,0.5,0.75,0.5,0.853,3,,,,,,,,,,,0,5,5,0,,,,,,,,,,,,,,,,,,,,,,,,,,,,,,,,,,,,,,,,,,,337.8080437999997,338.31345689999944,338.31345689999944,339.0661091999991,339.0661091999991,339.57142399999975,339.57142399999975,340.4267211999995,340.4267211999995,None,num_4,340.4267211999995,None,1.7878136999997878,,,,,,,,,,,,,,,,,,,,,,,,,,,,,,,,,,,,,,,,,,,,,,,,,,,,,,,,,,,,,,,,,,,,,,,,,,,,,,,25,001,1,25,450,500,2022_Oct_19_1041,Experiment,2021.1.4,360.22016657010056,
images\S22_M_S_03.png,images\S22_M_S_03_scrambled.png,22,Sad,0.3,M,0,0,practice,on,2,0.5,0.75,0.5,0.87,3,,,,,,,,,,,0,6,6,4,,,,,,,,,,,,,,,,,,,,,,,,,,,,,,,,,,,,,,,,,,,342.2788860999999,342.7815462999997,342.7815462999997,343.5312893999999,343.5312893999999,344.0367118999993,344.0367118999993,344.9114445999994,344.9114445999994,None,num_6,344.9114445999994,None,0.7187717999995584,,,,,,,,,,,,,,,,,,,,,,,,,,,,,,,,,,,,,,,,,,,,,,,,,,,,,,,,,,,,,,,,,,,,,,,,,,,,,,,25,001,1,25,450,500,2022_Oct_19_1041,Experiment,2021.1.4,360.22016657010056,
images\S22_M_S_01.png,images\S22_M_S_01_scrambled.png,22,Sad,0.1,M,0,0,practice,on,2,0.5,0.75,0.5,0.867,3,,,,,,,,,,,0,7,7,5,,,,,,,,,,,,,,,,,,,,,,,,,,,,,,,,,,,,,,,,,,,345.74725789999957,346.25267089999943,346.25267089999943,347.00799879999977,347.00799879999977,347.5133909999995,347.5133909999995,348.38254489999963,348.38254489999963,None,num_4,348.38254489999963,None,0.7275890999999319,,,,,,,,,,,,,,,,,,,,,,,,,,,,,,,,,,,,,,,,,,,,,,,,,,,,,,,,,,,,,,,,,,,,,,,,,,,,,,,25,001,1,25,450,500,2022_Oct_19_1041,Experiment,2021.1.4,360.22016657010056,
,,,,,,,,,,,,,,,,,,,,,,,,,,,,,,,,,,,,,,,,,,,,,,,,,,,,,,,,,,,,,,,,,,,,,,,,,,,,,,,,,,,,,,349.1463593999997,None,space,99.53899929999989,,,,,,,,,,,,,,,,,,,,,,,,,,,,,,,,,,,,,,,,,,,,,,,,,,,,,,,,,,,,,,,,,,,,,,,,,,,25,001,1,25,450,500,2022_Oct_19_1041,Experiment,2021.1.4,360.22016657010056,
images\S10_M_H_01.png,images\S10_M_H_01_scrambled.png,10,happy,10,male,4,,355,on,2,0.5,0.75,0.5,0.913,3,354,1,1,1,2,2,32,128,164,,,,,,0,0,0,0,,,,,,,,,,,,,,,,,,,,,,,,,,,,,,,,,,,,,,,,,,,,,,,,,,,,,,,,,449.1875111999998,449.6930545999994,449.6930545999994,450.4482685999992,450.4482685999992,450.9480666999998,450.9480666999998,451.8644771999998,451.8644771999998,None,num_4,0.07717550000052142,451.8644771999998,None,happy,1,Happy,451.95887729999913,None,None,451.95887729999913,None,,,,,,,,,,,,,,,,,,,,,,,,,,,,,,,,,,,,,,,,,,,,,,,,,,,,,25,001,1,25,450,500,2022_Oct_19_1041,Experiment,2021.1.4,360.22016657010056,
images\S6_M_H_03.png,images\S6_M_H_03_scrambled.png,6,happy,30,male,6,,393,off,1,0.5,0.75,0.5,0.796,3,392,1,1,1,0,0,0,0,6,,,,,,0,1,1,1,,,,,,,,,,,,,,,,,,,,,,,,,,,,,,,,,,,,,,,,,,,,,,,,,,,,,,,,,452.0727247999994,452.5781857999991,452.5781857999991,453.33087609999984,453.33087609999984,453.8333408999997,453.8333408999997,454.63315839999996,454.63315839999996,None,num_4,0.740916599999764,454.63315839999996,None,happy,1,Happy,455.39676949999995,None,None,455.39676949999995,None,,,,,,,,,,,,,,,,,,,,,,,,,,,,,,,,,,,,,,,,,,,,,,,,,,,,,25,001,1,25,450,500,2022_Oct_19_1041,Experiment,2021.1.4,360.22016657010056,
images\S6_M_S_02.png,images\S6_M_S_02_scrambled.png,6,sad,-20,male,2,,215,on,2,0.5,0.75,0.5,0.844,3,214,1,2,1,2,2,32,128,162,,,,,,0,2,2,2,,,,,,,,,,,,,,,,,,,,,,,,,,,,,,,,,,,,,,,,,,,,,,,,,,,,,,,,,455.50776809999934,456.0076417,456.0076417,456.75740999999925,456.75740999999925,457.2629150999992,457.2629150999992,458.1097370999996,458.1097370999996,None,None,,458.1097370999996,None,miss,1,Sad,461.10882929999946,None,None,461.10882929999946,None,,,,,,,,,,,,,,,,,,,,,,,,,,,,,,,,,,,,,,,,,,,,,,,,,,,,,25,001,1,25,450,500,2022_Oct_19_1041,Experiment,2021.1.4,360.22016657010056,
images\S9_F_H_03.png,images\S9_F_H_03_scrambled.png,9,happy,30,female,6,,471,on,2,0.5,0.75,0.5,0.923,3,470,2,1,1,2,2,32,128,166,,,,,,0,3,3,3,,,,,,,,,,,,,,,,,,,,,,,,,,,,,,,,,,,,,,,,,,,,,,,,,,,,,,,,,461.1949504999993,461.6975210999999,461.6975210999999,462.44728509999914,462.44728509999914,462.94713349999984,462.94713349999984,463.87465639999937,463.87465639999937,461.1949504999993,num_4,0.5956430999995064,463.87465639999937,461.1949504999993,happy,1,Happy,464.50227149999955,None,None,464.50227149999955,None,,,,,,,,,,,,,,,,,,,,,,,,,,,,,,,,,,,,,,,,,,,,,,,,,,,,,25,001,1,25,450,500,2022_Oct_19_1041,Experiment,2021.1.4,360.22016657010056,
images\S4_M_H_03.png,images\S4_M_H_03_scrambled.png,4,happy,30,male,6,,561,on,2,0.5,0.75,0.5,0.82,3,560,3,1,2,2,2,32,128,166,,,,,,0,4,4,4,,,,,,,,,,,,,,,,,,,,,,,,,,,,,,,,,,,,,,,,,,,,,,,,,,,,,,,,,464.6134341999996,465.11874499999976,465.11874499999976,465.87400979999984,465.87400979999984,466.3738949999997,466.3738949999997,467.193045,467.193045,None,num_4,0.7010056999997687,467.193045,None,happy,1,Happy,467.91241369999966,None,None,467.91241369999966,None,,,,,,,,,,,,,,,,,,,,,,,,,,,,,,,,,,,,,,,,,,,,,,,,,,,,,25,001,1,25,450,500,2022_Oct_19_1041,Experiment,2021.1.4,360.22016657010056,
images\S9_F_S_01.png,images\S9_F_S_01_scrambled.png,9,sad,-10,female,3,,172,off,1,0.5,0.75,0.5,0.777,3,171,1,1,1,0,0,0,0,3,,,,,,0,5,5,5,,,,,,,,,,,,,,,,,,,,,,,,,,,,,,,,,,,,,,,,,,,,,,,,,,,,,,,,,468.0177971999992,468.5232383999992,468.5232383999992,469.27574579999964,469.27574579999964,469.77839609999955,469.77839609999955,470.55871659999957,470.55871659999957,None,num_6,0.7031071999999767,470.55871659999957,None,sad,1,Sad,471.27236020000004,None,None,471.27236020000004,None,,,,,,,,,,,,,,,,,,,,,,,,,,,,,,,,,,,,,,,,,,,,,,,,,,,,,25,001,1,25,450,500,2022_Oct_19_1041,Experiment,2021.1.4,360.22016657010056,
images\blank.jpg,images\blank.jpg,none,none,none,none,0,,640,on,2,0.5,0.75,0.5,0.841,0,639,1,1,1,3,3,48,192,240,,,,,,0,6,6,6,,,,,,,,,,,,,,,,,,,,,,,,,,,,,,,,,,,,,,,,,,,,,,,,,,,,,,,,,471.4060706,471.90831099999923,471.90831099999923,472.66361489999963,472.66361489999963,473.1690149999995,473.1690149999995,474.01039499999933,474.01039499999933,474.01039499999933,None,,474.01039499999933,None,miss,1,,477.01230059999966,None,None,477.01230059999966,None,,,,,,,,,,,,,,,,,,,,,,,,,,,,,,,,,,,,,,,,,,,,,,,,,,,,,25,001,1,25,450,500,2022_Oct_19_1041,Experiment,2021.1.4,360.22016657010056,
images\S10_M_S_02.png,images\S10_M_S_02_scrambled.png,10,sad,-20,male,2,,179,off,1,0.5,0.75,0.5,0.904,3,178,1,1,1,0,0,0,0,2,,,,,,0,7,7,7,,,,,,,,,,,,,,,,,,,,,,,,,,,,,,,,,,,,,,,,,,,,,,,,,,,,,,,,,477.1735329999992,477.6759128999993,477.6759128999993,478.42850569999973,478.42850569999973,478.93390629999976,478.93390629999976,479.8447105999994,479.8447105999994,None,num_6,0.6091646999993827,479.8447105999994,477.1735329999992,sad,1,Sad,480.4724256999996,None,None,480.4724256999996,None,,,,,,,,,,,,,,,,,,,,,,,,,,,,,,,,,,,,,,,,,,,,,,,,,,,,,25,001,1,25,450,500,2022_Oct_19_1041,Experiment,2021.1.4,360.22016657010056,
images\S3_F_S_02.png,images\S3_F_S_02_scrambled.png,3,sad,-20,female,2,,257,off,1,0.5,0.75,0.5,0.793,3,256,2,1,2,0,0,0,0,2,,,,,,0,8,8,8,,,,,,,,,,,,,,,,,,,,,,,,,,,,,,,,,,,,,,,,,,,,,,,,,,,,,,,,,480.5805799,481.08324859999993,481.08324859999993,481.83578659999966,481.83578659999966,482.3384013999994,482.3384013999994,483.1353382999996,483.1353382999996,None,num_6,0.39044710000052874,483.1353382999996,None,sad,1,Sad,483.53800089999953,None,None,483.53800089999953,None,,,,,,,,,,,,,,,,,,,,,,,,,,,,,,,,,,,,,,,,,,,,,,,,,,,,,25,001,1,25,450,500,2022_Oct_19_1041,Experiment,2021.1.4,360.22016657010056,
images\blank.jpg,images\blank.jpg,none,none,none,none,0,,650,on,2,0.5,0.75,0.5,0.941,0,649,1,1,1,3,3,48,192,240,,,,,,0,9,9,9,,,,,,,,,,,,,,,,,,,,,,,,,,,,,,,,,,,,,,,,,,,,,,,,,,,,,,,,,483.6381389999997,484.14335969999956,484.14335969999956,484.89872689999993,484.89872689999993,485.4013451999999,485.4013451999999,486.3482746999998,486.3482746999998,486.3482746999998,None,,486.3482746999998,None,miss,1,,489.3473310999999,None,None,489.3473310999999,None,,,,,,,,,,,,,,,,,,,,,,,,,,,,,,,,,,,,,,,,,,,,,,,,,,,,,25,001,1,25,450,500,2022_Oct_19_1041,Experiment,2021.1.4,360.22016657010056,
images\S9_F_H_03.png,images\S9_F_H_03_scrambled.png,9,happy,30,female,6,,291,off,1,0.5,0.75,0.5,0.901,3,290,1,1,1,0,0,0,0,6,,,,,,0,10,10,10,,,,,,,,,,,,,,,,,,,,,,,,,,,,,,,,,,,,,,,,,,,,,,,,,,,,,,,,,489.4613712999999,489.96378709999954,489.96378709999954,490.7191321999999,490.7191321999999,491.22453289999976,491.22453289999976,492.1354185,492.1354185,None,num_4,0.46244539999952394,492.1354185,489.4613712999999,happy,1,Happy,492.61297099999996,None,None,492.61297099999996,None,,,,,,,,,,,,,,,,,,,,,,,,,,,,,,,,,,,,,,,,,,,,,,,,,,,,,25,001,1,25,450,500,2022_Oct_19_1041,Experiment,2021.1.4,360.22016657010056,
images\S3_F_H_01.png,images\S3_F_H_01_scrambled.png,3,happy,10,female,4,,433,on,2,0.5,0.75,0.5,0.865,3,432,1,1,1,2,2,32,128,164,,,,,,0,11,11,11,,,,,,,,,,,,,,,,,,,,,,,,,,,,,,,,,,,,,,,,,,,,,,,,,,,,,,,,,492.6990601999996,493.2044785999997,493.2044785999997,493.9571251999996,493.9571251999996,494.45964299999923,494.45964299999923,495.3288348999995,495.3288348999995,None,num_6,0.31745839999985037,495.3288348999995,None,sad,1,Happy,495.65934939999926,None,None,495.65934939999926,None,,,,,,,,,,,,,,,,,,,,,,,,,,,,,,,,,,,,,,,,,,,,,,,,,,,,,25,001,1,25,450,500,2022_Oct_19_1041,Experiment,2021.1.4,360.22016657010056,
images\S6_M_H_01.png,images\S6_M_H_01_scrambled.png,6,happy,10,male,4,,91,on,2,0.5,0.75,0.5,0.912,3,90,2,1,2,2,2,32,128,164,,,,,,0,12,12,12,,,,,,,,,,,,,,,,,,,,,,,,,,,,,,,,,,,,,,,,,,,,,,,,,,,,,,,,,495.77310729999954,496.2785383999999,496.2785383999999,497.03385999999955,497.03385999999955,497.5364639999998,497.5364639999998,498.45284549999997,498.45284549999997,None,num_6,0.5208731999991869,498.45284549999997,None,sad,1,Happy,498.9804692,None,None,498.9804692,None,,,,,,,,,,,,,,,,,,,,,,,,,,,,,,,,,,,,,,,,,,,,,,,,,,,,,25,001,1,25,450,500,2022_Oct_19_1041,Experiment,2021.1.4,360.22016657010056,
images\S5_F_S_02.png,images\S5_F_S_02_scrambled.png,5,sad,-20,female,2,,269,off,1,0.5,0.75,0.5,0.768,3,268,1,1,1,0,0,0,0,2,,,,,,0,13,13,13,,,,,,,,,,,,,,,,,,,,,,,,,,,,,,,,,,,,,,,,,,,,,,,,,,,,,,,,,499.06098119999933,499.5636448999994,499.5636448999994,500.3133702999994,500.3133702999994,500.81602829999974,500.81602829999974,501.58806839999943,501.58806839999943,None,num_4,0.9858780000004117,501.58806839999943,None,happy,1,Sad,502.58211269999924,None,None,502.58211269999924,None,,,,,,,,,,,,,,,,,,,,,,,,,,,,,,,,,,,,,,,,,,,,,,,,,,,,,25,001,1,25,450,500,2022_Oct_19_1041,Experiment,2021.1.4,360.22016657010056,
images\S10_M_S_02.png,images\S10_M_S_02_scrambled.png,10,sad,-20,male,2,,599,on,2,0.5,0.75,0.5,0.822,3,598,1,1,2,2,2,32,128,162,,,,,,0,14,14,14,,,,,,,,,,,,,,,,,,,,,,,,,,,,,,,,,,,,,,,,,,,,,,,,,,,,,,,,,502.6320965999994,503.1319369999992,503.1319369999992,503.8844933999999,503.8844933999999,504.3898997999995,504.3898997999995,505.2146456999999,505.2146456999999,None,num_6,0.3671683000002304,505.2146456999999,None,sad,1,Sad,505.5950688999996,None,None,505.5950688999996,None,,,,,,,,,,,,,,,,,,,,,,,,,,,,,,,,,,,,,,,,,,,,,,,,,,,,,25,001,1,25,450,500,2022_Oct_19_1041,Experiment,2021.1.4,360.22016657010056,
images\S8_M_H_02.png,images\S8_M_H_02_scrambled.png,8,happy,20,male,5,,464,on,2,0.5,0.75,0.5,0.805,3,463,2,1,1,2,2,32,128,165,,,,,,0,15,15,15,,,,,,,,,,,,,,,,,,,,,,,,,,,,,,,,,,,,,,,,,,,,,,,,,,,,,,,,,505.67837679999957,506.1782235999999,506.1782235999999,506.9335796999994,506.9335796999994,507.4361928999997,507.4361928999997,508.2442395999997,508.2442395999997,None,num_4,0.5455430000001797,508.2442395999997,None,happy,1,Happy,508.8135198999997,None,None,508.8135198999997,None,,,,,,,,,,,,,,,,,,,,,,,,,,,,,,,,,,,,,,,,,,,,,,,,,,,,,25,001,1,25,450,500,2022_Oct_19_1041,Experiment,2021.1.4,360.22016657010056,
images\S6_M_S_01.png,images\S6_M_S_01_scrambled.png,6,sad,-10,male,3,,514,off,1,0.5,0.75,0.5,0.803,3,513,1,1,1,0,0,0,0,3,,,,,,0,16,16,16,,,,,,,,,,,,,,,,,,,,,,,,,,,,,,,,,,,,,,,,,,,,,,,,,,,,,,,,,508.92459019999933,509.4300108999996,509.4300108999996,510.18267019999985,510.18267019999985,510.6880363999999,510.6880363999999,511.4932882999992,511.4932882999992,None,num_6,2.7123606000004656,511.4932882999992,None,sad,1,Sad,514.2174210999996,None,None,514.2174210999996,None,,,,,,,,,,,,,,,,,,,,,,,,,,,,,,,,,,,,,,,,,,,,,,,,,,,,,25,001,1,25,450,500,2022_Oct_19_1041,Experiment,2021.1.4,360.22016657010056,
images\S2_M_H_01.png,images\S2_M_H_01_scrambled.png,2,happy,10,male,4,,127,off,1,0.5,0.75,0.5,0.751,3,126,2,1,1,0,0,0,0,4,,,,,,0,17,17,17,,,,,,,,,,,,,,,,,,,,,,,,,,,,,,,,,,,,,,,,,,,,,,,,,,,,,,,,,514.2979339999993,514.8005713999992,514.8005713999992,515.5531020999997,515.5531020999997,516.0529641999992,516.0529641999992,516.8083127,516.8083127,None,num_6,1.2214552000004915,516.8083127,None,sad,1,Happy,518.0384775999995,None,None,518.0384775999995,None,,,,,,,,,,,,,,,,,,,,,,,,,,,,,,,,,,,,,,,,,,,,,,,,,,,,,25,001,1,25,450,500,2022_Oct_19_1041,Experiment,2021.1.4,360.22016657010056,
images\S5_F_S_02.png,images\S5_F_S_02_scrambled.png,5,sad,-20,female,2,,569,on,2,0.5,0.75,0.5,0.903,3,568,1,1,1,2,2,32,128,162,,,,,,0,18,18,18,,,,,,,,,,,,,,,,,,,,,,,,,,,,,,,,,,,,,,,,,,,,,,,,,,,,,,,,,518.1023135999994,518.6021536999997,518.6021536999997,519.3576209999992,519.3576209999992,519.8601182999992,519.8601182999992,520.7681991,520.7681991,None,num_4,0.44547439999951166,520.7681991,None,happy,1,Sad,521.2236087999993,None,None,521.2236087999993,None,,,,,,,,,,,,,,,,,,,,,,,,,,,,,,,,,,,,,,,,,,,,,,,,,,,,,25,001,1,25,450,500,2022_Oct_19_1041,Experiment,2021.1.4,360.22016657010056,
images\S5_F_S_03.png,images\S5_F_S_03_scrambled.png,5,sad,-30,female,1,,270,off,1,0.5,0.75,0.5,0.796,3,269,1,2,1,0,0,0,0,1,,,,,,0,19,19,19,,,,,,,,,,,,,,,,,,,,,,,,,,,,,,,,,,,,,,,,,,,,,,,,,,,,,,,,,521.3346492999999,521.8373539999993,521.8373539999993,522.5870637999997,522.5870637999997,523.0925488999992,523.0925488999992,523.8923270999994,523.8923270999994,None,num_6,0.8815780000004452,523.8923270999994,None,sad,1,Sad,524.7863604999997,None,None,524.7863604999997,None,,,,,,,,,,,,,,,,,,,,,,,,,,,,,,,,,,,,,,,,,,,,,,,,,,,,,25,001,1,25,450,500,2022_Oct_19_1041,Experiment,2021.1.4,360.22016657010056,
images\S2_M_S_03.png,images\S2_M_S_03_scrambled.png,2,sad,-30,male,1,,432,on,2,0.5,0.75,0.5,0.828,3,431,1,1,2,2,2,32,128,161,,,,,,0,20,20,20,,,,,,,,,,,,,,,,,,,,,,,,,,,,,,,,,,,,,,,,,,,,,,,,,,,,,,,,,524.8779691999998,525.3834402999992,525.3834402999992,526.1331719,526.1331719,526.6386026999999,526.6386026999999,527.4660795999998,527.4660795999998,None,num_6,0.6998014999999214,527.4660795999998,None,sad,1,Sad,528.1937214,None,None,528.1937214,None,,,,,,,,,,,,,,,,,,,,,,,,,,,,,,,,,,,,,,,,,,,,,,,,,,,,,25,001,1,25,450,500,2022_Oct_19_1041,Experiment,2021.1.4,360.22016657010056,
images\S8_M_H_03.png,images\S8_M_H_03_scrambled.png,8,happy,30,male,6,,285,off,1,0.5,0.75,0.5,0.905,3,284,1,1,1,0,0,0,0,6,,,,,,0,21,21,21,,,,,,,,,,,,,,,,,,,,,,,,,,,,,,,,,,,,,,,,,,,,,,,,,,,,,,,,,528.2797345999998,528.7851379999993,528.7851379999993,529.5348973999999,529.5348973999999,530.0375287999996,530.0375287999996,530.9483979999995,530.9483979999995,None,num_4,0.32131549999940034,530.9483979999995,None,happy,1,Happy,531.2815833999997,None,None,531.2815833999997,None,,,,,,,,,,,,,,,,,,,,,,,,,,,,,,,,,,,,,,,,,,,,,,,,,,,,,25,001,1,25,450,500,2022_Oct_19_1041,Experiment,2021.1.4,360.22016657010056,
images\S10_M_H_01.png,images\S10_M_H_01_scrambled.png,10,happy,10,male,4,,595,on,2,0.5,0.75,0.5,0.92,3,594,1,1,1,2,2,32,128,164,,,,,,0,22,22,22,,,,,,,,,,,,,,,,,,,,,,,,,,,,,,,,,,,,,,,,,,,,,,,,,,,,,,,,,531.3315613999994,531.8341990999998,531.8341990999998,532.5895309999996,532.5895309999996,533.0922535,533.0922535,534.0140875999996,534.0140875999996,None,num_4,0.3278683999997156,534.0140875999996,None,happy,1,Happy,534.3667977999992,None,None,534.3667977999992,None,,,,,,,,,,,,,,,,,,,,,,,,,,,,,,,,,,,,,,,,,,,,,,,,,,,,,25,001,1,25,450,500,2022_Oct_19_1041,Experiment,2021.1.4,360.22016657010056,
images\blank.jpg,images\blank.jpg,none,none,none,none,0,,634,on,2,0.5,0.75,0.5,0.782,0,633,2,1,1,3,3,48,192,240,,,,,,0,23,23,23,,,,,,,,,,,,,,,,,,,,,,,,,,,,,,,,,,,,,,,,,,,,,,,,,,,,,,,,,534.4696414,534.9748915999999,534.9748915999999,535.7301995999997,535.7301995999997,536.2328917999994,536.2328917999994,537.0159613999995,537.0159613999995,537.0159613999995,None,,537.0159613999995,None,miss,1,,540.0177779999997,None,None,540.0177779999997,None,,,,,,,,,,,,,,,,,,,,,,,,,,,,,,,,,,,,,,,,,,,,,,,,,,,,,25,001,1,25,450,500,2022_Oct_19_1041,Experiment,2021.1.4,360.22016657010056,
images\S6_M_S_02.png,images\S6_M_S_02_scrambled.png,6,sad,-20,male,2,,155,off,1,0.5,0.75,0.5,0.773,3,154,1,1,1,0,0,0,0,2,,,,,,0,24,24,24,,,,,,,,,,,,,,,,,,,,,,,,,,,,,,,,,,,,,,,,,,,,,,,,,,,,,,,,,540.1291112999997,540.6342617,540.6342617,541.3895552999993,541.3895552999993,541.8923092999994,541.8923092999994,542.6726272999995,542.6726272999995,None,num_6,0.5572169999995822,542.6726272999995,540.1291112999997,sad,1,Sad,543.2474352999994,None,None,543.2474352999994,None,,,,,,,,,,,,,,,,,,,,,,,,,,,,,,,,,,,,,,,,,,,,,,,,,,,,,25,001,1,25,450,500,2022_Oct_19_1041,Experiment,2021.1.4,360.22016657010056,
images\S2_M_H_03.png,images\S2_M_H_03_scrambled.png,2,happy,30,male,6,,369,off,1,0.5,0.75,0.5,0.85,3,368,2,1,1,0,0,0,0,6,,,,,,0,25,25,25,,,,,,,,,,,,,,,,,,,,,,,,,,,,,,,,,,,,,,,,,,,,,,,,,,,,,,,,,543.3611860999999,543.8610173999996,543.8610173999996,544.6135990999992,544.6135990999992,545.1189853999995,545.1189853999995,545.9686988999993,545.9686988999993,None,num_6,1.2609030000003258,545.9686988999993,None,sad,1,Happy,547.2405524,None,None,547.2405524,None,,,,,,,,,,,,,,,,,,,,,,,,,,,,,,,,,,,,,,,,,,,,,,,,,,,,,25,001,1,25,450,500,2022_Oct_19_1041,Experiment,2021.1.4,360.22016657010056,
images\S9_F_S_02.png,images\S9_F_S_02_scrambled.png,9,sad,-20,female,2,,293,off,1,0.5,0.75,0.5,0.855,3,292,3,1,1,0,0,0,0,2,,,,,,0,26,26,26,,,,,,,,,,,,,,,,,,,,,,,,,,,,,,,,,,,,,,,,,,,,,,,,,,,,,,,,,547.3432804999993,547.8487201999997,547.8487201999997,548.6012151999994,548.6012151999994,549.1038743999998,549.1038743999998,549.9620182999997,549.9620182999997,None,num_6,0.5798185999992711,549.9620182999997,None,sad,1,Sad,550.5674051999993,None,None,550.5674051999993,None,,,,,,,,,,,,,,,,,,,,,,,,,,,,,,,,,,,,,,,,,,,,,,,,,,,,,25,001,1,25,450,500,2022_Oct_19_1041,Experiment,2021.1.4,360.22016657010056,
images\S2_M_S_03.png,images\S2_M_S_03_scrambled.png,2,sad,-30,male,1,,372,off,1,0.5,0.75,0.5,0.786,3,371,4,1,1,0,0,0,0,1,,,,,,0,27,27,27,,,,,,,,,,,,,,,,,,,,,,,,,,,,,,,,,,,,,,,,,,,,,,,,,,,,,,,,,550.6172641999992,551.1199027999992,551.1199027999992,551.8724553999991,551.8724553999991,552.3779161999992,552.3779161999992,553.1692773999994,553.1692773999994,None,num_6,0.39651210000010906,553.1692773999994,None,sad,1,Sad,553.5802353999992,None,None,553.5802353999992,None,,,,,,,,,,,,,,,,,,,,,,,,,,,,,,,,,,,,,,,,,,,,,,,,,,,,,25,001,1,25,450,500,2022_Oct_19_1041,Experiment,2021.1.4,360.22016657010056,
images\S1_F_H_03.png,images\S1_F_H_03_scrambled.png,1,happy,30,female,6,,63,on,2,0.5,0.75,0.5,0.78,3,62,1,1,1,2,2,32,128,166,,,,,,0,28,28,28,,,,,,,,,,,,,,,,,,,,,,,,,,,,,,,,,,,,,,,,,,,,,,,,,,,,,,,,,553.663544,554.1689796999999,554.1689796999999,554.9187132999996,554.9187132999996,555.4213713999998,555.4213713999998,556.2044394999994,556.2044394999994,None,num_4,0.36947309999959543,556.2044394999994,None,happy,1,Happy,556.5960604,None,None,556.5960604,None,,,,,,,,,,,,,,,,,,,,,,,,,,,,,,,,,,,,,,,,,,,,,,,,,,,,,25,001,1,25,450,500,2022_Oct_19_1041,Experiment,2021.1.4,360.22016657010056,
images\S3_F_S_03.png,images\S3_F_S_03_scrambled.png,3,sad,-30,female,1,,258,off,1,0.5,0.75,0.5,0.793,3,257,1,1,1,0,0,0,0,1,,,,,,0,29,29,29,,,,,,,,,,,,,,,,,,,,,,,,,,,,,,,,,,,,,,,,,,,,,,,,,,,,,,,,,556.7098229999992,557.2125801999991,557.2125801999991,557.9678515999994,557.9678515999994,558.4732181999998,558.4732181999998,559.2729832999994,559.2729832999994,None,num_6,0.860689099999945,559.2729832999994,None,sad,1,Sad,560.1476796999991,None,None,560.1476796999991,None,,,,,,,,,,,,,,,,,,,,,,,,,,,,,,,,,,,,,,,,,,,,,,,,,,,,,25,001,1,25,450,500,2022_Oct_19_1041,Experiment,2021.1.4,360.22016657010056,
images\blank.jpg,images\blank.jpg,none,none,none,none,0,,622,on,2,0.5,0.75,0.5,0.763,0,621,1,1,1,3,3,48,192,240,,,,,,0,30,30,30,,,,,,,,,,,,,,,,,,,,,,,,,,,,,,,,,,,,,,,,,,,,,,,,,,,,,,,,,560.2284477999992,560.7308046999997,560.7308046999997,561.4805778999998,561.4805778999998,561.9832453999998,561.9832453999998,562.7525181999999,562.7525181999999,562.7525181999999,None,,562.7525181999999,None,miss,1,,565.7543322999993,None,None,565.7543322999993,None,,,,,,,,,,,,,,,,,,,,,,,,,,,,,,,,,,,,,,,,,,,,,,,,,,,,,25,001,1,25,450,500,2022_Oct_19_1041,Experiment,2021.1.4,360.22016657010056,
images\S6_M_S_03.png,images\S6_M_S_03_scrambled.png,6,sad,-30,male,1,,576,on,2,0.5,0.75,0.5,0.783,3,575,2,1,1,2,2,32,128,161,,,,,,0,31,31,31,,,,,,,,,,,,,,,,,,,,,,,,,,,,,,,,,,,,,,,,,,,,,,,,,,,,,,,,,565.9016127999994,566.4040444999991,566.4040444999991,567.1538101999995,567.1538101999995,567.6564443999996,567.6564443999996,568.4451213999992,568.4451213999992,None,num_6,0.3684683000001314,568.4451213999992,565.9016127999994,sad,1,Sad,568.8283056999993,None,None,568.8283056999993,None,,,,,,,,,,,,,,,,,,,,,,,,,,,,,,,,,,,,,,,,,,,,,,,,,,,,,25,001,1,25,450,500,2022_Oct_19_1041,Experiment,2021.1.4,360.22016657010056,
images\blank.jpg,images\blank.jpg,none,none,none,none,0,,615,on,2,0.5,0.75,0.5,0.9,0,614,3,1,1,3,3,48,192,240,,,,,,0,32,32,32,,,,,,,,,,,,,,,,,,,,,,,,,,,,,,,,,,,,,,,,,,,,,,,,,,,,,,,,,568.9146570999992,569.4170001999992,569.4170001999992,570.1667819999993,570.1667819999993,570.6693918999999,570.6693918999999,571.5747042999992,571.5747042999992,571.5747042999992,None,,571.5747042999992,None,miss,1,,574.5766032999993,None,None,574.5766032999993,None,,,,,,,,,,,,,,,,,,,,,,,,,,,,,,,,,,,,,,,,,,,,,,,,,,,,,25,001,1,25,450,500,2022_Oct_19_1041,Experiment,2021.1.4,360.22016657010056,
images\S6_M_S_03.png,images\S6_M_S_03_scrambled.png,6,sad,-30,male,1,,336,on,2,0.5,0.75,0.5,0.866,3,335,4,1,1,2,2,32,128,161,,,,,,0,33,33,33,,,,,,,,,,,,,,,,,,,,,,,,,,,,,,,,,,,,,,,,,,,,,,,,,,,,,,,,,574.6989277999992,575.2013267999992,575.2013267999992,575.9566702999991,575.9566702999991,576.4592637999995,576.4592637999995,577.3312713999994,577.3312713999994,None,num_6,0.31443550000039977,577.3312713999994,574.6989277999992,sad,1,Sad,577.6589045999993,None,None,577.6589045999993,None,,,,,,,,,,,,,,,,,,,,,,,,,,,,,,,,,,,,,,,,,,,,,,,,,,,,,25,001,1,25,450,500,2022_Oct_19_1041,Experiment,2021.1.4,360.22016657010056,
images\S10_M_H_03.png,images\S10_M_H_03_scrambled.png,10,happy,30,male,6,,117,on,2,0.5,0.75,0.5,0.792,3,116,5,1,1,2,2,32,128,166,,,,,,0,34,34,34,,,,,,,,,,,,,,,,,,,,,,,,,,,,,,,,,,,,,,,,,,,,,,,,,,,,,,,,,577.7422162999992,578.2420495999995,578.2420495999995,578.9973997999996,578.9973997999996,579.5027935999997,579.5027935999997,580.2997728999999,580.2997728999999,None,None,,580.2997728999999,None,miss,1,Happy,583.3016182999992,None,None,583.3016182999992,None,,,,,,,,,,,,,,,,,,,,,,,,,,,,,,,,,,,,,,,,,,,,,,,,,,,,,25,001,1,25,450,500,2022_Oct_19_1041,Experiment,2021.1.4,360.22016657010056,
images\S9_F_S_02.png,images\S9_F_S_02_scrambled.png,9,sad,-20,female,2,,113,on,2,0.5,0.75,0.5,0.805,3,112,6,1,1,2,2,32,128,162,,,,,,0,35,35,35,,,,,,,,,,,,,,,,,,,,,,,,,,,,,,,,,,,,,,,,,,,,,,,,,,,,,,,,,583.3515946999996,583.8543368999999,583.8543368999999,584.6067658999991,584.6067658999991,585.1121615999991,585.1121615999991,585.9202300999996,585.9202300999996,583.3515946999996,num_6,0.3973976000006587,585.9202300999996,583.3515946999996,sad,1,Sad,586.3423335999995,None,None,586.3423335999995,None,,,,,,,,,,,,,,,,,,,,,,,,,,,,,,,,,,,,,,,,,,,,,,,,,,,,,25,001,1,25,450,500,2022_Oct_19_1041,Experiment,2021.1.4,360.22016657010056,
images\S10_M_H_01.png,images\S10_M_H_01_scrambled.png,10,happy,10,male,4,,55,off,1,0.5,0.75,0.5,0.833,3,54,1,1,1,0,0,0,0,4,,,,,,0,36,36,36,,,,,,,,,,,,,,,,,,,,,,,,,,,,,,,,,,,,,,,,,,,,,,,,,,,,,,,,,586.3978733999993,586.9005284999994,586.9005284999994,587.6502649999993,587.6502649999993,588.1501150999993,588.1501150999993,588.9831761999994,588.9831761999994,None,num_4,0.7268712999994023,588.9831761999994,None,happy,1,Happy,589.7274887,None,None,589.7274887,None,,,,,,,,,,,,,,,,,,,,,,,,,,,,,,,,,,,,,,,,,,,,,,,,,,,,,25,001,1,25,450,500,2022_Oct_19_1041,Experiment,2021.1.4,360.22016657010056,
images\S7_F_S_02.png,images\S7_F_S_02_scrambled.png,7,sad,-20,female,2,,221,on,2,0.5,0.75,0.5,0.787,3,220,1,1,1,2,2,32,128,162,,,,,,0,37,37,37,,,,,,,,,,,,,,,,,,,,,,,,,,,,,,,,,,,,,,,,,,,,,,,,,,,,,,,,,589.8384730999996,590.3411117999995,590.3411117999995,591.0964311999996,591.0964311999996,591.5991566999992,591.5991566999992,592.3905011999996,592.3905011999996,None,num_6,0.9830584999999701,592.3905011999996,None,sad,1,Sad,593.3846080999996,None,None,593.3846080999996,None,,,,,,,,,,,,,,,,,,,,,,,,,,,,,,,,,,,,,,,,,,,,,,,,,,,,,25,001,1,25,450,500,2022_Oct_19_1041,Experiment,2021.1.4,360.22016657010056,
images\S8_M_H_01.png,images\S8_M_H_01_scrambled.png,8,happy,10,male,4,,403,off,1,0.5,0.75,0.5,0.903,3,402,1,1,1,0,0,0,0,4,,,,,,0,38,38,38,,,,,,,,,,,,,,,,,,,,,,,,,,,,,,,,,,,,,,,,,,,,,,,,,,,,,,,,,593.4679053,593.9677483999994,593.9677483999994,594.7204225999994,594.7204225999994,595.2257561999995,595.2257561999995,596.1310264999993,596.1310264999993,None,num_6,2.49074279999968,596.1310264999993,None,sad,1,Happy,598.6301950999998,None,None,598.6301950999998,None,,,,,,,,,,,,,,,,,,,,,,,,,,,,,,,,,,,,,,,,,,,,,,,,,,,,,25,001,1,25,450,500,2022_Oct_19_1041,Experiment,2021.1.4,360.22016657010056,
images\S8_M_S_03.png,images\S8_M_S_03_scrambled.png,8,sad,-30,male,1,,408,off,1,0.5,0.75,0.5,0.89,3,407,2,2,1,0,0,0,0,1,,,,,,0,39,39,39,,,,,,,,,,,,,,,,,,,,,,,,,,,,,,,,,,,,,,,,,,,,,,,,,,,,,,,,,598.7135062999996,599.2161911999992,599.2161911999992,599.9714846999996,599.9714846999996,600.4713305999994,600.4713305999994,601.3656013999998,601.3656013999998,None,num_6,2.0399585999994088,601.3656013999998,None,sad,1,Sad,603.4203863999995,None,None,603.4203863999995,None,,,,,,,,,,,,,,,,,,,,,,,,,,,,,,,,,,,,,,,,,,,,,,,,,,,,,25,001,1,25,450,500,2022_Oct_19_1041,Experiment,2021.1.4,360.22016657010056,
images\S4_M_H_03.png,images\S4_M_H_03_scrambled.png,4,happy,30,male,6,,201,on,2,0.5,0.75,0.5,0.903,3,200,1,1,1,2,2,32,128,166,,,,,,0,40,40,40,,,,,,,,,,,,,,,,,,,,,,,,,,,,,,,,,,,,,,,,,,,,,,,,,,,,,,,,,603.4675936999993,603.9702070999992,603.9702070999992,604.7256130999995,604.7256130999995,605.2309858999997,605.2309858999997,606.1362665999995,606.1362665999995,None,num_4,0.39763659999971424,606.1362665999995,None,happy,1,Happy,606.5471984999998,None,None,606.5471984999998,None,,,,,,,,,,,,,,,,,,,,,,,,,,,,,,,,,,,,,,,,,,,,,,,,,,,,,25,001,1,25,450,500,2022_Oct_19_1041,Experiment,2021.1.4,360.22016657010056,
images\S9_F_H_02.png,images\S9_F_H_02_scrambled.png,9,happy,20,female,5,,350,on,2,0.5,0.75,0.5,0.948,3,349,2,1,1,2,2,32,128,165,,,,,,0,41,41,41,,,,,,,,,,,,,,,,,,,,,,,,,,,,,,,,,,,,,,,,,,,,,,,,,,,,,,,,,606.6277396999994,607.1304833999993,607.1304833999993,607.8857607999998,607.8857607999998,608.3911175999992,608.3911175999992,609.3408625999991,609.3408625999991,None,num_4,0.4169053999994503,609.3408625999991,None,happy,1,Happy,609.7878731999999,None,None,609.7878731999999,None,,,,,,,,,,,,,,,,,,,,,,,,,,,,,,,,,,,,,,,,,,,,,,,,,,,,,25,001,1,25,450,500,2022_Oct_19_1041,Experiment,2021.1.4,360.22016657010056,
images\S5_F_H_02.png,images\S5_F_H_02_scrambled.png,5,happy,20,female,5,,26,off,1,0.5,0.75,0.5,0.765,3,25,1,1,2,0,0,0,0,5,,,,,,0,42,42,42,,,,,,,,,,,,,,,,,,,,,,,,,,,,,,,,,,,,,,,,,,,,,,,,,,,,,,,,,609.8989431,610.4016001999998,610.4016001999998,611.1541367,611.1541367,611.6567591999992,611.6567591999992,612.4259742999993,612.4259742999993,None,num_4,1.0355571000000054,612.4259742999993,None,happy,1,Happy,613.4756101999996,None,None,613.4756101999996,None,,,,,,,,,,,,,,,,,,,,,,,,,,,,,,,,,,,,,,,,,,,,,,,,,,,,,25,001,1,25,450,500,2022_Oct_19_1041,Experiment,2021.1.4,360.22016657010056,
images\S7_F_H_02.png,images\S7_F_H_02_scrambled.png,7,happy,20,female,5,,518,off,1,0.5,0.75,0.5,0.906,3,517,2,1,3,0,0,0,0,5,,,,,,0,43,43,43,,,,,,,,,,,,,,,,,,,,,,,,,,,,,,,,,,,,,,,,,,,,,,,,,,,,,,,,,613.5589284999996,614.0644556999996,614.0644556999996,614.8141207999997,614.8141207999997,615.3167430999993,615.3167430999993,616.2248886999996,616.2248886999996,None,num_4,1.2206389000002673,616.2248886999996,None,happy,1,Happy,617.4632652999993,None,None,617.4632652999993,None,,,,,,,,,,,,,,,,,,,,,,,,,,,,,,,,,,,,,,,,,,,,,,,,,,,,,25,001,1,25,450,500,2022_Oct_19_1041,Experiment,2021.1.4,360.22016657010056,
images\S2_M_S_02.png,images\S2_M_S_02_scrambled.png,2,sad,-20,male,2,,71,on,2,0.5,0.75,0.5,0.757,3,70,1,1,1,2,2,32,128,162,,,,,,0,44,44,44,,,,,,,,,,,,,,,,,,,,,,,,,,,,,,,,,,,,,,,,,,,,,,,,,,,,,,,,,617.5438064,618.0464579999998,618.0464579999998,618.8017344999998,618.8017344999998,619.3043988,619.3043988,620.0653238999994,620.0653238999994,None,num_6,1.6124048000001494,620.0653238999994,None,sad,1,Sad,621.6925155999992,None,None,621.6925155999992,None,,,,,,,,,,,,,,,,,,,,,,,,,,,,,,,,,,,,,,,,,,,,,,,,,,,,,25,001,1,25,450,500,2022_Oct_19_1041,Experiment,2021.1.4,360.22016657010056,
images\S6_M_H_03.png,images\S6_M_H_03_scrambled.png,6,happy,30,male,6,,93,on,2,0.5,0.75,0.5,0.943,3,92,2,1,1,2,2,32,128,166,,,,,,0,45,45,45,,,,,,,,,,,,,,,,,,,,,,,,,,,,,,,,,,,,,,,,,,,,,,,,,,,,,,,,,621.7397284999997,622.2452645999992,622.2452645999992,622.9949011999997,622.9949011999997,623.5004050999996,623.5004050999996,624.4472403999998,624.4472403999998,None,num_4,0.6625053000007028,624.4472403999998,None,happy,1,Happy,625.1247907999999,None,None,625.1247907999999,None,,,,,,,,,,,,,,,,,,,,,,,,,,,,,,,,,,,,,,,,,,,,,,,,,,,,,25,001,1,25,450,500,2022_Oct_19_1041,Experiment,2021.1.4,360.22016657010056,
images\blank.jpg,images\blank.jpg,none,none,none,none,0,,631,on,2,0.5,0.75,0.5,0.946,0,630,3,1,1,3,3,48,192,240,,,,,,0,46,46,46,,,,,,,,,,,,,,,,,,,,,,,,,,,,,,,,,,,,,,,,,,,,,,,,,,,,,,,,,625.2083478999994,625.7108258999997,625.7108258999997,626.4632630999995,626.4632630999995,626.9658840999991,626.9658840999991,627.9156829999993,627.9156829999993,627.9156829999993,None,,627.9156829999993,None,miss,1,,630.9175001999995,None,None,630.9175001999995,None,,,,,,,,,,,,,,,,,,,,,,,,,,,,,,,,,,,,,,,,,,,,,,,,,,,,,25,001,1,25,450,500,2022_Oct_19_1041,Experiment,2021.1.4,360.22016657010056,
images\S9_F_H_02.png,images\S9_F_H_02_scrambled.png,9,happy,20,female,5,,590,on,2,0.5,0.75,0.5,0.923,3,589,4,1,1,2,2,32,128,165,,,,,,0,47,47,47,,,,,,,,,,,,,,,,,,,,,,,,,,,,,,,,,,,,,,,,,,,,,,,,,,,,,,,,,631.0342969999992,631.5367299999998,631.5367299999998,632.2920412999993,632.2920412999993,632.7947703,632.7947703,633.7221506999995,633.7221506999995,None,num_4,0.075466399999641,633.7221506999995,631.0342969999992,happy,1,Happy,633.8193203999997,None,None,633.8193203999997,None,,,,,,,,,,,,,,,,,,,,,,,,,,,,,,,,,,,,,,,,,,,,,,,,,,,,,25,001,1,25,450,500,2022_Oct_19_1041,Experiment,2021.1.4,360.22016657010056,
images\S9_F_H_02.png,images\S9_F_H_02_scrambled.png,9,happy,20,female,5,,290,off,1,0.5,0.75,0.5,0.83,3,289,1,2,2,0,0,0,0,5,,,,,,0,48,48,48,,,,,,,,,,,,,,,,,,,,,,,,,,,,,,,,,,,,,,,,,,,,,,,,,,,,,,,,,633.8859680999994,634.3858068999998,634.3858068999998,635.1355968999997,635.1355968999997,635.6410286999999,635.6410286999999,636.4768588999996,636.4768588999996,None,num_6,0.7927794999995967,636.4768588999996,None,sad,1,Happy,637.2738222999999,None,None,637.2738222999999,None,,,,,,,,,,,,,,,,,,,,,,,,,,,,,,,,,,,,,,,,,,,,,,,,,,,,,25,001,1,25,450,500,2022_Oct_19_1041,Experiment,2021.1.4,360.22016657010056,
images\S2_M_H_03.png,images\S2_M_H_03_scrambled.png,2,happy,30,male,6,,549,on,2,0.5,0.75,0.5,0.795,3,548,1,1,1,2,2,32,128,166,,,,,,0,49,49,49,,,,,,,,,,,,,,,,,,,,,,,,,,,,,,,,,,,,,,,,,,,,,,,,,,,,,,,,,637.3210214999999,637.8264480999997,637.8264480999997,638.5761870999995,638.5761870999995,639.0816183999996,639.0816183999996,639.8813940999999,639.8813940999999,None,num_4,0.4523541999997178,639.8813940999999,None,happy,1,Happy,640.3478614999998,None,None,640.3478614999998,None,,,,,,,,,,,,,,,,,,,,,,,,,,,,,,,,,,,,,,,,,,,,,,,,,,,,,25,001,1,25,450,500,2022_Oct_19_1041,Experiment,2021.1.4,360.22016657010056,
images\S7_F_H_03.png,images\S7_F_H_03_scrambled.png,7,happy,30,female,6,,399,off,1,0.5,0.75,0.5,0.875,3,398,1,1,2,0,0,0,0,6,,,,,,0,50,50,50,,,,,,,,,,,,,,,,,,,,,,,,,,,,,,,,,,,,,,,,,,,,,,,,,,,,,,,,,640.4283951999996,640.9310128999996,640.9310128999996,641.6835965,641.6835965,642.1862205999996,642.1862205999996,643.0636818999992,643.0636818999992,None,num_4,0.6623798000000534,643.0636818999992,None,happy,1,Happy,643.7412492999996,None,None,643.7412492999996,None,,,,,,,,,,,,,,,,,,,,,,,,,,,,,,,,,,,,,,,,,,,,,,,,,,,,,25,001,1,25,450,500,2022_Oct_19_1041,Experiment,2021.1.4,360.22016657010056,
images\S4_M_H_01.png,images\S4_M_H_01_scrambled.png,4,happy,10,male,4,,379,off,1,0.5,0.75,0.5,0.844,3,378,2,1,1,0,0,0,0,4,,,,,,0,51,51,51,,,,,,,,,,,,,,,,,,,,,,,,,,,,,,,,,,,,,,,,,,,,,,,,,,,,,,,,,643.8523317999998,644.3549696999999,644.3549696999999,645.1047107999993,645.1047107999993,645.6045912999998,645.6045912999998,646.4515501999995,646.4515501999995,None,num_6,0.9379675999998653,646.4515501999995,None,sad,1,Happy,647.3984561,None,None,647.3984561,None,,,,,,,,,,,,,,,,,,,,,,,,,,,,,,,,,,,,,,,,,,,,,,,,,,,,,25,001,1,25,450,500,2022_Oct_19_1041,Experiment,2021.1.4,360.22016657010056,
images\S3_F_S_01.png,images\S3_F_S_01_scrambled.png,3,sad,-10,female,3,,556,on,2,0.5,0.75,0.5,0.909,3,555,1,1,1,2,2,32,128,163,,,,,,0,52,52,52,,,,,,,,,,,,,,,,,,,,,,,,,,,,,,,,,,,,,,,,,,,,,,,,,,,,,,,,,647.4817715999998,647.9843839999994,647.9843839999994,648.7369233999998,648.7369233999998,649.2395905999992,649.2395905999992,650.1532455999995,650.1532455999995,None,num_6,0.4047194999993735,650.1532455999995,None,sad,1,Sad,650.5864553,None,None,650.5864553,None,,,,,,,,,,,,,,,,,,,,,,,,,,,,,,,,,,,,,,,,,,,,,,,,,,,,,25,001,1,25,450,500,2022_Oct_19_1041,Experiment,2021.1.4,360.22016657010056,
images\S2_M_S_01.png,images\S2_M_S_01_scrambled.png,2,sad,-10,male,3,,10,off,1,0.5,0.75,0.5,0.947,3,9,1,1,2,0,0,0,0,3,,,,,,0,53,53,53,,,,,,,,,,,,,,,,,,,,,,,,,,,,,,,,,,,,,,,,,,,,,,,,,,,,,,,,,650.6974361999992,651.2000518999994,651.2000518999994,651.9498217999999,651.9498217999999,652.4553542999993,652.4553542999993,653.4050502,653.4050502,None,num_6,0.808947900000021,653.4050502,None,sad,1,Sad,654.2408995999994,None,None,654.2408995999994,None,,,,,,,,,,,,,,,,,,,,,,,,,,,,,,,,,,,,,,,,,,,,,,,,,,,,,25,001,1,25,450,500,2022_Oct_19_1041,Experiment,2021.1.4,360.22016657010056,
images\S10_M_S_03.png,images\S10_M_S_03_scrambled.png,10,sad,-30,male,1,,420,off,1,0.5,0.75,0.5,0.813,3,419,2,1,1,0,0,0,0,1,,,,,,0,54,54,54,,,,,,,,,,,,,,,,,,,,,,,,,,,,,,,,,,,,,,,,,,,,,,,,,,,,,,,,,654.3268779999999,654.8296148999998,654.8296148999998,655.5792641999997,655.5792641999997,656.0791474999996,656.0791474999996,656.8955999999998,656.8955999999998,None,num_6,0.9579063000001042,656.8955999999998,None,sad,1,Sad,657.8674427999998,None,None,657.8674427999998,None,,,,,,,,,,,,,,,,,,,,,,,,,,,,,,,,,,,,,,,,,,,,,,,,,,,,,25,001,1,25,450,500,2022_Oct_19_1041,Experiment,2021.1.4,360.22016657010056,
images\S6_M_H_02.png,images\S6_M_H_02_scrambled.png,6,happy,20,male,5,,212,on,2,0.5,0.75,0.5,0.752,3,211,1,1,1,2,2,32,128,165,,,,,,0,55,55,55,,,,,,,,,,,,,,,,,,,,,,,,,,,,,,,,,,,,,,,,,,,,,,,,,,,,,,,,,657.9479678999996,658.4506855,658.4506855,659.2031391999999,659.2031391999999,659.7058146999998,659.7058146999998,660.4611367999996,660.4611367999996,None,num_6,0.7684665999995559,660.4611367999996,None,sad,1,Happy,661.2414034999996,None,None,661.2414034999996,None,,,,,,,,,,,,,,,,,,,,,,,,,,,,,,,,,,,,,,,,,,,,,,,,,,,,,25,001,1,25,450,500,2022_Oct_19_1041,Experiment,2021.1.4,360.22016657010056,
images\S1_F_S_01.png,images\S1_F_S_01_scrambled.png,1,sad,-10,female,3,,424,on,2,0.5,0.75,0.5,0.829,3,423,2,1,1,2,2,32,128,163,,,,,,0,56,56,56,,,,,,,,,,,,,,,,,,,,,,,,,,,,,,,,,,,,,,,,,,,,,,,,,,,,,,,,,661.3524785999998,661.8578809999999,661.8578809999999,662.6105467999996,662.6105467999996,663.1130337999994,663.1130337999994,663.9461715999996,663.9461715999996,None,num_6,0.4112521999995806,663.9461715999996,None,sad,1,Sad,664.3876596,None,None,664.3876596,None,,,,,,,,,,,,,,,,,,,,,,,,,,,,,,,,,,,,,,,,,,,,,,,,,,,,,25,001,1,25,450,500,2022_Oct_19_1041,Experiment,2021.1.4,360.22016657010056,
images\S4_M_H_02.png,images\S4_M_H_02_scrambled.png,4,happy,20,male,5,,80,on,2,0.5,0.75,0.5,0.756,3,79,3,1,1,2,2,32,128,165,,,,,,0,57,57,57,,,,,,,,,,,,,,,,,,,,,,,,,,,,,,,,,,,,,,,,,,,,,,,,,,,,,,,,,664.4765171999998,664.9819393999996,664.9819393999996,665.7372575999998,665.7372575999998,666.2399878999995,666.2399878999995,667.0008001999995,667.0008001999995,None,num_6,0.7087830999998914,667.0008001999995,None,sad,1,Happy,667.7144109999992,None,None,667.7144109999992,None,,,,,,,,,,,,,,,,,,,,,,,,,,,,,,,,,,,,,,,,,,,,,,,,,,,,,25,001,1,25,450,500,2022_Oct_19_1041,Experiment,2021.1.4,360.22016657010056,
images\S4_M_S_02.png,images\S4_M_S_02_scrambled.png,4,sad,-20,male,2,,443,on,2,0.5,0.75,0.5,0.894,3,442,4,2,1,2,2,32,128,162,,,,,,0,58,58,58,,,,,,,,,,,,,,,,,,,,,,,,,,,,,,,,,,,,,,,,,,,,,,,,,,,,,,,,,667.7977032999997,668.3031242999996,668.3031242999996,669.0584766999991,669.0584766999991,669.5611084999991,669.5611084999991,670.46083,670.46083,None,num_6,0.6168389000004026,670.46083,None,sad,1,Sad,671.0911354999993,None,None,671.0911354999993,None,,,,,,,,,,,,,,,,,,,,,,,,,,,,,,,,,,,,,,,,,,,,,,,,,,,,,25,001,1,25,450,500,2022_Oct_19_1041,Experiment,2021.1.4,360.22016657010056,
images\S4_M_S_01.png,images\S4_M_S_01_scrambled.png,4,sad,-10,male,3,,22,off,1,0.5,0.75,0.5,0.79,3,21,1,3,1,0,0,0,0,3,,,,,,0,59,59,59,,,,,,,,,,,,,,,,,,,,,,,,,,,,,,,,,,,,,,,,,,,,,,,,,,,,,,,,,671.1744409999992,671.6770544999999,671.6770544999999,672.4268237999995,672.4268237999995,672.9294932999992,672.9294932999992,673.7264685999999,673.7264685999999,None,num_6,0.07121389999974781,673.7264685999999,None,sad,1,Sad,673.8264668,None,None,673.8264668,None,,,,,,,,,,,,,,,,,,,,,,,,,,,,,,,,,,,,,,,,,,,,,,,,,,,,,25,001,1,25,450,500,2022_Oct_19_1041,Experiment,2021.1.4,360.22016657010056,
images\S6_M_S_01.png,images\S6_M_S_01_scrambled.png,6,sad,-10,male,3,,574,on,2,0.5,0.75,0.5,0.943,3,573,1,1,2,2,2,32,128,163,,,,,,0,60,60,60,,,,,,,,,,,,,,,,,,,,,,,,,,,,,,,,,,,,,,,,,,,,,,,,,,,,,,,,,673.8902685999992,674.3928825999992,674.3928825999992,675.1426511,675.1426511,675.6452875999994,675.6452875999994,676.5922358999997,676.5922358999997,None,None,,676.5922358999997,None,miss,1,Sad,679.5940684999997,None,None,679.5940684999997,None,,,,,,,,,,,,,,,,,,,,,,,,,,,,,,,,,,,,,,,,,,,,,,,,,,,,,25,001,1,25,450,500,2022_Oct_19_1041,Experiment,2021.1.4,360.22016657010056,
images\S10_M_H_01.png,images\S10_M_H_01_scrambled.png,10,happy,10,male,4,,235,on,2,0.5,0.75,0.5,0.913,3,234,2,1,1,2,2,32,128,164,,,,,,0,61,61,61,,,,,,,,,,,,,,,,,,,,,,,,,,,,,,,,,,,,,,,,,,,,,,,,,,,,,,,,,679.6412751999997,680.1438925999992,680.1438925999992,680.8964893999992,680.8964893999992,681.3990512999999,681.3990512999999,682.3182435999997,682.3182435999997,679.6412751999997,None,,682.3182435999997,679.6412751999997,miss,1,Happy,685.3172957999997,None,None,685.3172957999997,None,,,,,,,,,,,,,,,,,,,,,,,,,,,,,,,,,,,,,,,,,,,,,,,,,,,,,25,001,1,25,450,500,2022_Oct_19_1041,Experiment,2021.1.4,360.22016657010056,
images\blank.jpg,images\blank.jpg,none,none,none,none,0,,645,on,2,0.5,0.75,0.5,0.861,0,644,3,1,1,3,3,48,192,240,,,,,,0,62,62,62,,,,,,,,,,,,,,,,,,,,,,,,,,,,,,,,,,,,,,,,,,,,,,,,,,,,,,,,,685.4008500999998,685.9032713999995,685.9032713999995,686.6585615999993,686.6585615999993,687.1611960999999,687.1611960999999,688.0276400999992,688.0276400999992,688.0276400999992,None,,688.0276400999992,685.4008500999998,miss,1,,691.0266538999996,None,None,691.0266538999996,None,,,,,,,,,,,,,,,,,,,,,,,,,,,,,,,,,,,,,,,,,,,,,,,,,,,,,25,001,1,25,450,500,2022_Oct_19_1041,Experiment,2021.1.4,360.22016657010056,
images\S10_M_S_03.png,images\S10_M_S_03_scrambled.png,10,sad,-30,male,1,,120,on,2,0.5,0.75,0.5,0.829,3,119,4,1,1,2,2,32,128,161,,,,,,0,63,63,63,,,,,,,,,,,,,,,,,,,,,,,,,,,,,,,,,,,,,,,,,,,,,,,,,,,,,,,,,691.1406453,691.643153,691.643153,692.3984301999999,692.3984301999999,692.9010709999993,692.9010709999993,693.7341554999994,693.7341554999994,None,num_6,0.3356002999998964,693.7341554999994,691.1406453,sad,1,Sad,694.0979833999999,None,None,694.0979833999999,None,,,,,,,,,,,,,,,,,,,,,,,,,,,,,,,,,,,,,,,,,,,,,,,,,,,,,25,001,1,25,450,500,2022_Oct_19_1041,Experiment,2021.1.4,360.22016657010056,
images\S2_M_H_03.png,images\S2_M_H_03_scrambled.png,2,happy,30,male,6,,9,off,1,0.5,0.75,0.5,0.834,3,8,1,1,1,0,0,0,0,6,,,,,,0,64,64,64,,,,,,,,,,,,,,,,,,,,,,,,,,,,,,,,,,,,,,,,,,,,,,,,,,,,,,,,,694.1478947999994,694.6477357999993,694.6477357999993,695.4030601999993,695.4030601999993,695.9056859999992,695.9056859999992,696.7443310999997,696.7443310999997,None,num_4,0.621589600000334,696.7443310999997,None,happy,1,Happy,697.3914495999996,None,None,697.3914495999996,None,,,,,,,,,,,,,,,,,,,,,,,,,,,,,,,,,,,,,,,,,,,,,,,,,,,,,25,001,1,25,450,500,2022_Oct_19_1041,Experiment,2021.1.4,360.22016657010056,
images\S6_M_S_03.png,images\S6_M_S_03_scrambled.png,6,sad,-30,male,1,,516,off,1,0.5,0.75,0.5,0.784,3,515,2,1,1,0,0,0,0,1,,,,,,0,65,65,65,,,,,,,,,,,,,,,,,,,,,,,,,,,,,,,,,,,,,,,,,,,,,,,,,,,,,,,,,697.4441005999997,697.9495186999993,697.9495186999993,698.7021363999993,698.7021363999993,699.2075369999993,699.2075369999993,699.9933351,699.9933351,None,num_6,0.6843023999999787,699.9933351,None,sad,1,Sad,700.7042450999996,None,None,700.7042450999996,None,,,,,,,,,,,,,,,,,,,,,,,,,,,,,,,,,,,,,,,,,,,,,,,,,,,,,25,001,1,25,450,500,2022_Oct_19_1041,Experiment,2021.1.4,360.22016657010056,
images\S3_F_H_03.png,images\S3_F_H_03_scrambled.png,3,happy,30,female,6,,315,on,2,0.5,0.75,0.5,0.752,3,314,1,1,1,2,2,32,128,166,,,,,,0,66,66,66,,,,,,,,,,,,,,,,,,,,,,,,,,,,,,,,,,,,,,,,,,,,,,,,,,,,,,,,,700.8152738999997,701.3179480999997,701.3179480999997,702.0676614999993,702.0676614999993,702.5730977999992,702.5730977999992,703.3284285,703.3284285,None,num_4,0.621171100000538,703.3284285,None,happy,1,Happy,703.9643154999998,None,None,703.9643154999998,None,,,,,,,,,,,,,,,,,,,,,,,,,,,,,,,,,,,,,,,,,,,,,,,,,,,,,25,001,1,25,450,500,2022_Oct_19_1041,Experiment,2021.1.4,360.22016657010056,
images\S8_M_H_03.png,images\S8_M_H_03_scrambled.png,8,happy,30,male,6,,345,on,2,0.5,0.75,0.5,0.787,3,344,2,1,2,2,2,32,128,166,,,,,,0,67,67,67,,,,,,,,,,,,,,,,,,,,,,,,,,,,,,,,,,,,,,,,,,,,,,,,,,,,,,,,,704.0142890999996,704.5170527,704.5170527,705.2694690999997,705.2694690999997,705.7693001999996,705.7693001999996,706.5635196999992,706.5635196999992,None,num_4,0.0824971000001824,706.5635196999992,None,happy,1,Happy,706.6663375999993,None,None,706.6663375999993,None,,,,,,,,,,,,,,,,,,,,,,,,,,,,,,,,,,,,,,,,,,,,,,,,,,,,,25,001,1,25,450,500,2022_Oct_19_1041,Experiment,2021.1.4,360.22016657010056,
images\S9_F_S_03.png,images\S9_F_S_03_scrambled.png,9,sad,-30,female,1,,174,off,1,0.5,0.75,0.5,0.813,3,173,1,1,1,0,0,0,0,1,,,,,,0,68,68,68,,,,,,,,,,,,,,,,,,,,,,,,,,,,,,,,,,,,,,,,,,,,,,,,,,,,,,,,,706.7745483999997,707.2772969999996,707.2772969999996,708.0297166999999,708.0297166999999,708.5324372999994,708.5324372999994,709.3487743999995,709.3487743999995,None,num_6,0.6728163999996468,709.3487743999995,None,sad,1,Sad,710.0318945999992,None,None,710.0318945999992,None,,,,,,,,,,,,,,,,,,,,,,,,,,,,,,,,,,,,,,,,,,,,,,,,,,,,,25,001,1,25,450,500,2022_Oct_19_1041,Experiment,2021.1.4,360.22016657010056,
images\S7_F_H_02.png,images\S7_F_H_02_scrambled.png,7,happy,20,female,5,,458,on,2,0.5,0.75,0.5,0.846,3,457,1,1,1,2,2,32,128,165,,,,,,0,69,69,69,,,,,,,,,,,,,,,,,,,,,,,,,,,,,,,,,,,,,,,,,,,,,,,,,,,,,,,,,710.0873834999993,710.5928552999994,710.5928552999994,711.3481644999993,711.3481644999993,711.8535687999993,711.8535687999993,712.7033052999996,712.7033052999996,None,num_4,1.4700888999996096,712.7033052999996,None,happy,1,Happy,714.1889212999998,None,None,714.1889212999998,None,,,,,,,,,,,,,,,,,,,,,,,,,,,,,,,,,,,,,,,,,,,,,,,,,,,,,25,001,1,25,450,500,2022_Oct_19_1041,Experiment,2021.1.4,360.22016657010056,
images\S10_M_S_03.png,images\S10_M_S_03_scrambled.png,10,sad,-30,male,1,,600,on,2,0.5,0.75,0.5,0.911,3,599,2,1,1,2,2,32,128,161,,,,,,0,70,70,70,,,,,,,,,,,,,,,,,,,,,,,,,,,,,,,,,,,,,,,,,,,,,,,,,,,,,,,,,714.2361360999994,714.7359683999994,714.7359683999994,715.4857379999994,715.4857379999994,715.9883975999992,715.9883975999992,716.9019638999998,716.9019638999998,None,num_6,0.5833476999996492,716.9019638999998,None,sad,1,Sad,717.4962526999992,None,None,717.4962526999992,None,,,,,,,,,,,,,,,,,,,,,,,,,,,,,,,,,,,,,,,,,,,,,,,,,,,,,25,001,1,25,450,500,2022_Oct_19_1041,Experiment,2021.1.4,360.22016657010056,
images\S6_M_S_02.png,images\S6_M_S_02_scrambled.png,6,sad,-20,male,2,,395,off,1,0.5,0.75,0.5,0.874,3,394,1,1,1,0,0,0,0,2,,,,,,0,71,71,71,,,,,,,,,,,,,,,,,,,,,,,,,,,,,,,,,,,,,,,,,,,,,,,,,,,,,,,,,717.5462196999997,718.0488309999992,718.0488309999992,718.8014085999994,718.8014085999994,719.3039995999998,719.3039995999998,720.1843055999998,720.1843055999998,None,num_6,2.7012408000000505,720.1843055999998,None,sad,1,Sad,722.9001221999991,None,None,722.9001221999991,None,,,,,,,,,,,,,,,,,,,,,,,,,,,,,,,,,,,,,,,,,,,,,,,,,,,,,25,001,1,25,450,500,2022_Oct_19_1041,Experiment,2021.1.4,360.22016657010056,
images\S5_F_S_02.png,images\S5_F_S_02_scrambled.png,5,sad,-20,female,2,,389,off,1,0.5,0.75,0.5,0.843,3,388,2,1,2,0,0,0,0,2,,,,,,0,72,72,72,,,,,,,,,,,,,,,,,,,,,,,,,,,,,,,,,,,,,,,,,,,,,,,,,,,,,,,,,722.9501025,723.4527876999991,723.4527876999991,724.2053220999996,724.2053220999996,724.7079408,724.7079408,725.5548443999996,725.5548443999996,None,num_4,0.618370700000014,725.5548443999996,None,happy,1,Sad,726.1796585999994,None,None,726.1796585999994,None,,,,,,,,,,,,,,,,,,,,,,,,,,,,,,,,,,,,,,,,,,,,,,,,,,,,,25,001,1,25,450,500,2022_Oct_19_1041,Experiment,2021.1.4,360.22016657010056,
images\S6_M_H_03.png,images\S6_M_H_03_scrambled.png,6,happy,30,male,6,,513,off,1,0.5,0.75,0.5,0.845,3,512,3,1,1,0,0,0,0,6,,,,,,0,73,73,73,,,,,,,,,,,,,,,,,,,,,,,,,,,,,,,,,,,,,,,,,,,,,,,,,,,,,,,,,726.2268722999997,726.7267039999997,726.7267039999997,727.4764763999992,727.4764763999992,727.9763352999998,727.9763352999998,728.8233246999998,728.8233246999998,None,num_6,0.31807600000047387,728.8233246999998,None,sad,1,Happy,729.1482489999992,None,None,729.1482489999992,None,,,,,,,,,,,,,,,,,,,,,,,,,,,,,,,,,,,,,,,,,,,,,,,,,,,,,25,001,1,25,450,500,2022_Oct_19_1041,Experiment,2021.1.4,360.22016657010056,
images\S6_M_S_01.png,images\S6_M_S_01_scrambled.png,6,sad,-10,male,3,,154,off,1,0.5,0.75,0.5,0.85,3,153,4,2,1,0,0,0,0,3,,,,,,0,74,74,74,,,,,,,,,,,,,,,,,,,,,,,,,,,,,,,,,,,,,,,,,,,,,,,,,,,,,,,,,729.1982699999999,729.7007884999994,729.7007884999994,730.4505624999993,730.4505624999993,730.9532061,730.9532061,731.8085165999992,731.8085165999992,None,num_6,0.5249736999994639,731.8085165999992,None,sad,1,Sad,732.3471956999996,None,None,732.3471956999996,None,,,,,,,,,,,,,,,,,,,,,,,,,,,,,,,,,,,,,,,,,,,,,,,,,,,,,25,001,1,25,450,500,2022_Oct_19_1041,Experiment,2021.1.4,360.22016657010056,
images\S3_F_H_02.png,images\S3_F_H_02_scrambled.png,3,happy,20,female,5,,554,on,2,0.5,0.75,0.5,0.826,3,553,1,1,1,2,2,32,128,165,,,,,,0,75,75,75,,,,,,,,,,,,,,,,,,,,,,,,,,,,,,,,,,,,,,,,,,,,,,,,,,,,,,,,,732.4305092999994,732.933129,732.933129,733.6856702999994,733.6856702999994,734.1883212999992,734.1883212999992,735.0185857999995,735.0185857999995,None,None,,735.0185857999995,None,miss,1,Happy,738.0176774999992,None,None,738.0176774999992,None,,,,,,,,,,,,,,,,,,,,,,,,,,,,,,,,,,,,,,,,,,,,,,,,,,,,,25,001,1,25,450,500,2022_Oct_19_1041,Experiment,2021.1.4,360.22016657010056,
images\S3_F_H_02.png,images\S3_F_H_02_scrambled.png,3,happy,20,female,5,,254,off,1,0.5,0.75,0.5,0.772,3,253,1,2,2,0,0,0,0,5,,,,,,0,76,76,76,,,,,,,,,,,,,,,,,,,,,,,,,,,,,,,,,,,,,,,,,,,,,,,,,,,,,,,,,738.0648883999993,738.5647162999994,738.5647162999994,739.3172826,739.3172826,739.8227103999998,739.8227103999998,740.5975404999999,740.5975404999999,738.0648883999993,num_6,0.19205670000064856,740.5975404999999,738.0648883999993,sad,1,Happy,740.7946630999998,None,None,740.7946630999998,None,,,,,,,,,,,,,,,,,,,,,,,,,,,,,,,,,,,,,,,,,,,,,,,,,,,,,25,001,1,25,450,500,2022_Oct_19_1041,Experiment,2021.1.4,360.22016657010056,
images\S3_F_S_02.png,images\S3_F_S_02_scrambled.png,3,sad,-20,female,2,,137,off,1,0.5,0.75,0.5,0.917,3,136,2,3,1,0,0,0,0,2,,,,,,0,77,77,77,,,,,,,,,,,,,,,,,,,,,,,,,,,,,,,,,,,,,,,,,,,,,,,,,,,,,,,,,740.8417936999995,741.3473275999995,741.3473275999995,742.0997347999992,742.0997347999992,742.6024631,742.6024631,743.5243209999999,743.5243209999999,None,num_4,0.3531401000000187,743.5243209999999,None,happy,1,Sad,743.8881391999996,None,None,743.8881391999996,None,,,,,,,,,,,,,,,,,,,,,,,,,,,,,,,,,,,,,,,,,,,,,,,,,,,,,25,001,1,25,450,500,2022_Oct_19_1041,Experiment,2021.1.4,360.22016657010056,
images\S10_M_S_01.png,images\S10_M_S_01_scrambled.png,10,sad,-10,male,3,,418,off,1,0.5,0.75,0.5,0.842,3,417,3,1,1,0,0,0,0,3,,,,,,0,78,78,78,,,,,,,,,,,,,,,,,,,,,,,,,,,,,,,,,,,,,,,,,,,,,,,,,,,,,,,,,743.9991553999998,744.5017675999998,744.5017675999998,745.2543325999995,745.2543325999995,745.7570747,745.7570747,746.6011470999993,746.6011470999993,None,num_4,2.980620600000293,746.6011470999993,None,happy,1,Sad,749.5890896999992,None,None,749.5890896999992,None,,,,,,,,,,,,,,,,,,,,,,,,,,,,,,,,,,,,,,,,,,,,,,,,,,,,,25,001,1,25,450,500,2022_Oct_19_1041,Experiment,2021.1.4,360.22016657010056,
images\S10_M_H_03.png,images\S10_M_H_03_scrambled.png,10,happy,30,male,6,,57,off,1,0.5,0.75,0.5,0.854,3,56,4,2,1,0,0,0,0,6,,,,,,0,79,79,79,,,,,,,,,,,,,,,,,,,,,,,,,,,,,,,,,,,,,,,,,,,,,,,,,,,,,,,,,749.6362987999992,750.1389415999993,750.1389415999993,750.8914902999995,750.8914902999995,751.3941199999999,751.3941199999999,752.2522394999996,752.2522394999996,None,num_4,0.6652782999999545,752.2522394999996,None,happy,1,Happy,752.9325045999998,None,None,752.9325045999998,None,,,,,,,,,,,,,,,,,,,,,,,,,,,,,,,,,,,,,,,,,,,,,,,,,,,,,25,001,1,25,450,500,2022_Oct_19_1041,Experiment,2021.1.4,360.22016657010056,
images\S10_M_S_02.png,images\S10_M_S_02_scrambled.png,10,sad,-20,male,2,,359,on,2,0.5,0.75,0.5,0.835,3,358,1,3,1,2,2,32,128,162,,,,,,0,80,80,80,,,,,,,,,,,,,,,,,,,,,,,,,,,,,,,,,,,,,,,,,,,,,,,,,,,,,,,,,752.9824863999993,753.4851171999999,753.4851171999999,754.2377018999996,754.2377018999996,754.7430736999995,754.7430736999995,755.5816981999997,755.5816981999997,None,None,,755.5816981999997,None,miss,1,Sad,758.5835425999995,None,None,758.5835425999995,None,,,,,,,,,,,,,,,,,,,,,,,,,,,,,,,,,,,,,,,,,,,,,,,,,,,,,25,001,1,25,450,500,2022_Oct_19_1041,Experiment,2021.1.4,360.22016657010056,
images\S6_M_S_01.png,images\S6_M_S_01_scrambled.png,6,sad,-10,male,3,,214,on,2,0.5,0.75,0.5,0.949,3,213,2,1,1,2,2,32,128,163,,,,,,0,81,81,81,,,,,,,,,,,,,,,,,,,,,,,,,,,,,,,,,,,,,,,,,,,,,,,,,,,,,,,,,758.6307450999993,759.1333974999998,759.1333974999998,759.8859522999992,759.8859522999992,760.3914176999997,760.3914176999997,761.3438136999994,761.3438136999994,758.6307450999993,num_6,0.3336424999997689,761.3438136999994,758.6307450999993,sad,1,Sad,761.6909212999993,None,None,761.6909212999993,None,,,,,,,,,,,,,,,,,,,,,,,,,,,,,,,,,,,,,,,,,,,,,,,,,,,,,25,001,1,25,450,500,2022_Oct_19_1041,Experiment,2021.1.4,360.22016657010056,
images\blank.jpg,images\blank.jpg,none,none,none,none,0,,621,on,2,0.5,0.75,0.5,0.827,0,620,3,1,1,3,3,48,192,240,,,,,,0,82,82,82,,,,,,,,,,,,,,,,,,,,,,,,,,,,,,,,,,,,,,,,,,,,,,,,,,,,,,,,,761.7744567,762.2740527999995,762.2740527999995,763.0267361999995,763.0267361999995,763.5264729999999,763.5264729999999,764.3568843999992,764.3568843999992,764.3568843999992,None,,764.3568843999992,None,miss,1,,767.3586260999992,None,None,767.3586260999992,None,,,,,,,,,,,,,,,,,,,,,,,,,,,,,,,,,,,,,,,,,,,,,,,,,,,,,25,001,1,25,450,500,2022_Oct_19_1041,Experiment,2021.1.4,360.22016657010056,
images\S6_M_H_01.png,images\S6_M_H_01_scrambled.png,6,happy,10,male,4,,451,on,2,0.5,0.75,0.5,0.823,3,450,4,1,1,2,2,32,128,164,,,,,,0,83,83,83,,,,,,,,,,,,,,,,,,,,,,,,,,,,,,,,,,,,,,,,,,,,,,,,,,,,,,,,,767.4782325999995,767.9834293999993,767.9834293999993,768.7387423999999,768.7387423999999,769.2441421999993,769.2441421999993,770.0744413999992,770.0744413999992,None,num_6,0.26692889999958425,770.0744413999992,767.4782325999995,sad,1,Happy,770.3466216999998,None,None,770.3466216999998,None,,,,,,,,,,,,,,,,,,,,,,,,,,,,,,,,,,,,,,,,,,,,,,,,,,,,,25,001,1,25,450,500,2022_Oct_19_1041,Experiment,2021.1.4,360.22016657010056,
images\S5_F_H_01.png,images\S5_F_H_01_scrambled.png,5,happy,10,female,4,,445,on,2,0.5,0.75,0.5,0.815,3,444,5,1,2,2,2,32,128,164,,,,,,0,84,84,84,,,,,,,,,,,,,,,,,,,,,,,,,,,,,,,,,,,,,,,,,,,,,,,,,,,,,,,,,770.4520868999998,770.9547020999998,770.9547020999998,771.7073897999999,771.7073897999999,772.2126945999998,772.2126945999998,773.0346241999996,773.0346241999996,None,num_4,1.3224577999999383,773.0346241999996,None,happy,1,Happy,774.3675588,None,None,774.3675588,None,,,,,,,,,,,,,,,,,,,,,,,,,,,,,,,,,,,,,,,,,,,,,,,,,,,,,25,001,1,25,450,500,2022_Oct_19_1041,Experiment,2021.1.4,360.22016657010056,
images\S9_F_H_02.png,images\S9_F_H_02_scrambled.png,9,happy,20,female,5,,530,off,1,0.5,0.75,0.5,0.776,3,529,1,1,1,0,0,0,0,5,,,,,,0,85,85,85,,,,,,,,,,,,,,,,,,,,,,,,,,,,,,,,,,,,,,,,,,,,,,,,,,,,,,,,,774.4147524999998,774.9173670999999,774.9173670999999,775.6727488999995,775.6727488999995,776.1781291999996,776.1781291999996,776.9584448999994,776.9584448999994,None,num_4,0.6069861000005403,776.9584448999994,None,happy,1,Happy,777.5832164999996,None,None,777.5832164999996,None,,,,,,,,,,,,,,,,,,,,,,,,,,,,,,,,,,,,,,,,,,,,,,,,,,,,,25,001,1,25,450,500,2022_Oct_19_1041,Experiment,2021.1.4,360.22016657010056,
images\S9_F_S_02.png,images\S9_F_S_02_scrambled.png,9,sad,-20,female,2,,173,off,1,0.5,0.75,0.5,0.948,3,172,2,2,1,0,0,0,0,2,,,,,,0,86,86,86,,,,,,,,,,,,,,,,,,,,,,,,,,,,,,,,,,,,,,,,,,,,,,,,,,,,,,,,,777.6304295,778.1358250999992,778.1358250999992,778.8883593999999,778.8883593999999,779.3882093999991,779.3882093999991,780.3379691,780.3379691,None,num_6,0.5793609000002107,780.3379691,None,sad,1,Sad,780.9321825999999,None,None,780.9321825999999,None,,,,,,,,,,,,,,,,,,,,,,,,,,,,,,,,,,,,,,,,,,,,,,,,,,,,,25,001,1,25,450,500,2022_Oct_19_1041,Experiment,2021.1.4,360.22016657010056,
images\S4_M_H_02.png,images\S4_M_H_02_scrambled.png,4,happy,20,male,5,,320,on,2,0.5,0.75,0.5,0.811,3,319,1,1,1,2,2,32,128,165,,,,,,0,87,87,87,,,,,,,,,,,,,,,,,,,,,,,,,,,,,,,,,,,,,,,,,,,,,,,,,,,,,,,,,780.9793917999996,781.4847942999995,781.4847942999995,782.2401133999992,782.2401133999992,782.7400067999997,782.7400067999997,783.5536161999999,783.5536161999999,None,num_6,0.8037381000003734,783.5536161999999,None,sad,1,Happy,784.3644686999999,None,None,784.3644686999999,None,,,,,,,,,,,,,,,,,,,,,,,,,,,,,,,,,,,,,,,,,,,,,,,,,,,,,25,001,1,25,450,500,2022_Oct_19_1041,Experiment,2021.1.4,360.22016657010056,
images\S6_M_H_01.png,images\S6_M_H_01_scrambled.png,6,happy,10,male,4,,571,on,2,0.5,0.75,0.5,0.849,3,570,2,1,1,2,2,32,128,164,,,,,,0,88,88,88,,,,,,,,,,,,,,,,,,,,,,,,,,,,,,,,,,,,,,,,,,,,,,,,,,,,,,,,,784.4144368999996,784.9171865999997,784.9171865999997,785.6724953999992,785.6724953999992,786.1778307999994,786.1778307999994,787.0331281999997,787.0331281999997,None,num_6,0.3883447000007436,787.0331281999997,None,sad,1,Happy,787.4330747999995,None,None,787.4330747999995,None,,,,,,,,,,,,,,,,,,,,,,,,,,,,,,,,,,,,,,,,,,,,,,,,,,,,,25,001,1,25,450,500,2022_Oct_19_1041,Experiment,2021.1.4,360.22016657010056,
images\S1_F_S_03.png,images\S1_F_S_03_scrambled.png,1,sad,-30,female,1,,306,on,2,0.5,0.75,0.5,0.785,3,305,3,1,1,2,2,32,128,161,,,,,,0,89,89,89,,,,,,,,,,,,,,,,,,,,,,,,,,,,,,,,,,,,,,,,,,,,,,,,,,,,,,,,,787.5440254999994,788.0467731999997,788.0467731999997,788.7992154999993,788.7992154999993,789.3018042999993,789.3018042999993,790.0932707999991,790.0932707999991,None,num_6,0.44019480000042677,790.0932707999991,None,sad,1,Sad,790.5458745999998,None,None,790.5458745999998,None,,,,,,,,,,,,,,,,,,,,,,,,,,,,,,,,,,,,,,,,,,,,,,,,,,,,,25,001,1,25,450,500,2022_Oct_19_1041,Experiment,2021.1.4,360.22016657010056,
images\S3_F_H_03.png,images\S3_F_H_03_scrambled.png,3,happy,30,female,6,,435,on,2,0.5,0.75,0.5,0.814,3,434,4,1,1,2,2,32,128,166,,,,,,0,90,90,90,,,,,,,,,,,,,,,,,,,,,,,,,,,,,,,,,,,,,,,,,,,,,,,,,,,,,,,,,790.5930892999995,791.0956988999997,791.0956988999997,791.8482490999995,791.8482490999995,792.3509075999991,792.3509075999991,793.1673671999997,793.1673671999997,None,num_4,1.6378707000003487,793.1673671999997,None,happy,1,Happy,794.8334491999994,None,None,794.8334491999994,None,,,,,,,,,,,,,,,,,,,,,,,,,,,,,,,,,,,,,,,,,,,,,,,,,,,,,25,001,1,25,450,500,2022_Oct_19_1041,Experiment,2021.1.4,360.22016657010056,
images\S8_M_S_01.png,images\S8_M_S_01_scrambled.png,8,sad,-10,male,3,,166,off,1,0.5,0.75,0.5,0.872,3,165,1,1,1,0,0,0,0,3,,,,,,0,91,91,91,,,,,,,,,,,,,,,,,,,,,,,,,,,,,,,,,,,,,,,,,,,,,,,,,,,,,,,,,794.9195260999995,795.4222804999999,795.4222804999999,796.1775363999996,796.1775363999996,796.6773285999998,796.6773285999998,797.5521835,797.5521835,None,num_6,1.1572069000003466,797.5521835,None,sad,1,Sad,798.7266792999993,None,None,798.7266792999993,None,,,,,,,,,,,,,,,,,,,,,,,,,,,,,,,,,,,,,,,,,,,,,,,,,,,,,25,001,1,25,450,500,2022_Oct_19_1041,Experiment,2021.1.4,360.22016657010056,
images\S3_F_H_01.png,images\S3_F_H_01_scrambled.png,3,happy,10,female,4,,373,off,1,0.5,0.75,0.5,0.759,3,372,2,1,1,0,0,0,0,4,,,,,,0,92,92,92,,,,,,,,,,,,,,,,,,,,,,,,,,,,,,,,,,,,,,,,,,,,,,,,,,,,,,,,,798.7738961999994,799.2766416999993,799.2766416999993,800.0262997999998,800.0262997999998,800.5288887999995,800.5288887999995,801.2897887999998,801.2897887999998,None,num_6,0.3475439000003462,801.2897887999998,None,sad,1,Happy,801.6425764999997,None,None,801.6425764999997,None,,,,,,,,,,,,,,,,,,,,,,,,,,,,,,,,,,,,,,,,,,,,,,,,,,,,,25,001,1,25,450,500,2022_Oct_19_1041,Experiment,2021.1.4,360.22016657010056,
images\S9_F_S_02.png,images\S9_F_S_02_scrambled.png,9,sad,-20,female,2,,473,on,2,0.5,0.75,0.5,0.932,3,472,1,1,1,2,2,32,128,162,,,,,,0,93,93,93,,,,,,,,,,,,,,,,,,,,,,,,,,,,,,,,,,,,,,,,,,,,,,,,,,,,,,,,,801.6896568999991,802.1923551,802.1923551,802.9420582999992,802.9420582999992,803.4475035999994,803.4475035999994,804.3832978999999,804.3832978999999,None,num_6,0.5499416000002384,804.3832978999999,None,sad,1,Sad,804.9525427999994,None,None,804.9525427999994,None,,,,,,,,,,,,,,,,,,,,,,,,,,,,,,,,,,,,,,,,,,,,,,,,,,,,,25,001,1,25,450,500,2022_Oct_19_1041,Experiment,2021.1.4,360.22016657010056,
images\S6_M_H_03.png,images\S6_M_H_03_scrambled.png,6,happy,30,male,6,,33,off,1,0.5,0.75,0.5,0.788,3,32,1,1,1,0,0,0,0,6,,,,,,0,94,94,94,,,,,,,,,,,,,,,,,,,,,,,,,,,,,,,,,,,,,,,,,,,,,,,,,,,,,,,,,804.9997392999994,805.5024466999994,805.5024466999994,806.2521441999997,806.2521441999997,806.7547447999996,806.7547447999996,807.5489748999998,807.5489748999998,None,num_4,0.4323573000001488,807.5489748999998,None,happy,1,Happy,807.9960476999998,None,None,807.9960476999998,None,,,,,,,,,,,,,,,,,,,,,,,,,,,,,,,,,,,,,,,,,,,,,,,,,,,,,25,001,1,25,450,500,2022_Oct_19_1041,Experiment,2021.1.4,360.22016657010056,
images\S4_M_S_02.png,images\S4_M_S_02_scrambled.png,4,sad,-20,male,2,,503,off,1,0.5,0.75,0.5,0.914,3,502,2,1,1,0,0,0,0,2,,,,,,0,95,95,95,,,,,,,,,,,,,,,,,,,,,,,,,,,,,,,,,,,,,,,,,,,,,,,,,,,,,,,,,808.0432537999995,808.5458548999995,808.5458548999995,809.2984460999996,809.2984460999996,809.7982515999993,809.7982515999993,810.7146399999992,810.7146399999992,None,num_6,0.7384839000005741,810.7146399999992,None,sad,1,Sad,811.4643979999995,None,None,811.4643979999995,None,,,,,,,,,,,,,,,,,,,,,,,,,,,,,,,,,,,,,,,,,,,,,,,,,,,,,25,001,1,25,450,500,2022_Oct_19_1041,Experiment,2021.1.4,360.22016657010056,
images\S4_M_H_03.png,images\S4_M_H_03_scrambled.png,4,happy,30,male,6,,441,on,2,0.5,0.75,0.5,0.835,3,440,1,2,1,2,2,32,128,166,,,,,,0,96,96,96,,,,,,,,,,,,,,,,,,,,,,,,,,,,,,,,,,,,,,,,,,,,,,,,,,,,,,,,,811.5116239999998,812.0142538,812.0142538,812.7668093999991,812.7668093999991,813.2666214999999,813.2666214999999,814.1080967999997,814.1080967999997,None,num_4,0.5531271999998353,814.1080967999997,None,happy,1,Happy,814.6717678999997,None,None,814.6717678999997,None,,,,,,,,,,,,,,,,,,,,,,,,,,,,,,,,,,,,,,,,,,,,,,,,,,,,,25,001,1,25,450,500,2022_Oct_19_1041,Experiment,2021.1.4,360.22016657010056,
images\S3_F_S_03.png,images\S3_F_S_03_scrambled.png,3,sad,-30,female,1,,378,off,1,0.5,0.75,0.5,0.876,3,377,1,1,1,0,0,0,0,1,,,,,,0,97,97,97,,,,,,,,,,,,,,,,,,,,,,,,,,,,,,,,,,,,,,,,,,,,,,,,,,,,,,,,,814.7189581999992,815.2243709999993,815.2243709999993,815.9768924,815.9768924,816.4767706999992,816.4767706999992,817.3571698999995,817.3571698999995,None,num_6,1.1279080999993312,817.3571698999995,None,sad,1,Sad,818.4956276999995,None,None,818.4956276999995,None,,,,,,,,,,,,,,,,,,,,,,,,,,,,,,,,,,,,,,,,,,,,,,,,,,,,,25,001,1,25,450,500,2022_Oct_19_1041,Experiment,2021.1.4,360.22016657010056,
images\S10_M_H_01.png,images\S10_M_H_01_scrambled.png,10,happy,10,male,4,,175,off,1,0.5,0.75,0.5,0.916,3,174,2,1,1,0,0,0,0,4,,,,,,0,98,98,98,,,,,,,,,,,,,,,,,,,,,,,,,,,,,,,,,,,,,,,,,,,,,,,,,,,,,,,,,818.5427761999999,819.0453947999995,819.0453947999995,819.7979411999995,819.7979411999995,820.3033762999994,820.3033762999994,821.2225546999998,821.2225546999998,None,num_4,0.9826796999996077,821.2225546999998,None,happy,1,Happy,822.2166394,None,None,822.2166394,None,,,,,,,,,,,,,,,,,,,,,,,,,,,,,,,,,,,,,,,,,,,,,,,,,,,,,25,001,1,25,450,500,2022_Oct_19_1041,Experiment,2021.1.4,360.22016657010056,
images\blank.jpg,images\blank.jpg,none,none,none,none,0,,649,on,2,0.5,0.75,0.5,0.814,0,648,1,1,1,3,3,48,192,240,,,,,,0,99,99,99,,,,,,,,,,,,,,,,,,,,,,,,,,,,,,,,,,,,,,,,,,,,,,,,,,,,,,,,,822.3001856999999,822.8025718999997,822.8025718999997,823.5579431999995,823.5579431999995,824.0633269,824.0633269,824.8825546999997,824.8825546999997,824.8825546999997,None,,824.8825546999997,None,miss,1,,827.8843781999997,None,None,827.8843781999997,None,,,,,,,,,,,,,,,,,,,,,,,,,,,,,,,,,,,,,,,,,,,,,,,,,,,,,25,001,1,25,450,500,2022_Oct_19_1041,Experiment,2021.1.4,360.22016657010056,
images\S2_M_H_03.png,images\S2_M_H_03_scrambled.png,2,happy,30,male,6,,129,off,1,0.5,0.75,0.5,0.934,3,128,1,1,1,0,0,0,0,6,,,,,,0,100,100,100,,,,,,,,,,,,,,,,,,,,,,,,,,,,,,,,,,,,,,,,,,,,,,,,,,,,,,,,,828.0011289999993,828.5036216999997,828.5036216999997,829.2589598999994,829.2589598999994,829.7615265999993,829.7615265999993,830.7001391999993,830.7001391999993,None,None,,830.7001391999993,828.0011289999993,miss,1,Happy,833.7019895999994,None,None,833.7019895999994,None,,,,,,,,,,,,,,,,,,,,,,,,,,,,,,,,,,,,,,,,,,,,,,,,,,,,,25,001,1,25,450,500,2022_Oct_19_1041,Experiment,2021.1.4,360.22016657010056,
images\S1_F_S_01.png,images\S1_F_S_01_scrambled.png,1,sad,-10,female,3,,484,off,1,0.5,0.75,0.5,0.846,3,483,2,1,1,0,0,0,0,3,,,,,,0,101,101,101,,,,,,,,,,,,,,,,,,,,,,,,,,,,,,,,,,,,,,,,,,,,,,,,,,,,,,,,,833.7491880999996,834.2546106,834.2546106,835.0098943999992,835.0098943999992,835.5126539999992,835.5126539999992,836.3594874999999,836.3594874999999,833.7491880999996,num_4,0.6616249999997308,836.3594874999999,833.7491880999996,happy,1,Sad,837.0260642999995,None,None,837.0260642999995,None,,,,,,,,,,,,,,,,,,,,,,,,,,,,,,,,,,,,,,,,,,,,,,,,,,,,,25,001,1,25,450,500,2022_Oct_19_1041,Experiment,2021.1.4,360.22016657010056,
images\S4_M_S_03.png,images\S4_M_S_03_scrambled.png,4,sad,-30,male,1,,144,off,1,0.5,0.75,0.5,0.931,3,143,3,1,1,0,0,0,0,1,,,,,,0,102,102,102,,,,,,,,,,,,,,,,,,,,,,,,,,,,,,,,,,,,,,,,,,,,,,,,,,,,,,,,,837.1342520999997,837.6368710999996,837.6368710999996,838.3866374999998,838.3866374999998,838.8864890999994,838.8864890999994,839.8224467999999,839.8224467999999,None,num_6,1.7587093000001914,839.8224467999999,None,sad,1,Sad,841.6106682,None,None,841.6106682,None,,,,,,,,,,,,,,,,,,,,,,,,,,,,,,,,,,,,,,,,,,,,,,,,,,,,,25,001,1,25,450,500,2022_Oct_19_1041,Experiment,2021.1.4,360.22016657010056,
images\S2_M_S_02.png,images\S2_M_S_02_scrambled.png,2,sad,-20,male,2,,311,on,2,0.5,0.75,0.5,0.863,3,310,1,1,1,2,2,32,128,162,,,,,,0,103,103,103,,,,,,,,,,,,,,,,,,,,,,,,,,,,,,,,,,,,,,,,,,,,,,,,,,,,,,,,,841.6634051999999,842.1660290999998,842.1660290999998,842.9158044999995,842.9158044999995,843.4156802999996,843.4156802999996,844.2848400999992,844.2848400999992,None,num_6,0.6405337000005602,844.2848400999992,None,sad,1,Sad,844.9401731999991,None,None,844.9401731999991,None,,,,,,,,,,,,,,,,,,,,,,,,,,,,,,,,,,,,,,,,,,,,,,,,,,,,,25,001,1,25,450,500,2022_Oct_19_1041,Experiment,2021.1.4,360.22016657010056,
images\S5_F_H_01.png,images\S5_F_H_01_scrambled.png,5,happy,10,female,4,,85,on,2,0.5,0.75,0.5,0.897,3,84,2,1,1,2,2,32,128,164,,,,,,0,104,104,104,,,,,,,,,,,,,,,,,,,,,,,,,,,,,,,,,,,,,,,,,,,,,,,,,,,,,,,,,844.9873890999997,845.4900131999993,845.4900131999993,846.2453151,846.2453151,846.7480562999999,846.7480562999999,847.6478061999996,847.6478061999996,None,num_4,0.15756280000005063,847.6478061999996,None,happy,1,Happy,847.8337903999999,None,None,847.8337903999999,None,,,,,,,,,,,,,,,,,,,,,,,,,,,,,,,,,,,,,,,,,,,,,,,,,,,,,25,001,1,25,450,500,2022_Oct_19_1041,Experiment,2021.1.4,360.22016657010056,
images\S4_M_H_03.png,images\S4_M_H_03_scrambled.png,4,happy,30,male,6,,141,off,1,0.5,0.75,0.5,0.905,3,140,1,1,1,0,0,0,0,6,,,,,,0,105,105,105,,,,,,,,,,,,,,,,,,,,,,,,,,,,,,,,,,,,,,,,,,,,,,,,,,,,,,,,,847.8975935999997,848.4002286999994,848.4002286999994,849.1528921999998,849.1528921999998,849.6553979,849.6553979,850.5634962999993,850.5634962999993,None,num_4,0.3696226000001843,850.5634962999993,None,happy,1,Happy,850.9466606,None,None,850.9466606,None,,,,,,,,,,,,,,,,,,,,,,,,,,,,,,,,,,,,,,,,,,,,,,,,,,,,,25,001,1,25,450,500,2022_Oct_19_1041,Experiment,2021.1.4,360.22016657010056,
images\S1_F_S_02.png,images\S1_F_S_02_scrambled.png,1,sad,-20,female,2,,245,off,1,0.5,0.75,0.5,0.869,3,244,2,1,1,0,0,0,0,2,,,,,,0,106,106,106,,,,,,,,,,,,,,,,,,,,,,,,,,,,,,,,,,,,,,,,,,,,,,,,,,,,,,,,,851.0244014,851.5298235999999,851.5298235999999,852.2824824999998,852.2824824999998,852.7822176,852.7822176,853.6541691999992,853.6541691999992,None,num_6,0.5348575999996683,853.6541691999992,None,sad,1,Sad,854.2012092999997,None,None,854.2012092999997,None,,,,,,,,,,,,,,,,,,,,,,,,,,,,,,,,,,,,,,,,,,,,,,,,,,,,,25,001,1,25,450,500,2022_Oct_19_1041,Experiment,2021.1.4,360.22016657010056,
images\S2_M_H_01.png,images\S2_M_H_01_scrambled.png,2,happy,10,male,4,,367,off,1,0.5,0.75,0.5,0.882,3,366,3,1,1,0,0,0,0,4,,,,,,0,107,107,107,,,,,,,,,,,,,,,,,,,,,,,,,,,,,,,,,,,,,,,,,,,,,,,,,,,,,,,,,854.2484069999991,854.7538471999997,854.7538471999997,855.5063842999998,855.5063842999998,856.0061979999991,856.0061979999991,856.8948344999999,856.8948344999999,None,num_4,0.4784415000003719,856.8948344999999,None,happy,1,Happy,857.3835608999992,None,None,857.3835608999992,None,,,,,,,,,,,,,,,,,,,,,,,,,,,,,,,,,,,,,,,,,,,,,,,,,,,,,25,001,1,25,450,500,2022_Oct_19_1041,Experiment,2021.1.4,360.22016657010056,
images\S2_M_S_03.png,images\S2_M_S_03_scrambled.png,2,sad,-30,male,1,,132,off,1,0.5,0.75,0.5,0.817,3,131,4,2,1,0,0,0,0,1,,,,,,0,108,108,108,,,,,,,,,,,,,,,,,,,,,,,,,,,,,,,,,,,,,,,,,,,,,,,,,,,,,,,,,857.4307563999992,857.9361558999999,857.9361558999999,858.6887534999996,858.6887534999996,859.1941344999996,859.1941344999996,860.0105045,860.0105045,None,num_6,0.4988024999993286,860.0105045,None,sad,1,Sad,860.5242613999993,None,None,860.5242613999993,None,,,,,,,,,,,,,,,,,,,,,,,,,,,,,,,,,,,,,,,,,,,,,,,,,,,,,25,001,1,25,450,500,2022_Oct_19_1041,Experiment,2021.1.4,360.22016657010056,
images\S3_F_S_01.png,images\S3_F_S_01_scrambled.png,3,sad,-10,female,3,,76,on,2,0.5,0.75,0.5,0.912,3,75,1,1,1,2,2,32,128,163,,,,,,0,109,109,109,,,,,,,,,,,,,,,,,,,,,,,,,,,,,,,,,,,,,,,,,,,,,,,,,,,,,,,,,860.5714527,861.0741069999995,861.0741069999995,861.8238440999994,861.8238440999994,862.3292739999997,862.3292739999997,863.2484654,863.2484654,None,num_4,0.612688999999591,863.2484654,None,happy,1,Sad,863.8704295,None,None,863.8704295,None,,,,,,,,,,,,,,,,,,,,,,,,,,,,,,,,,,,,,,,,,,,,,,,,,,,,,25,001,1,25,450,500,2022_Oct_19_1041,Experiment,2021.1.4,360.22016657010056,
images\S9_F_H_01.png,images\S9_F_H_01_scrambled.png,9,happy,10,female,4,,229,on,2,0.5,0.75,0.5,0.914,3,228,2,1,1,2,2,32,128,164,,,,,,0,110,110,110,,,,,,,,,,,,,,,,,,,,,,,,,,,,,,,,,,,,,,,,,,,,,,,,,,,,,,,,,863.9509664999996,864.4536401999994,864.4536401999994,865.2089354,865.2089354,865.7115276999994,865.7115276999994,866.6306981999996,866.6306981999996,None,num_6,0.5028402999996615,866.6306981999996,None,sad,1,Happy,867.1390062999992,None,None,867.1390062999992,None,,,,,,,,,,,,,,,,,,,,,,,,,,,,,,,,,,,,,,,,,,,,,,,,,,,,,25,001,1,25,450,500,2022_Oct_19_1041,Experiment,2021.1.4,360.22016657010056,
images\S8_M_S_01.png,images\S8_M_S_01_scrambled.png,8,sad,-10,male,3,,226,on,2,0.5,0.75,0.5,0.941,3,225,3,1,1,2,2,32,128,163,,,,,,0,111,111,111,,,,,,,,,,,,,,,,,,,,,,,,,,,,,,,,,,,,,,,,,,,,,,,,,,,,,,,,,867.1888455999997,867.6914664999995,867.6914664999995,868.4412917,868.4412917,868.9438984999997,868.9438984999997,869.8881321999997,869.8881321999997,None,num_6,0.49290019999989454,869.8881321999997,None,sad,1,Sad,870.3961881999998,None,None,870.3961881999998,None,,,,,,,,,,,,,,,,,,,,,,,,,,,,,,,,,,,,,,,,,,,,,,,,,,,,,25,001,1,25,450,500,2022_Oct_19_1041,Experiment,2021.1.4,360.22016657010056,
images\S4_M_S_01.png,images\S4_M_S_01_scrambled.png,4,sad,-10,male,3,,322,on,2,0.5,0.75,0.5,0.862,3,321,4,1,2,2,2,32,128,163,,,,,,0,112,112,112,,,,,,,,,,,,,,,,,,,,,,,,,,,,,,,,,,,,,,,,,,,,,,,,,,,,,,,,,870.4433966999995,870.9488331999992,870.9488331999992,871.6985692999997,871.6985692999997,872.2039995999994,872.2039995999994,873.0703799999992,873.0703799999992,None,num_6,0.7509149999996225,873.0703799999992,None,sad,1,Sad,873.8340445999996,None,None,873.8340445999996,None,,,,,,,,,,,,,,,,,,,,,,,,,,,,,,,,,,,,,,,,,,,,,,,,,,,,,25,001,1,25,450,500,2022_Oct_19_1041,Experiment,2021.1.4,360.22016657010056,
images\blank.jpg,images\blank.jpg,none,none,none,none,0,,619,on,2,0.5,0.75,0.5,0.922,0,618,5,1,1,3,3,48,192,240,,,,,,0,113,113,113,,,,,,,,,,,,,,,,,,,,,,,,,,,,,,,,,,,,,,,,,,,,,,,,,,,,,,,,,873.9175771999999,874.4171628999993,874.4171628999993,875.1697498999993,875.1697498999993,875.6723324999994,875.6723324999994,876.5970884999997,876.5970884999997,876.5970884999997,None,,876.5970884999997,None,miss,1,,879.5989472999993,None,None,879.5989472999993,None,,,,,,,,,,,,,,,,,,,,,,,,,,,,,,,,,,,,,,,,,,,,,,,,,,,,,25,001,1,25,450,500,2022_Oct_19_1041,Experiment,2021.1.4,360.22016657010056,
images\S5_F_H_02.png,images\S5_F_H_02_scrambled.png,5,happy,20,female,5,,206,on,2,0.5,0.75,0.5,0.786,3,205,6,1,1,2,2,32,128,165,,,,,,0,114,114,114,,,,,,,,,,,,,,,,,,,,,,,,,,,,,,,,,,,,,,,,,,,,,,,,,,,,,,,,,879.7157842999995,880.2209467999992,880.2209467999992,880.9736094,880.9736094,881.4789745999997,881.4789745999997,882.2675168999995,882.2675168999995,None,num_4,0.3614887000003364,882.2675168999995,879.7157842999995,happy,1,Happy,882.6451990999999,None,None,882.6451990999999,None,,,,,,,,,,,,,,,,,,,,,,,,,,,,,,,,,,,,,,,,,,,,,,,,,,,,,25,001,1,25,450,500,2022_Oct_19_1041,Experiment,2021.1.4,360.22016657010056,
images\S8_M_H_01.png,images\S8_M_H_01_scrambled.png,8,happy,10,male,4,,523,off,1,0.5,0.75,0.5,0.814,3,522,1,1,1,0,0,0,0,4,,,,,,0,115,115,115,,,,,,,,,,,,,,,,,,,,,,,,,,,,,,,,,,,,,,,,,,,,,,,,,,,,,,,,,882.6923853999997,883.1950099999995,883.1950099999995,883.9503591999992,883.9503591999992,884.4502155,884.4502155,885.2694165999992,885.2694165999992,None,num_6,0.8956005999998524,885.2694165999992,None,sad,1,Happy,886.1774283999996,None,None,886.1774283999996,None,,,,,,,,,,,,,,,,,,,,,,,,,,,,,,,,,,,,,,,,,,,,,,,,,,,,,25,001,1,25,450,500,2022_Oct_19_1041,Experiment,2021.1.4,360.22016657010056,
images\S8_M_H_01.png,images\S8_M_H_01_scrambled.png,8,happy,10,male,4,,43,off,1,0.5,0.75,0.5,0.837,3,42,2,2,2,0,0,0,0,4,,,,,,0,116,116,116,,,,,,,,,,,,,,,,,,,,,,,,,,,,,,,,,,,,,,,,,,,,,,,,,,,,,,,,,886.2246296999992,886.7300657999995,886.7300657999995,887.4853744999991,887.4853744999991,887.9907828999994,887.9907828999994,888.8349635999994,888.8349635999994,None,num_6,0.6418782999999166,888.8349635999994,None,sad,1,Happy,889.4847524999999,None,None,889.4847524999999,None,,,,,,,,,,,,,,,,,,,,,,,,,,,,,,,,,,,,,,,,,,,,,,,,,,,,,25,001,1,25,450,500,2022_Oct_19_1041,Experiment,2021.1.4,360.22016657010056,
images\S2_M_S_01.png,images\S2_M_S_01_scrambled.png,2,sad,-10,male,3,,310,on,2,0.5,0.75,0.5,0.852,3,309,1,1,1,2,2,32,128,163,,,,,,0,117,117,117,,,,,,,,,,,,,,,,,,,,,,,,,,,,,,,,,,,,,,,,,,,,,,,,,,,,,,,,,889.5541537999998,890.0540168999996,890.0540168999996,890.8093786999998,890.8093786999998,891.3147876999992,891.3147876999992,892.1672329999992,892.1672329999992,None,num_6,0.5820019000002503,892.1672329999992,None,sad,1,Sad,892.7587400999995,None,None,892.7587400999995,None,,,,,,,,,,,,,,,,,,,,,,,,,,,,,,,,,,,,,,,,,,,,,,,,,,,,,25,001,1,25,450,500,2022_Oct_19_1041,Experiment,2021.1.4,360.22016657010056,
images\S1_F_S_02.png,images\S1_F_S_02_scrambled.png,1,sad,-20,female,2,,5,off,1,0.5,0.75,0.5,0.779,3,4,1,1,1,0,0,0,0,2,,,,,,0,118,118,118,,,,,,,,,,,,,,,,,,,,,,,,,,,,,,,,,,,,,,,,,,,,,,,,,,,,,,,,,892.8059286999996,893.3113450999999,893.3113450999999,894.0640065999996,894.0640065999996,894.5693347999995,894.5693347999995,895.3551650999998,895.3551650999998,None,num_4,0.5061247000003277,895.3551650999998,None,happy,1,Sad,895.8716496999998,None,None,895.8716496999998,None,,,,,,,,,,,,,,,,,,,,,,,,,,,,,,,,,,,,,,,,,,,,,,,,,,,,,25,001,1,25,450,500,2022_Oct_19_1041,Experiment,2021.1.4,360.22016657010056,
images\S1_F_H_01.png,images\S1_F_H_01_scrambled.png,1,happy,10,female,4,,421,on,2,0.5,0.75,0.5,0.85,3,420,1,2,1,2,2,32,128,164,,,,,,0,119,119,119,,,,,,,,,,,,,,,,,,,,,,,,,,,,,,,,,,,,,,,,,,,,,,,,,,,,,,,,,895.9549583999997,896.4603885999995,896.4603885999995,897.2101192999999,897.2101192999999,897.7127696999996,897.7127696999996,898.5653020999998,898.5653020999998,None,num_6,0.21586050000041723,898.5653020999998,None,sad,1,Happy,898.7901895999996,None,None,898.7901895999996,None,,,,,,,,,,,,,,,,,,,,,,,,,,,,,,,,,,,,,,,,,,,,,,,,,,,,,25,001,1,25,450,500,2022_Oct_19_1041,Experiment,2021.1.4,360.22016657010056,
images\blank.jpg,images\blank.jpg,none,none,none,none,0,,644,on,2,0.5,0.75,0.5,0.8,0,643,2,1,1,3,3,48,192,240,,,,,,0,120,120,120,,,,,,,,,,,,,,,,,,,,,,,,,,,,,,,,,,,,,,,,,,,,,,,,,,,,,,,,,898.8708983999995,899.3733411999992,899.3733411999992,900.1231070999993,900.1231070999993,900.6257261999999,900.6257261999999,901.4282595999994,901.4282595999994,901.4282595999994,None,,901.4282595999994,None,miss,1,,904.4329169999994,None,None,904.4329169999994,None,,,,,,,,,,,,,,,,,,,,,,,,,,,,,,,,,,,,,,,,,,,,,,,,,,,,,25,001,1,25,450,500,2022_Oct_19_1041,Experiment,2021.1.4,360.22016657010056,
images\S6_M_S_01.png,images\S6_M_S_01_scrambled.png,6,sad,-10,male,3,,94,on,2,0.5,0.75,0.5,0.947,3,93,3,1,1,2,2,32,128,163,,,,,,0,121,121,121,,,,,,,,,,,,,,,,,,,,,,,,,,,,,,,,,,,,,,,,,,,,,,,,,,,,,,,,,904.5413593999992,905.0465965999992,905.0465965999992,905.7991521999993,905.7991521999993,906.3045729999994,906.3045729999994,907.2543253999993,907.2543253999993,None,num_6,0.5429394999991928,907.2543253999993,904.5413593999992,sad,1,Sad,907.8124104999991,None,None,907.8124104999991,None,,,,,,,,,,,,,,,,,,,,,,,,,,,,,,,,,,,,,,,,,,,,,,,,,,,,,25,001,1,25,450,500,2022_Oct_19_1041,Experiment,2021.1.4,360.22016657010056,
images\S8_M_S_02.png,images\S8_M_S_02_scrambled.png,8,sad,-20,male,2,,227,on,2,0.5,0.75,0.5,0.847,3,226,4,1,1,2,2,32,128,162,,,,,,0,122,122,122,,,,,,,,,,,,,,,,,,,,,,,,,,,,,,,,,,,,,,,,,,,,,,,,,,,,,,,,,907.8929375999996,908.3955840999997,908.3955840999997,909.1480972999998,909.1480972999998,909.6479452999993,909.6479452999993,910.5004849999996,910.5004849999996,None,num_6,0.712601100000029,910.5004849999996,None,sad,1,Sad,911.2307940999993,None,None,911.2307940999993,None,,,,,,,,,,,,,,,,,,,,,,,,,,,,,,,,,,,,,,,,,,,,,,,,,,,,,25,001,1,25,450,500,2022_Oct_19_1041,Experiment,2021.1.4,360.22016657010056,
images\S5_F_H_03.png,images\S5_F_H_03_scrambled.png,5,happy,30,female,6,,147,off,1,0.5,0.75,0.5,0.861,3,146,1,1,1,0,0,0,0,6,,,,,,0,123,123,123,,,,,,,,,,,,,,,,,,,,,,,,,,,,,,,,,,,,,,,,,,,,,,,,,,,,,,,,,911.3113206999997,911.8111638999999,911.8111638999999,912.5638552999999,912.5638552999999,913.0692193999994,913.0692193999994,913.9355341999999,913.9355341999999,None,num_4,0.4053382000001875,913.9355341999999,None,happy,1,Happy,914.3548437999992,None,None,914.3548437999992,None,,,,,,,,,,,,,,,,,,,,,,,,,,,,,,,,,,,,,,,,,,,,,,,,,,,,,25,001,1,25,450,500,2022_Oct_19_1041,Experiment,2021.1.4,360.22016657010056,
images\S6_M_S_02.png,images\S6_M_S_02_scrambled.png,6,sad,-20,male,2,,455,on,2,0.5,0.75,0.5,0.751,3,454,1,1,1,2,2,32,128,162,,,,,,0,124,124,124,,,,,,,,,,,,,,,,,,,,,,,,,,,,,,,,,,,,,,,,,,,,,,,,,,,,,,,,,914.4020422999993,914.9046971999996,914.9046971999996,915.6572425999993,915.6572425999993,916.1570416999994,916.1570416999994,916.9151856999997,916.9151856999997,None,num_6,0.5938480999993772,916.9151856999997,None,sad,1,Sad,917.5232895999992,None,None,917.5232895999992,None,,,,,,,,,,,,,,,,,,,,,,,,,,,,,,,,,,,,,,,,,,,,,,,,,,,,,25,001,1,25,450,500,2022_Oct_19_1041,Experiment,2021.1.4,360.22016657010056,
images\S1_F_H_02.png,images\S1_F_H_02_scrambled.png,1,happy,20,female,5,,422,on,2,0.5,0.75,0.5,0.879,3,421,2,1,1,2,2,32,128,165,,,,,,0,125,125,125,,,,,,,,,,,,,,,,,,,,,,,,,,,,,,,,,,,,,,,,,,,,,,,,,,,,,,,,,917.6038276999998,918.1036647999999,918.1036647999999,918.8562301999991,918.8562301999991,919.3616379999994,919.3616379999994,920.2474612999995,920.2474612999995,None,num_4,0.31005760000061855,920.2474612999995,None,happy,1,Happy,920.5723524999997,None,None,920.5723524999997,None,,,,,,,,,,,,,,,,,,,,,,,,,,,,,,,,,,,,,,,,,,,,,,,,,,,,,25,001,1,25,450,500,2022_Oct_19_1041,Experiment,2021.1.4,360.22016657010056,
images\S3_F_H_01.png,images\S3_F_H_01_scrambled.png,3,happy,10,female,4,,253,off,1,0.5,0.75,0.5,0.776,3,252,1,1,1,0,0,0,0,4,,,,,,0,126,126,126,,,,,,,,,,,,,,,,,,,,,,,,,,,,,,,,,,,,,,,,,,,,,,,,,,,,,,,,,920.6278561999998,921.1277410999992,921.1277410999992,921.8803357999996,921.8803357999996,922.3857076999993,922.3857076999993,923.1660284,923.1660284,None,num_6,1.0307998999996926,923.1660284,None,sad,1,Happy,924.2017884999998,None,None,924.2017884999998,None,,,,,,,,,,,,,,,,,,,,,,,,,,,,,,,,,,,,,,,,,,,,,,,,,,,,,25,001,1,25,450,500,2022_Oct_19_1041,Experiment,2021.1.4,360.22016657010056,
images\S6_M_H_01.png,images\S6_M_H_01_scrambled.png,6,happy,10,male,4,,331,on,2,0.5,0.75,0.5,0.791,3,330,1,1,2,2,2,32,128,164,,,,,,0,127,127,127,,,,,,,,,,,,,,,,,,,,,,,,,,,,,,,,,,,,,,,,,,,,,,,,,,,,,,,,,924.2518131999996,924.7545046999994,924.7545046999994,925.5069457,925.5069457,926.0123458999997,926.0123458999997,926.8065578999995,926.8065578999995,None,num_6,0.7023953999996593,926.8065578999995,None,sad,1,Happy,927.5146633999996,None,None,927.5146633999996,None,,,,,,,,,,,,,,,,,,,,,,,,,,,,,,,,,,,,,,,,,,,,,,,,,,,,,25,001,1,25,450,500,2022_Oct_19_1041,Experiment,2021.1.4,360.22016657010056,
images\S2_M_H_02.png,images\S2_M_H_02_scrambled.png,2,happy,20,male,5,,488,off,1,0.5,0.75,0.5,0.94,3,487,1,1,1,0,0,0,0,5,,,,,,0,128,128,128,,,,,,,,,,,,,,,,,,,,,,,,,,,,,,,,,,,,,,,,,,,,,,,,,,,,,,,,,927.6257226999996,928.1311197999994,928.1311197999994,928.8808880999995,928.8808880999995,929.3863077999995,929.3863077999995,930.3304978999995,930.3304978999995,None,num_4,0.29059659999984433,930.3304978999995,None,happy,1,Happy,930.6359299999998,None,None,930.6359299999998,None,,,,,,,,,,,,,,,,,,,,,,,,,,,,,,,,,,,,,,,,,,,,,,,,,,,,,25,001,1,25,450,500,2022_Oct_19_1041,Experiment,2021.1.4,360.22016657010056,
images\S4_M_S_01.png,images\S4_M_S_01_scrambled.png,4,sad,-10,male,3,,262,off,1,0.5,0.75,0.5,0.908,3,261,2,1,1,0,0,0,0,3,,,,,,0,129,129,129,,,,,,,,,,,,,,,,,,,,,,,,,,,,,,,,,,,,,,,,,,,,,,,,,,,,,,,,,930.6858910999999,931.1885038999999,931.1885038999999,931.9410902999998,931.9410902999998,932.4436683999993,932.4436683999993,933.3546397,933.3546397,None,num_6,0.4584095000000161,933.3546397,None,sad,1,Sad,933.8405413999998,None,None,933.8405413999998,None,,,,,,,,,,,,,,,,,,,,,,,,,,,,,,,,,,,,,,,,,,,,,,,,,,,,,25,001,1,25,450,500,2022_Oct_19_1041,Experiment,2021.1.4,360.22016657010056,
images\blank.jpg,images\blank.jpg,none,none,none,none,0,,628,on,2,0.5,0.75,0.5,0.911,0,627,1,1,1,3,3,48,192,240,,,,,,0,130,130,130,,,,,,,,,,,,,,,,,,,,,,,,,,,,,,,,,,,,,,,,,,,,,,,,,,,,,,,,,933.9267911999996,934.4319639999994,934.4319639999994,935.1846163,935.1846163,935.6871348999994,935.6871348999994,936.598,936.598,936.598,None,,936.598,None,miss,1,,939.6026085999993,None,space,939.6026085999993,None,128.16963679999935,,,,,,,,,,,,,,,,,,,,,,,,,,,,,,,,,,,,,,,,,,,,,,,,,,,,25,001,1,25,450,500,2022_Oct_19_1041,Experiment,2021.1.4,360.22016657010056,
images\S10_M_S_02.png,images\S10_M_S_02_scrambled.png,10,sad,-20,male,2,,479,on,2,0.5,0.75,0.5,0.799,3,478,2,1,1,2,2,32,128,162,,,,,,0,131,131,131,,,,,,,,,,,,,,,,,,,,,,,,,,,,,,,,,,,,,,,,,,,,,,,,,,,,,,,,,1067.8881518999997,1068.3905704,1068.3905704,1069.1432140999996,1069.1432140999996,1069.6486194,1069.6486194,1070.4482475999994,1070.4482475999994,None,num_6,0.8769567999997889,1070.4482475999994,None,sad,1,Sad,1071.339637799999,None,None,1071.339637799999,None,,,,,,,,,,,,,,,,,,,,,,,,,,,,,,,,,,,,,,,,,,,,,,,,,,,,,25,001,1,25,450,500,2022_Oct_19_1041,Experiment,2021.1.4,360.22016657010056,
images\S9_F_S_03.png,images\S9_F_S_03_scrambled.png,9,sad,-30,female,1,,474,on,2,0.5,0.75,0.5,0.809,3,473,3,1,1,2,2,32,128,161,,,,,,0,132,132,132,,,,,,,,,,,,,,,,,,,,,,,,,,,,,,,,,,,,,,,,,,,,,,,,,,,,,,,,,1071.3896247999992,1071.8950361999996,1071.8950361999996,1072.6475580999995,1072.6475580999995,1073.1474446999991,1073.1474446999991,1073.9584057999991,1073.9584057999991,None,num_6,0.41427289999955974,1073.9584057999991,None,sad,1,Sad,1074.3831569999995,None,None,1074.3831569999995,None,,,,,,,,,,,,,,,,,,,,,,,,,,,,,,,,,,,,,,,,,,,,,,,,,,,,,25,001,1,25,450,500,2022_Oct_19_1041,Experiment,2021.1.4,360.22016657010056,
images\S3_F_H_02.png,images\S3_F_H_02_scrambled.png,3,happy,20,female,5,,434,on,2,0.5,0.75,0.5,0.897,3,433,4,1,1,2,2,32,128,165,,,,,,0,133,133,133,,,,,,,,,,,,,,,,,,,,,,,,,,,,,,,,,,,,,,,,,,,,,,,,,,,,,,,,,1074.4303569999993,1074.9302023999999,1074.9302023999999,1075.6827753999996,1075.6827753999996,1076.1853456,1076.1853456,1077.0879851,1077.0879851,None,num_4,0.109022399999958,1077.0879851,None,happy,1,Happy,1077.2100453999994,None,None,1077.2100453999994,None,,,,,,,,,,,,,,,,,,,,,,,,,,,,,,,,,,,,,,,,,,,,,,,,,,,,,25,001,1,25,450,500,2022_Oct_19_1041,Experiment,2021.1.4,360.22016657010056,
images\S1_F_S_02.png,images\S1_F_S_02_scrambled.png,1,sad,-20,female,2,,125,off,1,0.5,0.75,0.5,0.822,3,124,1,1,1,0,0,0,0,2,,,,,,0,134,134,134,,,,,,,,,,,,,,,,,,,,,,,,,,,,,,,,,,,,,,,,,,,,,,,,,,,,,,,,,1077.2572521999991,1077.7570864,1077.7570864,1078.5096673999997,1078.5096673999997,1079.0122524999997,1079.0122524999997,1079.8342297999998,1079.8342297999998,None,num_4,0.8345873999996911,1079.8342297999998,None,happy,1,Sad,1080.6811892999995,None,None,1080.6811892999995,None,,,,,,,,,,,,,,,,,,,,,,,,,,,,,,,,,,,,,,,,,,,,,,,,,,,,,25,001,1,25,450,500,2022_Oct_19_1041,Experiment,2021.1.4,360.22016657010056,
images\S7_F_S_01.png,images\S7_F_S_01_scrambled.png,7,sad,-10,female,3,,340,on,2,0.5,0.75,0.5,0.923,3,339,1,1,1,2,2,32,128,163,,,,,,0,135,135,135,,,,,,,,,,,,,,,,,,,,,,,,,,,,,,,,,,,,,,,,,,,,,,,,,,,,,,,,,1080.7617211999996,1081.2643871,1081.2643871,1082.0196968999999,1082.0196968999999,1082.5222811999993,1082.5222811999993,1083.4498205,1083.4498205,None,num_6,0.1469217000003482,1083.4498205,None,sad,1,Sad,1083.6081224999991,None,None,1083.6081224999991,None,,,,,,,,,,,,,,,,,,,,,,,,,,,,,,,,,,,,,,,,,,,,,,,,,,,,,25,001,1,25,450,500,2022_Oct_19_1041,Experiment,2021.1.4,360.22016657010056,
images\S5_F_S_01.png,images\S5_F_S_01_scrambled.png,5,sad,-10,female,3,,568,on,2,0.5,0.75,0.5,0.801,3,567,2,1,2,2,2,32,128,163,,,,,,0,136,136,136,,,,,,,,,,,,,,,,,,,,,,,,,,,,,,,,,,,,,,,,,,,,,,,,,,,,,,,,,1083.7219149999992,1084.2217572,1084.2217572,1084.9770876999992,1084.9770876999992,1085.4769305,1085.4769305,1086.2850524999994,1086.2850524999994,None,num_4,0.3838020000002871,1086.2850524999994,None,happy,1,Sad,1086.6793327999994,None,None,1086.6793327999994,None,,,,,,,,,,,,,,,,,,,,,,,,,,,,,,,,,,,,,,,,,,,,,,,,,,,,,25,001,1,25,450,500,2022_Oct_19_1041,Experiment,2021.1.4,360.22016657010056,
images\S1_F_S_03.png,images\S1_F_S_03_scrambled.png,1,sad,-30,female,1,,486,off,1,0.5,0.75,0.5,0.875,3,485,1,1,1,0,0,0,0,1,,,,,,0,137,137,137,,,,,,,,,,,,,,,,,,,,,,,,,,,,,,,,,,,,,,,,,,,,,,,,,,,,,,,,,1086.7265451999992,1087.2291947999993,1087.2291947999993,1087.978948,1087.978948,1088.4843754999993,1088.4843754999993,1089.3646412999997,1089.3646412999997,None,num_6,0.5762264999993931,1089.3646412999997,None,sad,1,Sad,1089.964436599999,None,None,1089.964436599999,None,,,,,,,,,,,,,,,,,,,,,,,,,,,,,,,,,,,,,,,,,,,,,,,,,,,,,25,001,1,25,450,500,2022_Oct_19_1041,Experiment,2021.1.4,360.22016657010056,
images\S1_F_S_01.png,images\S1_F_S_01_scrambled.png,1,sad,-10,female,3,,64,on,2,0.5,0.75,0.5,0.879,3,63,1,2,1,2,2,32,128,163,,,,,,0,138,138,138,,,,,,,,,,,,,,,,,,,,,,,,,,,,,,,,,,,,,,,,,,,,,,,,,,,,,,,,,1090.0283014999995,1090.5309398,1090.5309398,1091.2834625999994,1091.2834625999994,1091.7889526,1091.7889526,1092.6747412999994,1092.6747412999994,None,num_4,1.0901303000000553,1092.6747412999994,None,happy,1,Sad,1093.7743588999992,None,None,1093.7743588999992,None,,,,,,,,,,,,,,,,,,,,,,,,,,,,,,,,,,,,,,,,,,,,,,,,,,,,,25,001,1,25,450,500,2022_Oct_19_1041,Experiment,2021.1.4,360.22016657010056,
images\S5_F_S_02.png,images\S5_F_S_02_scrambled.png,5,sad,-20,female,2,,449,on,2,0.5,0.75,0.5,0.785,3,448,2,1,1,2,2,32,128,162,,,,,,0,139,139,139,,,,,,,,,,,,,,,,,,,,,,,,,,,,,,,,,,,,,,,,,,,,,,,,,,,,,,,,,1093.8215744,1094.3242501999994,1094.3242501999994,1095.0739875999998,1095.0739875999998,1095.5794005999996,1095.5794005999996,1096.3708007999994,1096.3708007999994,None,num_6,0.6263361999999688,1096.3708007999994,None,sad,1,Sad,1097.012257999999,None,None,1097.012257999999,None,,,,,,,,,,,,,,,,,,,,,,,,,,,,,,,,,,,,,,,,,,,,,,,,,,,,,25,001,1,25,450,500,2022_Oct_19_1041,Experiment,2021.1.4,360.22016657010056,
images\S5_F_S_01.png,images\S5_F_S_01_scrambled.png,5,sad,-10,female,3,,448,on,2,0.5,0.75,0.5,0.817,3,447,3,2,1,2,2,32,128,163,,,,,,0,140,140,140,,,,,,,,,,,,,,,,,,,,,,,,,,,,,,,,,,,,,,,,,,,,,,,,,,,,,,,,,1097.0594609999998,1097.5648979999996,1097.5648979999996,1098.3146210999994,1098.3146210999994,1098.8172785999996,1098.8172785999996,1099.6392415,1099.6392415,None,num_4,0.5254129999993893,1099.6392415,None,happy,1,Sad,1100.1696310999996,None,None,1100.1696310999996,None,,,,,,,,,,,,,,,,,,,,,,,,,,,,,,,,,,,,,,,,,,,,,,,,,,,,,25,001,1,25,450,500,2022_Oct_19_1041,Experiment,2021.1.4,360.22016657010056,
