image_face,image_scram,avatar,emo,emotion,sex,trigeeg,dac,trial_no,NMES,stimtime,baseline,iti,face,scr_face,resp_time,index,count_NMES,count_avatar,count_emotion,dac1,dac2,dac1_output,dac2_output,trigs_out,nmes,practice_trials.thisRepN,practice_trials.thisTrialN,practice_trials.thisN,practice_trials.thisIndex,real_trials.thisRepN,real_trials.thisTrialN,real_trials.thisN,real_trials.thisIndex,trials.thisRepN,trials.thisTrialN,trials.thisN,trials.thisIndex,position,Welcome.started,Welcome.stopped,Welcome_resp.keys,Welcome_resp.rt,text_2.started,text_2.stopped,form_2.index,form_2.itemText,form_2.type,form_2.response,form_2.rt,key_resp_4.keys,key_resp_4.rt,key_resp_4.started,key_resp_4.stopped,instructions.started,instructions.stopped,end_instr.keys,end_instr.rt,instructions_2.started,instructions_2.stopped,end_instr_2.keys,end_instr_2.rt,end_instr_2.started,end_instr_2.stopped,instruct_keypress.started,instruct_keypress.stopped,end_instruct_keypress.keys,end_instruct_keypress.rt,start_practice.started,start_practice.stopped,start_practice_resp.keys,start_practice_resp.rt,prac_baseline.started,prac_baseline.stopped,prac_iti.started,prac_iti.stopped,prac_stimulus.started,prac_stimulus.stopped,prac_scram_stim.started,prac_scram_stim.stopped,prac_stimulus_resp.started,prac_stimulus_resp.stopped,prac_resp.keys,prac_resp.rt,prac_resp.started,prac_resp.stopped,transition_to_real.started,transition_to_real.stopped,end_transition_to_real.keys,end_transition_to_real.rt,fixation_cross.started,fixation_cross.stopped,tr_iti.started,tr_iti.stopped,stimulus.started,stimulus.stopped,scram_stim.started,scram_stim.stopped,response_txt.started,response_txt.stopped,response.keys,response.rt,response.started,response.stopped,participant_Resp,grouping,corAnswer,break_msg.started,break_msg.stopped,end_break.keys,end_break.started,end_break.stopped,end_break.rt,text.started,text.stopped,key_resp_3.keys,key_resp_3.rt,key_resp_3.started,key_resp_3.stopped,fix_cross_comf.started,fix_cross_comf.stopped,stimulation_comf.started,stimulation_comf.stopped,rate_instr.started,rate_instr.stopped,comfort_rating.response,comfort_rating.rt,comfort_rating.started,comfort_rating.stopped,resp_form.keys,resp_form.rt,resp_form.started,resp_form.stopped,survey_instructions.started,survey_instructions.stopped,key_resp_2.keys,key_resp_2.rt,key_resp_2.started,key_resp_2.stopped,form.index,form.itemText,form.type,form.response,form.rt,key_resp.keys,key_resp.rt,key_resp.started,key_resp.stopped,text_3.started,text_3.stopped,rate_smile.response,rate_smile.rt,rate_smile.started,rate_smile.stopped,key_resp_5.keys,key_resp_5.rt,key_resp_5.started,key_resp_5.stopped,end_msg.started,end_msg.stopped,end_resp.keys,end_resp.rt,end_resp.started,end_resp.stopped,participant,session,gender,age,LEFT,RIGHT,date,expName,psychopyVersion,frameRate,
,,,,,,,,,,,,,,,,,,,,,,,,,,,,,,,,,,,,,,S-H,40.71962639999401,None,num_add,3.6935506999870995,,,,,,,,,,,,,,,,,,,,,,,,,,,,,,,,,,,,,,,,,,,,,,,,,,,,,,,,,,,,,,,,,,,,,,,,,,,,,,,,,,,,,,,,,,,,,,,,,,,,,,,,,,,,,,,,,,,,,,,,,,26,001,0,21,350,425,2022_Oct_20_1524,Experiment,2021.1.4,360.2383337769894,
,,,,,,,,,,,,,,,,,,,,,,,,,,,,,,,,,,,,,,,,,,,44.426819399988744,46.49007739999797,1,"This scale consistes of a number of words that describe different feelings and emotion. Read each item and then list the number from the scale below each word. Indicate (by clicking) to what extend you feel this way RIGHT NOW, that is, AT THE PRESENT MOMENT.",description,,,,,,,,,,,,,,,,,,,,,,,,,,,,,,,,,,,,,,,,,,,,,,,,,,,,,,,,,,,,,,,,,,,,,,,,,,,,,,,,,,,,,,,,,,,,,,,,,,,,,,,,,,,,,,,,,,,,,26,001,0,21,350,425,2022_Oct_20_1524,Experiment,2021.1.4,360.2383337769894,
,,,,,,,,,,,,,,,,,,,,,,,,,,,,,,,,,,,,,,,,,,,,,2,Interested,rating,5.0,18.86551619999227,,,,,,,,,,,,,,,,,,,,,,,,,,,,,,,,,,,,,,,,,,,,,,,,,,,,,,,,,,,,,,,,,,,,,,,,,,,,,,,,,,,,,,,,,,,,,,,,,,,,,,,,,,,,,,,,,,,26,001,0,21,350,425,2022_Oct_20_1524,Experiment,2021.1.4,360.2383337769894,
,,,,,,,,,,,,,,,,,,,,,,,,,,,,,,,,,,,,,,,,,,,,,3,Distressed,rating,1.0,21.006662300002063,,,,,,,,,,,,,,,,,,,,,,,,,,,,,,,,,,,,,,,,,,,,,,,,,,,,,,,,,,,,,,,,,,,,,,,,,,,,,,,,,,,,,,,,,,,,,,,,,,,,,,,,,,,,,,,,,,,26,001,0,21,350,425,2022_Oct_20_1524,Experiment,2021.1.4,360.2383337769894,
,,,,,,,,,,,,,,,,,,,,,,,,,,,,,,,,,,,,,,,,,,,,,4,Excited,rating,4.0,25.039911400002893,,,,,,,,,,,,,,,,,,,,,,,,,,,,,,,,,,,,,,,,,,,,,,,,,,,,,,,,,,,,,,,,,,,,,,,,,,,,,,,,,,,,,,,,,,,,,,,,,,,,,,,,,,,,,,,,,,,26,001,0,21,350,425,2022_Oct_20_1524,Experiment,2021.1.4,360.2383337769894,
,,,,,,,,,,,,,,,,,,,,,,,,,,,,,,,,,,,,,,,,,,,,,5,Upset,rating,None,None,,,,,,,,,,,,,,,,,,,,,,,,,,,,,,,,,,,,,,,,,,,,,,,,,,,,,,,,,,,,,,,,,,,,,,,,,,,,,,,,,,,,,,,,,,,,,,,,,,,,,,,,,,,,,,,,,,,26,001,0,21,350,425,2022_Oct_20_1524,Experiment,2021.1.4,360.2383337769894,
,,,,,,,,,,,,,,,,,,,,,,,,,,,,,,,,,,,,,,,,,,,,,6,Strong,rating,None,None,,,,,,,,,,,,,,,,,,,,,,,,,,,,,,,,,,,,,,,,,,,,,,,,,,,,,,,,,,,,,,,,,,,,,,,,,,,,,,,,,,,,,,,,,,,,,,,,,,,,,,,,,,,,,,,,,,,26,001,0,21,350,425,2022_Oct_20_1524,Experiment,2021.1.4,360.2383337769894,
,,,,,,,,,,,,,,,,,,,,,,,,,,,,,,,,,,,,,,,,,,,,,7,Guilty,rating,None,None,,,,,,,,,,,,,,,,,,,,,,,,,,,,,,,,,,,,,,,,,,,,,,,,,,,,,,,,,,,,,,,,,,,,,,,,,,,,,,,,,,,,,,,,,,,,,,,,,,,,,,,,,,,,,,,,,,,26,001,0,21,350,425,2022_Oct_20_1524,Experiment,2021.1.4,360.2383337769894,
,,,,,,,,,,,,,,,,,,,,,,,,,,,,,,,,,,,,,,,,,,,,,8,Scared,rating,None,None,,,,,,,,,,,,,,,,,,,,,,,,,,,,,,,,,,,,,,,,,,,,,,,,,,,,,,,,,,,,,,,,,,,,,,,,,,,,,,,,,,,,,,,,,,,,,,,,,,,,,,,,,,,,,,,,,,,26,001,0,21,350,425,2022_Oct_20_1524,Experiment,2021.1.4,360.2383337769894,
,,,,,,,,,,,,,,,,,,,,,,,,,,,,,,,,,,,,,,,,,,,,,9,Hostile,rating,None,None,,,,,,,,,,,,,,,,,,,,,,,,,,,,,,,,,,,,,,,,,,,,,,,,,,,,,,,,,,,,,,,,,,,,,,,,,,,,,,,,,,,,,,,,,,,,,,,,,,,,,,,,,,,,,,,,,,,26,001,0,21,350,425,2022_Oct_20_1524,Experiment,2021.1.4,360.2383337769894,
,,,,,,,,,,,,,,,,,,,,,,,,,,,,,,,,,,,,,,,,,,,,,10,Enthusiastic,rating,None,None,,,,,,,,,,,,,,,,,,,,,,,,,,,,,,,,,,,,,,,,,,,,,,,,,,,,,,,,,,,,,,,,,,,,,,,,,,,,,,,,,,,,,,,,,,,,,,,,,,,,,,,,,,,,,,,,,,,26,001,0,21,350,425,2022_Oct_20_1524,Experiment,2021.1.4,360.2383337769894,
,,,,,,,,,,,,,,,,,,,,,,,,,,,,,,,,,,,,,,,,,,,,,11,Proud,rating,None,None,,,,,,,,,,,,,,,,,,,,,,,,,,,,,,,,,,,,,,,,,,,,,,,,,,,,,,,,,,,,,,,,,,,,,,,,,,,,,,,,,,,,,,,,,,,,,,,,,,,,,,,,,,,,,,,,,,,26,001,0,21,350,425,2022_Oct_20_1524,Experiment,2021.1.4,360.2383337769894,
,,,,,,,,,,,,,,,,,,,,,,,,,,,,,,,,,,,,,,,,,,,,,12,Irritable,rating,None,None,,,,,,,,,,,,,,,,,,,,,,,,,,,,,,,,,,,,,,,,,,,,,,,,,,,,,,,,,,,,,,,,,,,,,,,,,,,,,,,,,,,,,,,,,,,,,,,,,,,,,,,,,,,,,,,,,,,26,001,0,21,350,425,2022_Oct_20_1524,Experiment,2021.1.4,360.2383337769894,
,,,,,,,,,,,,,,,,,,,,,,,,,,,,,,,,,,,,,,,,,,,,,13,Alert,rating,None,None,,,,,,,,,,,,,,,,,,,,,,,,,,,,,,,,,,,,,,,,,,,,,,,,,,,,,,,,,,,,,,,,,,,,,,,,,,,,,,,,,,,,,,,,,,,,,,,,,,,,,,,,,,,,,,,,,,,26,001,0,21,350,425,2022_Oct_20_1524,Experiment,2021.1.4,360.2383337769894,
,,,,,,,,,,,,,,,,,,,,,,,,,,,,,,,,,,,,,,,,,,,,,14,Ashamed,rating,None,None,,,,,,,,,,,,,,,,,,,,,,,,,,,,,,,,,,,,,,,,,,,,,,,,,,,,,,,,,,,,,,,,,,,,,,,,,,,,,,,,,,,,,,,,,,,,,,,,,,,,,,,,,,,,,,,,,,,26,001,0,21,350,425,2022_Oct_20_1524,Experiment,2021.1.4,360.2383337769894,
,,,,,,,,,,,,,,,,,,,,,,,,,,,,,,,,,,,,,,,,,,,,,15,Inspired,rating,None,None,,,,,,,,,,,,,,,,,,,,,,,,,,,,,,,,,,,,,,,,,,,,,,,,,,,,,,,,,,,,,,,,,,,,,,,,,,,,,,,,,,,,,,,,,,,,,,,,,,,,,,,,,,,,,,,,,,,26,001,0,21,350,425,2022_Oct_20_1524,Experiment,2021.1.4,360.2383337769894,
,,,,,,,,,,,,,,,,,,,,,,,,,,,,,,,,,,,,,,,,,,,,,16,Nervous,rating,None,None,,,,,,,,,,,,,,,,,,,,,,,,,,,,,,,,,,,,,,,,,,,,,,,,,,,,,,,,,,,,,,,,,,,,,,,,,,,,,,,,,,,,,,,,,,,,,,,,,,,,,,,,,,,,,,,,,,,26,001,0,21,350,425,2022_Oct_20_1524,Experiment,2021.1.4,360.2383337769894,
,,,,,,,,,,,,,,,,,,,,,,,,,,,,,,,,,,,,,,,,,,,,,17,Determined,rating,None,None,,,,,,,,,,,,,,,,,,,,,,,,,,,,,,,,,,,,,,,,,,,,,,,,,,,,,,,,,,,,,,,,,,,,,,,,,,,,,,,,,,,,,,,,,,,,,,,,,,,,,,,,,,,,,,,,,,,26,001,0,21,350,425,2022_Oct_20_1524,Experiment,2021.1.4,360.2383337769894,
,,,,,,,,,,,,,,,,,,,,,,,,,,,,,,,,,,,,,,,,,,,,,18,Attentive,rating,None,None,,,,,,,,,,,,,,,,,,,,,,,,,,,,,,,,,,,,,,,,,,,,,,,,,,,,,,,,,,,,,,,,,,,,,,,,,,,,,,,,,,,,,,,,,,,,,,,,,,,,,,,,,,,,,,,,,,,26,001,0,21,350,425,2022_Oct_20_1524,Experiment,2021.1.4,360.2383337769894,
,,,,,,,,,,,,,,,,,,,,,,,,,,,,,,,,,,,,,,,,,,,,,19,Jittery,rating,None,None,,,,,,,,,,,,,,,,,,,,,,,,,,,,,,,,,,,,,,,,,,,,,,,,,,,,,,,,,,,,,,,,,,,,,,,,,,,,,,,,,,,,,,,,,,,,,,,,,,,,,,,,,,,,,,,,,,,26,001,0,21,350,425,2022_Oct_20_1524,Experiment,2021.1.4,360.2383337769894,
,,,,,,,,,,,,,,,,,,,,,,,,,,,,,,,,,,,,,,,,,,,,,20,Active,rating,None,None,,,,,,,,,,,,,,,,,,,,,,,,,,,,,,,,,,,,,,,,,,,,,,,,,,,,,,,,,,,,,,,,,,,,,,,,,,,,,,,,,,,,,,,,,,,,,,,,,,,,,,,,,,,,,,,,,,,26,001,0,21,350,425,2022_Oct_20_1524,Experiment,2021.1.4,360.2383337769894,
,,,,,,,,,,,,,,,,,,,,,,,,,,,,,,,,,,,,,,,,,,,,,21,Afraid,rating,None,None,,,,,,,,,,,,,,,,,,,,,,,,,,,,,,,,,,,,,,,,,,,,,,,,,,,,,,,,,,,,,,,,,,,,,,,,,,,,,,,,,,,,,,,,,,,,,,,,,,,,,,,,,,,,,,,,,,,26,001,0,21,350,425,2022_Oct_20_1524,Experiment,2021.1.4,360.2383337769894,
,,,,,,,,,,,,,,,,,,,,,,,,,,,,,,,,,,,,,,,,,,,,,22,Press the + button to submit your answers,description,,,,,,,,,,,,,,,,,,,,,,,,,,,,,,,,,,,,,,,,,,,,,,,,,,,,,,,,,,,,,,,,,,,,,,,,,,,,,,,,,,,,,,,,,,,,,,,,,,,,,,,,,,,,,,,,,,,,,26,001,0,21,350,425,2022_Oct_20_1524,Experiment,2021.1.4,360.2383337769894,
,,,,,,,,,,,,,,,,,,,,,,,,,,,,,,,,,,,,,,,,,,,,,,,,,,num_add,19.030567100009648,54.46261629999208,None,,,,,,,,,,,,,,,,,,,,,,,,,,,,,,,,,,,,,,,,,,,,,,,,,,,,,,,,,,,,,,,,,,,,,,,,,,,,,,,,,,,,,,,,,,,,,,,,,,,,,,,,,,,,,,,26,001,0,21,350,425,2022_Oct_20_1524,Experiment,2021.1.4,360.2383337769894,
,,,,,,,,,,,,,,,,,,,,,,,,,,,,,,,,,,,,,,,,,,,,,,,,,,,,,,73.52340649999678,None,num_add,25.441758000000846,,,,,,,,,,,,,,,,,,,,,,,,,,,,,,,,,,,,,,,,,,,,,,,,,,,,,,,,,,,,,,,,,,,,,,,,,,,,,,,,,,,,,,,,,,,,,,,,,,,,,,,,,,,26,001,0,21,350,425,2022_Oct_20_1524,Experiment,2021.1.4,360.2383337769894,
,,,,,,,,,,,,,,,,,,,,,,,,,,,,,,,,,,,,,,,,,,,,,,,,,,,,,,,,,,98.97391469999275,None,num_add,7.527294200001052,98.97391469999275,None,,,,,,,,,,,,,,,,,,,,,,,,,,,,,,,,,,,,,,,,,,,,,,,,,,,,,,,,,,,,,,,,,,,,,,,,,,,,,,,,,,,,,,,,,,,,,,,,,,,,,26,001,0,21,350,425,2022_Oct_20_1524,Experiment,2021.1.4,360.2383337769894,
,,,,,,,,,,,,,,,,,,,,,,,,,,,,,,,,,,,,,,,,,,,,,,,,,,,,,,,,,,,,,,,,106.52158939999936,None,num_add,8.55555249999452,,,,,,,,,,,,,,,,,,,,,,,,,,,,,,,,,,,,,,,,,,,,,,,,,,,,,,,,,,,,,,,,,,,,,,,,,,,,,,,,,,,,,,,,,,,,,,,,,26,001,0,21,350,425,2022_Oct_20_1524,Experiment,2021.1.4,360.2383337769894,
,,,,,,,,,,,,,,,,,,,,,,,,,,,,,,,,,,,,,,,,,,,,,,,,,,,,,,,,,,,,,,,,,,,,115.08562319999328,None,space,58.071588599996176,,,,,,,,,,,,,,,,,,,,,,,,,,,,,,,,,,,,,,,,,,,,,,,,,,,,,,,,,,,,,,,,,,,,,,,,,,,,,,,,,,,,,,,,,,,,,26,001,0,21,350,425,2022_Oct_20_1524,Experiment,2021.1.4,360.2383337769894,
images\S22_M_H_02.png,images\S22_M_H_02_scrambled.png,22,Happy,-0.2,M,0,0,practice,off,1,0.5,0.75,0.5,0.883,3,,,,,,,,,,,0,0,0,2,,,,,,,,,,,,,,,,,,,,,,,,,,,,,,,,,,,,,,,,,,,173.33984089999285,173.8425409999909,173.8425409999909,174.5922997000016,174.5922997000016,175.09214300000167,175.09214300000167,175.97802129999036,175.97802129999036,None,num_6,1.067688299997826,175.97802129999036,None,,,,,,,,,,,,,,,,,,,,,,,,,,,,,,,,,,,,,,,,,,,,,,,,,,,,,,,,,,,,,,,,,,,,,,,,,,,,,,,26,001,0,21,350,425,2022_Oct_20_1524,Experiment,2021.1.4,360.2383337769894,
images\S22_M_S_02.png,images\S22_M_S_02_scrambled.png,22,Sad,0.2,M,0,0,practice,off,1,0.5,0.75,0.5,0.751,3,,,,,,,,,,,0,1,1,3,,,,,,,,,,,,,,,,,,,,,,,,,,,,,,,,,,,,,,,,,,,177.13873729998886,177.63857879998977,177.63857879998977,178.3911655999982,178.3911655999982,178.89378220000071,178.89378220000071,179.64909869999974,179.64909869999974,None,num_6,0.7725466999982018,179.64909869999974,None,,,,,,,,,,,,,,,,,,,,,,,,,,,,,,,,,,,,,,,,,,,,,,,,,,,,,,,,,,,,,,,,,,,,,,,,,,,,,,,26,001,0,21,350,425,2022_Oct_20_1524,Experiment,2021.1.4,360.2383337769894,
images\S22_M_S_02.png,images\S22_M_S_02_scrambled.png,22,Sad,0.2,M,0,0,practice,on,2,0.5,0.75,0.5,0.783,3,,,,,,,,,,,0,2,2,6,,,,,,,,,,,,,,,,,,,,,,,,,,,,,,,,,,,,,,,,,,,180.4738165999879,180.97366439999314,180.97366439999314,181.7290221000003,181.7290221000003,182.23163939999358,182.23163939999358,183.01762579999922,183.01762579999922,None,num_6,0.5720919000013964,183.01762579999922,None,,,,,,,,,,,,,,,,,,,,,,,,,,,,,,,,,,,,,,,,,,,,,,,,,,,,,,,,,,,,,,,,,,,,,,,,,,,,,,,26,001,0,21,350,425,2022_Oct_20_1524,Experiment,2021.1.4,360.2383337769894,
images\S22_M_S_03.png,images\S22_M_S_03_scrambled.png,22,Sad,0.3,M,0,0,practice,on,2,0.5,0.75,0.5,0.794,3,,,,,,,,,,,0,3,3,7,,,,,,,,,,,,,,,,,,,,,,,,,,,,,,,,,,,,,,,,,,,183.68117299998994,184.18378569999186,184.18378569999186,184.9363297999953,184.9363297999953,185.43899850000162,185.43899850000162,186.23874509999587,186.23874509999587,None,num_6,0.6789388000033796,186.23874509999587,None,,,,,,,,,,,,,,,,,,,,,,,,,,,,,,,,,,,,,,,,,,,,,,,,,,,,,,,,,,,,,,,,,,,,,,,,,,,,,,,26,001,0,21,350,425,2022_Oct_20_1524,Experiment,2021.1.4,360.2383337769894,
images\S21_F_H_01.png,images\S21_F_H_01_scrambled.png,21,Happy,-0.1,F,0,0,practice,off,1,0.5,0.75,0.5,0.853,3,,,,,,,,,,,0,4,4,0,,,,,,,,,,,,,,,,,,,,,,,,,,,,,,,,,,,,,,,,,,,187.01069689998985,187.51335899998958,187.51335899998958,188.26590739999665,188.26590739999665,188.76852249998774,188.76852249998774,189.623814999999,189.623814999999,None,num_6,0.8938930000003893,189.623814999999,None,,,,,,,,,,,,,,,,,,,,,,,,,,,,,,,,,,,,,,,,,,,,,,,,,,,,,,,,,,,,,,,,,,,,,,,,,,,,,,,26,001,0,21,350,425,2022_Oct_20_1524,Experiment,2021.1.4,360.2383337769894,
images\S22_M_S_03.png,images\S22_M_S_03_scrambled.png,22,Sad,0.3,M,0,0,practice,on,2,0.5,0.75,0.5,0.87,3,,,,,,,,,,,0,5,5,4,,,,,,,,,,,,,,,,,,,,,,,,,,,,,,,,,,,,,,,,,,,190.57348690000072,191.07332569999562,191.07332569999562,191.82309839999652,191.82309839999652,192.32863859999634,192.32863859999634,193.2004842999886,193.2004842999886,None,num_4,0.525345500005642,193.2004842999886,None,,,,,,,,,,,,,,,,,,,,,,,,,,,,,,,,,,,,,,,,,,,,,,,,,,,,,,,,,,,,,,,,,,,,,,,,,,,,,,,26,001,0,21,350,425,2022_Oct_20_1524,Experiment,2021.1.4,360.2383337769894,
images\S21_F_H_02.png,images\S21_F_H_02_scrambled.png,21,Happy,-0.2,F,0,0,practice,off,1,0.5,0.75,0.5,0.91,3,,,,,,,,,,,0,6,6,1,,,,,,,,,,,,,,,,,,,,,,,,,,,,,,,,,,,,,,,,,,,193.81416239999817,194.31679719999374,194.31679719999374,195.06935559998965,195.06935559998965,195.56919709999056,195.56919709999056,196.48559479998949,196.48559479998949,None,num_6,0.7760439999983646,196.48559479998949,None,,,,,,,,,,,,,,,,,,,,,,,,,,,,,,,,,,,,,,,,,,,,,,,,,,,,,,,,,,,,,,,,,,,,,,,,,,,,,,,26,001,0,21,350,425,2022_Oct_20_1524,Experiment,2021.1.4,360.2383337769894,
images\S22_M_S_01.png,images\S22_M_S_01_scrambled.png,22,Sad,0.1,M,0,0,practice,on,2,0.5,0.75,0.5,0.867,3,,,,,,,,,,,0,7,7,5,,,,,,,,,,,,,,,,,,,,,,,,,,,,,,,,,,,,,,,,,,,197.35196059998998,197.85471159999724,197.85471159999724,198.6043667999911,198.6043667999911,199.1098462999944,199.1098462999944,199.97906359999615,199.97906359999615,None,num_6,0.6349699999991572,199.97906359999615,None,,,,,,,,,,,,,,,,,,,,,,,,,,,,,,,,,,,,,,,,,,,,,,,,,,,,,,,,,,,,,,,,,,,,,,,,,,,,,,,26,001,0,21,350,425,2022_Oct_20_1524,Experiment,2021.1.4,360.2383337769894,
,,,,,,,,,,,,,,,,,,,,,,,,,,,,,,,,,,,,,,,,,,,,,,,,,,,,,,,,,,,,,,,,,,,,,,,,,,,,,,,,,,,,,,200.65371529999538,None,space,52.19928570000047,,,,,,,,,,,,,,,,,,,,,,,,,,,,,,,,,,,,,,,,,,,,,,,,,,,,,,,,,,,,,,,,,,,,,,,,,,,26,001,0,21,350,425,2022_Oct_20_1524,Experiment,2021.1.4,360.2383337769894,
images\S9_F_S_01.png,images\S9_F_S_01_scrambled.png,9,sad,-10,female,3,,52,off,1,0.5,0.75,0.5,0.827,3,51,1,1,1,0,0,0,0,3,,,,,,0,0,0,0,,,,,,,,,,,,,,,,,,,,,,,,,,,,,,,,,,,,,,,,,,,,,,,,,,,,,,,,,253.3570347999921,253.86236679999274,253.86236679999274,254.61769059998915,254.61769059998915,255.1202842999919,255.1202842999919,255.95335499999055,255.95335499999055,None,num_4,0.5482956000050763,255.95335499999055,None,sad,0,Sad,256.51432280000154,None,None,256.51432280000154,None,,,,,,,,,,,,,,,,,,,,,,,,,,,,,,,,,,,,,,,,,,,,,,,,,,,,,26,001,0,21,350,425,2022_Oct_20_1524,Experiment,2021.1.4,360.2383337769894,
images\S8_M_S_02.png,images\S8_M_S_02_scrambled.png,8,sad,-20,male,2,,527,off,1,0.5,0.75,0.5,0.836,3,526,2,1,1,0,0,0,0,2,,,,,,0,1,1,1,,,,,,,,,,,,,,,,,,,,,,,,,,,,,,,,,,,,,,,,,,,,,,,,,,,,,,,,,256.6003761999891,257.10302859998774,257.10302859998774,257.8555469999992,257.8555469999992,258.36106719999225,258.36106719999225,259.20239890000084,259.20239890000084,None,num_4,0.4432659000012791,259.20239890000084,None,sad,0,Sad,259.66052481999213,None,None,259.66052481999213,None,,,,,,,,,,,,,,,,,,,,,,,,,,,,,,,,,,,,,,,,,,,,,,,,,,,,,26,001,0,21,350,425,2022_Oct_20_1524,Experiment,2021.1.4,360.2383337769894,
images\S7_F_S_03.png,images\S7_F_S_03_scrambled.png,7,sad,-30,female,1,,402,off,1,0.5,0.75,0.5,0.918,3,401,3,1,1,0,0,0,0,1,,,,,,0,2,2,2,,,,,,,,,,,,,,,,,,,,,,,,,,,,,,,,,,,,,,,,,,,,,,,,,,,,,,,,,259.74663869998767,260.2520755000005,260.2520755000005,261.00458889998845,261.00458889998845,261.507199899992,261.507199899992,262.431989299992,262.431989299992,None,num_4,0.3255196999962209,262.431989299992,None,sad,0,Sad,262.76793852000264,None,None,262.76793852000264,None,,,,,,,,,,,,,,,,,,,,,,,,,,,,,,,,,,,,,,,,,,,,,,,,,,,,,26,001,0,21,350,425,2022_Oct_20_1524,Experiment,2021.1.4,360.2383337769894,
images\S5_F_S_02.png,images\S5_F_S_02_scrambled.png,5,sad,-20,female,2,,209,on,2,0.5,0.75,0.5,0.779,3,208,1,1,1,2,2,32,128,162,,,,,,0,3,3,3,,,,,,,,,,,,,,,,,,,,,,,,,,,,,,,,,,,,,,,,,,,,,,,,,,,,,,,,,262.854007499991,263.356755899993,263.356755899993,264.1064088999992,264.1064088999992,264.61183559999336,264.61183559999336,265.39502299999003,265.39502299999003,None,num_6,0.46646789999795146,265.39502299999003,None,happy,0,Sad,265.866952159995,None,None,265.866952159995,None,,,,,,,,,,,,,,,,,,,,,,,,,,,,,,,,,,,,,,,,,,,,,,,,,,,,,26,001,0,21,350,425,2022_Oct_20_1524,Experiment,2021.1.4,360.2383337769894,
images\S5_F_S_01.png,images\S5_F_S_01_scrambled.png,5,sad,-10,female,3,,448,on,2,0.5,0.75,0.5,0.817,3,447,2,2,1,2,2,32,128,163,,,,,,0,4,4,4,,,,,,,,,,,,,,,,,,,,,,,,,,,,,,,,,,,,,,,,,,,,,,,,,,,,,,,,,265.9502758000017,266.4501253999915,266.4501253999915,267.199890399992,267.199890399992,267.6997621999908,267.6997621999908,268.5161586999893,268.5161586999893,None,num_6,0.49738679999427404,268.5161586999893,None,happy,0,Sad,269.0243343600014,None,None,269.0243343600014,None,,,,,,,,,,,,,,,,,,,,,,,,,,,,,,,,,,,,,,,,,,,,,,,,,,,,,26,001,0,21,350,425,2022_Oct_20_1524,Experiment,2021.1.4,360.2383337769894,
images\S8_M_H_01.png,images\S8_M_H_01_scrambled.png,8,happy,10,male,4,,163,off,1,0.5,0.75,0.5,0.94,3,162,1,1,1,0,0,0,0,4,,,,,,0,5,5,5,,,,,,,,,,,,,,,,,,,,,,,,,,,,,,,,,,,,,,,,,,,,,,,,,,,,,,,,,269.10764149999886,269.61305519999587,269.61305519999587,270.3657038999954,270.3657038999954,270.87103299998853,270.87103299998853,271.81527439999627,271.81527439999627,None,num_6,0.8943268000002718,271.81527439999627,None,happy,0,Happy,272.7205356199993,None,None,272.7205356199993,None,,,,,,,,,,,,,,,,,,,,,,,,,,,,,,,,,,,,,,,,,,,,,,,,,,,,,26,001,0,21,350,425,2022_Oct_20_1524,Experiment,2021.1.4,360.2383337769894,
images\blank.jpg,images\blank.jpg,none,none,none,none,0,,621,on,2,0.5,0.75,0.5,0.827,0,620,1,1,1,3,3,48,192,240,,,,,,0,6,6,6,,,,,,,,,,,,,,,,,,,,,,,,,,,,,,,,,,,,,,,,,,,,,,,,,,,,,,,,,272.85696219999227,273.361925899997,273.361925899997,274.1172308999958,274.1172308999958,274.6199570999888,274.6199570999888,275.4529223999998,275.4529223999998,275.4529223999998,None,,275.4529223999998,None,miss,0,,278.45760245999554,None,None,278.45760245999554,None,,,,,,,,,,,,,,,,,,,,,,,,,,,,,,,,,,,,,,,,,,,,,,,,,,,,,26,001,0,21,350,425,2022_Oct_20_1524,Experiment,2021.1.4,360.2383337769894,
images\S1_F_S_03.png,images\S1_F_S_03_scrambled.png,1,sad,-30,female,1,,306,on,2,0.5,0.75,0.5,0.785,3,305,2,1,1,2,2,32,128,161,,,,,,0,7,7,7,,,,,,,,,,,,,,,,,,,,,,,,,,,,,,,,,,,,,,,,,,,,,,,,,,,,,,,,,278.6242340999888,279.12956669999403,279.12956669999403,279.87933159999375,279.87933159999375,280.38201289999415,280.38201289999415,281.17059639999934,281.17059639999934,None,num_6,0.6909500000037951,281.17059639999934,278.6242340999888,happy,0,Sad,281.87039515998913,None,None,281.87039515998913,None,,,,,,,,,,,,,,,,,,,,,,,,,,,,,,,,,,,,,,,,,,,,,,,,,,,,,26,001,0,21,350,425,2022_Oct_20_1524,Experiment,2021.1.4,360.2383337769894,
images\S5_F_H_01.png,images\S5_F_H_01_scrambled.png,5,happy,10,female,4,,85,on,2,0.5,0.75,0.5,0.897,3,84,3,1,1,2,2,32,128,164,,,,,,0,8,8,8,,,,,,,,,,,,,,,,,,,,,,,,,,,,,,,,,,,,,,,,,,,,,,,,,,,,,,,,,281.95646580000175,282.46195169999555,282.46195169999555,283.2116504000005,283.2116504000005,283.7142529999983,283.7142529999983,284.6168352999957,284.6168352999957,None,num_6,0.22840700000233483,284.6168352999957,None,happy,0,Happy,284.8611276199954,None,None,284.8611276199954,None,,,,,,,,,,,,,,,,,,,,,,,,,,,,,,,,,,,,,,,,,,,,,,,,,,,,,26,001,0,21,350,425,2022_Oct_20_1524,Experiment,2021.1.4,360.2383337769894,
images\blank.jpg,images\blank.jpg,none,none,none,none,0,,642,on,2,0.5,0.75,0.5,0.919,0,641,4,1,1,3,3,48,192,240,,,,,,0,9,9,9,,,,,,,,,,,,,,,,,,,,,,,,,,,,,,,,,,,,,,,,,,,,,,,,,,,,,,,,,284.94466749999265,285.44705740000063,285.44705740000063,286.2024092999927,286.2024092999927,286.70503449998796,286.70503449998796,287.627006900002,287.627006900002,287.627006900002,None,,287.627006900002,None,miss,0,,290.631646859998,None,None,290.631646859998,None,,,,,,,,,,,,,,,,,,,,,,,,,,,,,,,,,,,,,,,,,,,,,,,,,,,,,26,001,0,21,350,425,2022_Oct_20_1524,Experiment,2021.1.4,360.2383337769894,
images\S1_F_H_02.png,images\S1_F_H_02_scrambled.png,1,happy,20,female,5,,542,on,2,0.5,0.75,0.5,0.808,3,541,5,1,1,2,2,32,128,165,,,,,,0,10,10,10,,,,,,,,,,,,,,,,,,,,,,,,,,,,,,,,,,,,,,,,,,,,,,,,,,,,,,,,,290.781834399997,291.281384899994,291.281384899994,292.03393229999347,292.03393229999347,292.53665999999794,292.53665999999794,293.3473949999898,293.3473949999898,None,num_6,0.34575999999651685,293.3473949999898,290.781834399997,happy,0,Happy,293.7083980199968,None,None,293.7083980199968,None,,,,,,,,,,,,,,,,,,,,,,,,,,,,,,,,,,,,,,,,,,,,,,,,,,,,,26,001,0,21,350,425,2022_Oct_20_1524,Experiment,2021.1.4,360.2383337769894,
images\S3_F_S_03.png,images\S3_F_S_03_scrambled.png,3,sad,-30,female,1,,498,off,1,0.5,0.75,0.5,0.798,3,497,1,1,1,0,0,0,0,1,,,,,,0,11,11,11,,,,,,,,,,,,,,,,,,,,,,,,,,,,,,,,,,,,,,,,,,,,,,,,,,,,,,,,,293.81672469999467,294.3193096999894,294.3193096999894,295.0719524999877,295.0719524999877,295.5773201999982,295.5773201999982,296.37980529999186,296.37980529999186,None,num_4,0.37778689998958725,296.37980529999186,None,sad,0,Sad,296.78250871999626,None,None,296.78250871999626,None,,,,,,,,,,,,,,,,,,,,,,,,,,,,,,,,,,,,,,,,,,,,,,,,,,,,,26,001,0,21,350,425,2022_Oct_20_1524,Experiment,2021.1.4,360.2383337769894,
images\S4_M_H_01.png,images\S4_M_H_01_scrambled.png,4,happy,10,male,4,,259,off,1,0.5,0.75,0.5,0.888,3,258,2,1,1,0,0,0,0,4,,,,,,0,12,12,12,,,,,,,,,,,,,,,,,,,,,,,,,,,,,,,,,,,,,,,,,,,,,,,,,,,,,,,,,296.89352519999375,297.3989445999905,297.3989445999905,298.1514903999923,298.1514903999923,298.65694970000186,298.65694970000186,299.54827079999086,299.54827079999086,None,num_4,0.505817900004331,299.54827079999086,None,sad,0,Happy,300.0621138599963,None,None,300.0621138599963,None,,,,,,,,,,,,,,,,,,,,,,,,,,,,,,,,,,,,,,,,,,,,,,,,,,,,,26,001,0,21,350,425,2022_Oct_20_1524,Experiment,2021.1.4,360.2383337769894,
images\S8_M_H_03.png,images\S8_M_H_03_scrambled.png,8,happy,30,male,6,,45,off,1,0.5,0.75,0.5,0.842,3,44,3,1,1,0,0,0,0,6,,,,,,0,13,13,13,,,,,,,,,,,,,,,,,,,,,,,,,,,,,,,,,,,,,,,,,,,,,,,,,,,,,,,,,300.17307799999253,300.6729142999975,300.6729142999975,301.42824519998976,301.42824519998976,301.92811559999245,301.92811559999245,302.7723168999946,302.7723168999946,None,num_6,0.2252198999922257,302.7723168999946,None,happy,0,Happy,303.01106232000166,None,None,303.01106232000166,None,,,,,,,,,,,,,,,,,,,,,,,,,,,,,,,,,,,,,,,,,,,,,,,,,,,,,26,001,0,21,350,425,2022_Oct_20_1524,Experiment,2021.1.4,360.2383337769894,
images\S9_F_S_03.png,images\S9_F_S_03_scrambled.png,9,sad,-30,female,1,,594,on,2,0.5,0.75,0.5,0.814,3,593,1,1,1,2,2,32,128,161,,,,,,0,14,14,14,,,,,,,,,,,,,,,,,,,,,,,,,,,,,,,,,,,,,,,,,,,,,,,,,,,,,,,,,303.0971775999933,303.59980070000165,303.59980070000165,304.35237779999443,304.35237779999443,304.85219259999576,304.85219259999576,305.6658131000004,305.6658131000004,None,num_4,0.43684169999323785,305.6658131000004,None,sad,0,Sad,306.1241581399954,None,None,306.1241581399954,None,,,,,,,,,,,,,,,,,,,,,,,,,,,,,,,,,,,,,,,,,,,,,,,,,,,,,26,001,0,21,350,425,2022_Oct_20_1524,Experiment,2021.1.4,360.2383337769894,
images\S1_F_S_03.png,images\S1_F_S_03_scrambled.png,1,sad,-30,female,1,,66,on,2,0.5,0.75,0.5,0.802,3,65,2,1,2,2,2,32,128,161,,,,,,0,15,15,15,,,,,,,,,,,,,,,,,,,,,,,,,,,,,,,,,,,,,,,,,,,,,,,,,,,,,,,,,306.17692289999104,306.67942570000014,306.67942570000014,307.42916709999554,307.42916709999554,307.93188279999595,307.93188279999595,308.73714389999805,308.73714389999805,None,num_4,0.43641149999166373,308.73714389999805,None,sad,0,Sad,309.20083321999846,None,None,309.20083321999846,None,,,,,,,,,,,,,,,,,,,,,,,,,,,,,,,,,,,,,,,,,,,,,,,,,,,,,26,001,0,21,350,425,2022_Oct_20_1524,Experiment,2021.1.4,360.2383337769894,
images\S7_F_S_01.png,images\S7_F_S_01_scrambled.png,7,sad,-10,female,3,,40,off,1,0.5,0.75,0.5,0.802,3,39,1,1,1,0,0,0,0,3,,,,,,0,16,16,16,,,,,,,,,,,,,,,,,,,,,,,,,,,,,,,,,,,,,,,,,,,,,,,,,,,,,,,,,309.2924214999948,309.79791219999606,309.79791219999606,310.5476759000012,310.5476759000012,311.05030049999186,311.05030049999186,311.8583987999882,311.8583987999882,None,num_6,0.4591411000001244,311.8583987999882,None,happy,0,Sad,312.3276601599937,None,None,312.3276601599937,None,,,,,,,,,,,,,,,,,,,,,,,,,,,,,,,,,,,,,,,,,,,,,,,,,,,,,26,001,0,21,350,425,2022_Oct_20_1524,Experiment,2021.1.4,360.2383337769894,
images\S7_F_S_03.png,images\S7_F_S_03_scrambled.png,7,sad,-30,female,1,,282,off,1,0.5,0.75,0.5,0.852,3,281,2,2,1,0,0,0,0,1,,,,,,0,17,17,17,,,,,,,,,,,,,,,,,,,,,,,,,,,,,,,,,,,,,,,,,,,,,,,,,,,,,,,,,312.3748649999907,312.8774940000003,312.8774940000003,313.62726969999494,313.62726969999494,314.1299266999995,314.1299266999995,314.98521189999883,314.98521189999883,None,num_6,0.34071799999219365,314.98521189999883,None,happy,0,Sad,315.3324397599936,None,None,315.3324397599936,None,,,,,,,,,,,,,,,,,,,,,,,,,,,,,,,,,,,,,,,,,,,,,,,,,,,,,26,001,0,21,350,425,2022_Oct_20_1524,Experiment,2021.1.4,360.2383337769894,
images\S9_F_H_03.png,images\S9_F_H_03_scrambled.png,9,happy,30,female,6,,111,on,2,0.5,0.75,0.5,0.864,3,110,1,1,1,2,2,32,128,166,,,,,,0,18,18,18,,,,,,,,,,,,,,,,,,,,,,,,,,,,,,,,,,,,,,,,,,,,,,,,,,,,,,,,,315.44337179999275,315.94612849999976,315.94612849999976,316.6985587999952,316.6985587999952,317.2011870999995,317.2011870999995,318.0676009999879,318.0676009999879,None,num_6,0.34597569999459665,318.0676009999879,None,happy,0,Happy,318.4314096799935,None,None,318.4314096799935,None,,,,,,,,,,,,,,,,,,,,,,,,,,,,,,,,,,,,,,,,,,,,,,,,,,,,,26,001,0,21,350,425,2022_Oct_20_1524,Experiment,2021.1.4,360.2383337769894,
images\S8_M_S_02.png,images\S8_M_S_02_scrambled.png,8,sad,-20,male,2,,287,off,1,0.5,0.75,0.5,0.854,3,286,1,1,1,0,0,0,0,2,,,,,,0,19,19,19,,,,,,,,,,,,,,,,,,,,,,,,,,,,,,,,,,,,,,,,,,,,,,,,,,,,,,,,,318.47854749999533,318.98128709998855,318.98128709998855,319.73663769999985,319.73663769999985,320.23916119999194,320.23916119999194,321.09718240000075,321.09718240000075,None,num_4,0.3559454999922309,321.09718240000075,None,sad,0,Sad,321.46376061999763,None,None,321.46376061999763,None,,,,,,,,,,,,,,,,,,,,,,,,,,,,,,,,,,,,,,,,,,,,,,,,,,,,,26,001,0,21,350,425,2022_Oct_20_1524,Experiment,2021.1.4,360.2383337769894,
images\S6_M_H_03.png,images\S6_M_H_03_scrambled.png,6,happy,30,male,6,,213,on,2,0.5,0.75,0.5,0.896,3,212,1,1,1,2,2,32,128,166,,,,,,0,20,20,20,,,,,,,,,,,,,,,,,,,,,,,,,,,,,,,,,,,,,,,,,,,,,,,,,,,,,,,,,321.5720408999914,322.0774798999919,322.0774798999919,322.82721269999456,322.82721269999456,323.33264609999605,323.33264609999605,324.2323827999935,324.2323827999935,None,num_6,0.22915919999650214,324.2323827999935,None,happy,0,Happy,324.47668091999367,None,None,324.47668091999367,None,,,,,,,,,,,,,,,,,,,,,,,,,,,,,,,,,,,,,,,,,,,,,,,,,,,,,26,001,0,21,350,425,2022_Oct_20_1524,Experiment,2021.1.4,360.2383337769894,
images\S8_M_H_01.png,images\S8_M_H_01_scrambled.png,8,happy,10,male,4,,523,off,1,0.5,0.75,0.5,0.814,3,522,1,1,1,0,0,0,0,4,,,,,,0,21,21,21,,,,,,,,,,,,,,,,,,,,,,,,,,,,,,,,,,,,,,,,,,,,,,,,,,,,,,,,,324.5266886999889,325.03212989999156,325.03212989999156,325.7818532999954,325.7818532999954,326.2873113999958,326.2873113999958,327.10657139999967,327.10657139999967,None,num_6,0.5469241000100737,327.10657139999967,None,happy,0,Happy,327.67853152000316,None,None,327.67853152000316,None,,,,,,,,,,,,,,,,,,,,,,,,,,,,,,,,,,,,,,,,,,,,,,,,,,,,,26,001,0,21,350,425,2022_Oct_20_1524,Experiment,2021.1.4,360.2383337769894,
images\S2_M_S_01.png,images\S2_M_S_01_scrambled.png,2,sad,-10,male,3,,130,off,1,0.5,0.75,0.5,0.825,3,129,2,1,1,0,0,0,0,3,,,,,,0,22,22,22,,,,,,,,,,,,,,,,,,,,,,,,,,,,,,,,,,,,,,,,,,,,,,,,,,,,,,,,,327.76458289999573,328.2672079999902,328.2672079999902,329.0225403999939,329.0225403999939,329.5279684999987,329.5279684999987,330.3582529999985,330.3582529999985,None,num_6,0.5834286999888718,330.3582529999985,None,happy,0,Sad,330.94974126000307,None,None,330.94974126000307,None,,,,,,,,,,,,,,,,,,,,,,,,,,,,,,,,,,,,,,,,,,,,,,,,,,,,,26,001,0,21,350,425,2022_Oct_20_1524,Experiment,2021.1.4,360.2383337769894,
images\S10_M_H_02.png,images\S10_M_H_02_scrambled.png,10,happy,20,male,5,,536,off,1,0.5,0.75,0.5,0.893,3,535,3,1,1,0,0,0,0,5,,,,,,0,23,23,23,,,,,,,,,,,,,,,,,,,,,,,,,,,,,,,,,,,,,,,,,,,,,,,,,,,,,,,,,331.03579609999724,331.5384564999986,331.5384564999986,332.2937748999975,332.2937748999975,332.79358479999064,332.79358479999064,333.693343299994,333.693343299994,None,num_6,0.3761771999998018,333.693343299994,None,happy,0,Happy,334.08767707999505,None,None,334.08767707999505,None,,,,,,,,,,,,,,,,,,,,,,,,,,,,,,,,,,,,,,,,,,,,,,,,,,,,,26,001,0,21,350,425,2022_Oct_20_1524,Experiment,2021.1.4,360.2383337769894,
images\S5_F_S_02.png,images\S5_F_S_02_scrambled.png,5,sad,-20,female,2,,449,on,2,0.5,0.75,0.5,0.785,3,448,1,1,1,2,2,32,128,162,,,,,,0,24,24,24,,,,,,,,,,,,,,,,,,,,,,,,,,,,,,,,,,,,,,,,,,,,,,,,,,,,,,,,,334.13483959999576,334.6375881999993,334.6375881999993,335.392872299999,335.392872299999,335.89823959999194,335.89823959999194,336.68696069999714,336.68696069999714,None,num_6,0.39033670000208076,336.68696069999714,None,happy,0,Sad,337.0866798599891,None,None,337.0866798599891,None,,,,,,,,,,,,,,,,,,,,,,,,,,,,,,,,,,,,,,,,,,,,,,,,,,,,,26,001,0,21,350,425,2022_Oct_20_1524,Experiment,2021.1.4,360.2383337769894,
images\S2_M_S_01.png,images\S2_M_S_01_scrambled.png,2,sad,-10,male,3,,310,on,2,0.5,0.75,0.5,0.852,3,309,2,1,1,2,2,32,128,163,,,,,,0,25,25,25,,,,,,,,,,,,,,,,,,,,,,,,,,,,,,,,,,,,,,,,,,,,,,,,,,,,,,,,,337.1339253999904,337.6365397999907,337.6365397999907,338.3891084999923,338.3891084999923,338.8889266999904,338.8889266999904,339.74424989998806,339.74424989998806,None,num_4,0.3571688000083668,339.74424989998806,None,sad,0,Sad,340.130206120004,None,None,340.130206120004,None,,,,,,,,,,,,,,,,,,,,,,,,,,,,,,,,,,,,,,,,,,,,,,,,,,,,,26,001,0,21,350,425,2022_Oct_20_1524,Experiment,2021.1.4,360.2383337769894,
images\S8_M_H_01.png,images\S8_M_H_01_scrambled.png,8,happy,10,male,4,,463,on,2,0.5,0.75,0.5,0.805,3,462,3,1,1,2,2,32,128,164,,,,,,0,26,26,26,,,,,,,,,,,,,,,,,,,,,,,,,,,,,,,,,,,,,,,,,,,,,,,,,,,,,,,,,340.18298919999506,340.6884144999931,340.6884144999931,341.43815209998866,341.43815209998866,341.93802049999067,341.93802049999067,342.74887450000097,342.74887450000097,None,num_4,0.6008220999938203,342.74887450000097,None,sad,0,Happy,343.36539163999987,None,None,343.36539163999987,None,,,,,,,,,,,,,,,,,,,,,,,,,,,,,,,,,,,,,,,,,,,,,,,,,,,,,26,001,0,21,350,425,2022_Oct_20_1524,Experiment,2021.1.4,360.2383337769894,
images\S3_F_S_02.png,images\S3_F_S_02_scrambled.png,3,sad,-20,female,2,,317,on,2,0.5,0.75,0.5,0.927,3,316,4,1,1,2,2,32,128,162,,,,,,0,27,27,27,,,,,,,,,,,,,,,,,,,,,,,,,,,,,,,,,,,,,,,,,,,,,,,,,,,,,,,,,343.4569776999997,343.9568130999978,343.9568130999978,344.706617799995,344.706617799995,345.20921409998846,345.20921409998846,346.1394910999952,346.1394910999952,None,num_4,0.442071900004521,346.1394910999952,None,sad,0,Sad,346.592111919992,None,None,346.592111919992,None,,,,,,,,,,,,,,,,,,,,,,,,,,,,,,,,,,,,,,,,,,,,,,,,,,,,,26,001,0,21,350,425,2022_Oct_20_1524,Experiment,2021.1.4,360.2383337769894,
images\S8_M_H_01.png,images\S8_M_H_01_scrambled.png,8,happy,10,male,4,,343,on,2,0.5,0.75,0.5,0.844,3,342,5,1,1,2,2,32,128,164,,,,,,0,28,28,28,,,,,,,,,,,,,,,,,,,,,,,,,,,,,,,,,,,,,,,,,,,,,,,,,,,,,,,,,346.6393248999957,347.1420863999956,347.1420863999956,347.89450779999606,347.89450779999606,348.39726040000096,348.39726040000096,349.24410050000006,349.24410050000006,None,num_6,0.5693961000069976,349.24410050000006,None,happy,0,Happy,349.8300022199983,None,None,349.8300022199983,None,,,,,,,,,,,,,,,,,,,,,,,,,,,,,,,,,,,,,,,,,,,,,,,,,,,,,26,001,0,21,350,425,2022_Oct_20_1524,Experiment,2021.1.4,360.2383337769894,
images\S5_F_H_01.png,images\S5_F_H_01_scrambled.png,5,happy,10,female,4,,145,off,1,0.5,0.75,0.5,0.833,3,144,1,1,2,0,0,0,0,4,,,,,,0,29,29,29,,,,,,,,,,,,,,,,,,,,,,,,,,,,,,,,,,,,,,,,,,,,,,,,,,,,,,,,,349.8772144999966,350.38274439999077,350.38274439999077,351.1351648999989,351.1351648999989,351.6378624999925,351.6378624999925,352.4736739999935,352.4736739999935,None,num_6,0.46786440000869334,352.4736739999935,None,happy,0,Happy,352.95403051999165,None,None,352.95403051999165,None,,,,,,,,,,,,,,,,,,,,,,,,,,,,,,,,,,,,,,,,,,,,,,,,,,,,,26,001,0,21,350,425,2022_Oct_20_1524,Experiment,2021.1.4,360.2383337769894,
images\S9_F_S_03.png,images\S9_F_S_03_scrambled.png,9,sad,-30,female,1,,474,on,2,0.5,0.75,0.5,0.809,3,473,1,1,1,2,2,32,128,161,,,,,,0,30,30,30,,,,,,,,,,,,,,,,,,,,,,,,,,,,,,,,,,,,,,,,,,,,,,,,,,,,,,,,,353.0040330999909,353.5066574999946,353.5066574999946,354.25923769999645,354.25923769999645,354.7618611999933,354.7618611999933,355.57548489999317,355.57548489999317,None,num_4,0.32607500000449363,355.57548489999317,None,sad,0,Sad,355.9254669799993,None,None,355.9254669799993,None,,,,,,,,,,,,,,,,,,,,,,,,,,,,,,,,,,,,,,,,,,,,,,,,,,,,,26,001,0,21,350,425,2022_Oct_20_1524,Experiment,2021.1.4,360.2383337769894,
images\S2_M_S_02.png,images\S2_M_S_02_scrambled.png,2,sad,-20,male,2,,191,on,2,0.5,0.75,0.5,0.831,3,190,2,1,1,2,2,32,128,162,,,,,,0,31,31,31,,,,,,,,,,,,,,,,,,,,,,,,,,,,,,,,,,,,,,,,,,,,,,,,,,,,,,,,,356.0336529999913,356.5335168999882,356.5335168999882,357.2832808999956,357.2832808999956,357.7859047999955,357.7859047999955,358.61900369999057,358.61900369999057,None,num_6,0.4985700999968685,358.61900369999057,None,happy,0,Sad,359.1271051599906,None,None,359.1271051599906,None,,,,,,,,,,,,,,,,,,,,,,,,,,,,,,,,,,,,,,,,,,,,,,,,,,,,,26,001,0,21,350,425,2022_Oct_20_1524,Experiment,2021.1.4,360.2383337769894,
images\S5_F_S_01.png,images\S5_F_S_01_scrambled.png,5,sad,-10,female,3,,328,on,2,0.5,0.75,0.5,0.774,3,327,3,1,1,2,2,32,128,163,,,,,,0,32,32,32,,,,,,,,,,,,,,,,,,,,,,,,,,,,,,,,,,,,,,,,,,,,,,,,,,,,,,,,,359.17434869999124,359.67979059999925,359.67979059999925,360.4322950999922,360.4322950999922,360.93494680000003,360.93494680000003,361.7096843999898,361.7096843999898,None,num_6,0.4078963000065414,361.7096843999898,None,happy,0,Sad,362.12627853999584,None,None,362.12627853999584,None,,,,,,,,,,,,,,,,,,,,,,,,,,,,,,,,,,,,,,,,,,,,,,,,,,,,,26,001,0,21,350,425,2022_Oct_20_1524,Experiment,2021.1.4,360.2383337769894,
images\S6_M_S_02.png,images\S6_M_S_02_scrambled.png,6,sad,-20,male,2,,335,on,2,0.5,0.75,0.5,0.918,3,334,4,1,1,2,2,32,128,162,,,,,,0,33,33,33,,,,,,,,,,,,,,,,,,,,,,,,,,,,,,,,,,,,,,,,,,,,,,,,,,,,,,,,,362.2345229999919,362.73994899999525,362.73994899999525,363.4896880999877,363.4896880999877,363.9923497999989,363.9923497999989,364.9142481999879,364.9142481999879,None,num_4,0.37096140001085587,364.9142481999879,None,sad,0,Sad,365.3197083999985,None,None,365.3197083999985,None,,,,,,,,,,,,,,,,,,,,,,,,,,,,,,,,,,,,,,,,,,,,,,,,,,,,,26,001,0,21,350,425,2022_Oct_20_1524,Experiment,2021.1.4,360.2383337769894,
images\S5_F_H_03.png,images\S5_F_H_03_scrambled.png,5,happy,30,female,6,,207,on,2,0.5,0.75,0.5,0.801,3,206,5,1,1,2,2,32,128,166,,,,,,0,34,34,34,,,,,,,,,,,,,,,,,,,,,,,,,,,,,,,,,,,,,,,,,,,,,,,,,,,,,,,,,365.43074869998964,365.9333809999953,365.9333809999953,366.68314909999026,366.68314909999026,367.183022799989,367.183022799989,367.99109299998963,367.99109299998963,None,num_6,0.23828520000097342,367.99109299998963,None,happy,0,Happy,368.24102311999013,None,None,368.24102311999013,None,,,,,,,,,,,,,,,,,,,,,,,,,,,,,,,,,,,,,,,,,,,,,,,,,,,,,26,001,0,21,350,425,2022_Oct_20_1524,Experiment,2021.1.4,360.2383337769894,
images\S1_F_S_02.png,images\S1_F_S_02_scrambled.png,1,sad,-20,female,2,,365,off,1,0.5,0.75,0.5,0.81,3,364,1,1,1,0,0,0,0,2,,,,,,0,35,35,35,,,,,,,,,,,,,,,,,,,,,,,,,,,,,,,,,,,,,,,,,,,,,,,,,,,,,,,,,368.32709029999387,368.8269336999947,368.8269336999947,369.57674179998867,369.57674179998867,370.07932799999253,370.07932799999253,370.8957616999978,370.8957616999978,None,num_4,0.34178220000467263,370.8957616999978,None,sad,0,Sad,371.25397022000107,None,None,371.25397022000107,None,,,,,,,,,,,,,,,,,,,,,,,,,,,,,,,,,,,,,,,,,,,,,,,,,,,,,26,001,0,21,350,425,2022_Oct_20_1524,Experiment,2021.1.4,360.2383337769894,
images\blank.jpg,images\blank.jpg,none,none,none,none,0,,636,on,2,0.5,0.75,0.5,0.804,0,635,1,1,1,3,3,48,192,240,,,,,,0,36,36,36,,,,,,,,,,,,,,,,,,,,,,,,,,,,,,,,,,,,,,,,,,,,,,,,,,,,,,,,,371.3374952999875,371.83994189999066,371.83994189999066,372.59524789999705,372.59524789999705,373.0979804999952,373.0979804999952,373.9087884999899,373.9087884999899,373.9087884999899,None,,373.9087884999899,None,miss,0,,376.91057047999493,None,None,376.91057047999493,None,,,,,,,,,,,,,,,,,,,,,,,,,,,,,,,,,,,,,,,,,,,,,,,,,,,,,26,001,0,21,350,425,2022_Oct_20_1524,Experiment,2021.1.4,360.2383337769894,
images\blank.jpg,images\blank.jpg,none,none,none,none,0,,611,on,2,0.5,0.75,0.5,0.847,0,610,2,2,2,3,3,48,192,240,,,,,,0,37,37,37,,,,,,,,,,,,,,,,,,,,,,,,,,,,,,,,,,,,,,,,,,,,,,,,,,,,,,,,,376.93548459999147,377.4381982999912,377.4381982999912,378.1908403999987,378.1908403999987,378.6962555999926,378.6962555999926,379.545984700002,379.545984700002,379.545984700002,None,,379.545984700002,376.93548459999147,miss,0,,382.5477779599896,None,None,382.5477779599896,None,,,,,,,,,,,,,,,,,,,,,,,,,,,,,,,,,,,,,,,,,,,,,,,,,,,,,26,001,0,21,350,425,2022_Oct_20_1524,Experiment,2021.1.4,360.2383337769894,
images\S10_M_S_03.png,images\S10_M_S_03_scrambled.png,10,sad,-30,male,1,,300,off,1,0.5,0.75,0.5,0.874,3,299,1,1,1,0,0,0,0,1,,,,,,0,38,38,38,,,,,,,,,,,,,,,,,,,,,,,,,,,,,,,,,,,,,,,,,,,,,,,,,,,,,,,,,382.71163089999754,383.2141704999958,383.2141704999958,383.9667555999913,383.9667555999913,384.4693510999932,384.4693510999932,385.346847599998,385.346847599998,None,num_4,0.49864429999433924,385.346847599998,382.71163089999754,sad,0,Sad,385.86057961999904,None,None,385.86057961999904,None,,,,,,,,,,,,,,,,,,,,,,,,,,,,,,,,,,,,,,,,,,,,,,,,,,,,,26,001,0,21,350,425,2022_Oct_20_1524,Experiment,2021.1.4,360.2383337769894,
images\S9_F_H_03.png,images\S9_F_H_03_scrambled.png,9,happy,30,female,6,,231,on,2,0.5,0.75,0.5,0.763,3,230,1,1,1,2,2,32,128,166,,,,,,0,39,39,39,,,,,,,,,,,,,,,,,,,,,,,,,,,,,,,,,,,,,,,,,,,,,,,,,,,,,,,,,385.9077862999984,386.4132171999954,386.4132171999954,387.1685290999885,387.1685290999885,387.6711345999938,387.6711345999938,388.4347822999989,388.4347822999989,None,num_6,0.7865928999963216,388.4347822999989,None,happy,0,Happy,389.2345256199915,None,None,389.2345256199915,None,,,,,,,,,,,,,,,,,,,,,,,,,,,,,,,,,,,,,,,,,,,,,,,,,,,,,26,001,0,21,350,425,2022_Oct_20_1524,Experiment,2021.1.4,360.2383337769894,
images\S5_F_S_02.png,images\S5_F_S_02_scrambled.png,5,sad,-20,female,2,,269,off,1,0.5,0.75,0.5,0.768,3,268,1,1,1,0,0,0,0,2,,,,,,0,40,40,40,,,,,,,,,,,,,,,,,,,,,,,,,,,,,,,,,,,,,,,,,,,,,,,,,,,,,,,,,389.2817507,389.7872067999997,389.7872067999997,390.5369243999885,390.5369243999885,391.04234369999904,391.04234369999904,391.81712579999294,391.81712579999294,None,num_4,0.588324600001215,391.81712579999294,None,sad,0,Sad,392.419675319994,None,None,392.419675319994,None,,,,,,,,,,,,,,,,,,,,,,,,,,,,,,,,,,,,,,,,,,,,,,,,,,,,,26,001,0,21,350,425,2022_Oct_20_1524,Experiment,2021.1.4,360.2383337769894,
images\S8_M_S_03.png,images\S8_M_S_03_scrambled.png,8,sad,-30,male,1,,228,on,2,0.5,0.75,0.5,0.751,3,227,1,1,1,2,2,32,128,161,,,,,,0,41,41,41,,,,,,,,,,,,,,,,,,,,,,,,,,,,,,,,,,,,,,,,,,,,,,,,,,,,,,,,,392.5029824999947,393.0028236999933,393.0028236999933,393.75818929998786,393.75818929998786,394.260884599993,394.260884599993,395.01608839999244,395.01608839999244,None,num_4,0.5417315999948187,395.01608839999244,None,sad,0,Sad,395.57434957999794,None,None,395.57434957999794,None,,,,,,,,,,,,,,,,,,,,,,,,,,,,,,,,,,,,,,,,,,,,,,,,,,,,,26,001,0,21,350,425,2022_Oct_20_1524,Experiment,2021.1.4,360.2383337769894,
images\S2_M_H_02.png,images\S2_M_H_02_scrambled.png,2,happy,20,male,5,,488,off,1,0.5,0.75,0.5,0.94,3,487,1,1,1,0,0,0,0,5,,,,,,0,42,42,42,,,,,,,,,,,,,,,,,,,,,,,,,,,,,,,,,,,,,,,,,,,,,,,,,,,,,,,,,395.68256180000026,396.18794779999007,396.18794779999007,396.9377217000001,396.9377217000001,397.4431518999918,397.4431518999918,398.3872839999967,398.3872839999967,None,num_6,0.5381768000079319,398.3872839999967,None,happy,0,Happy,398.94835848000366,None,None,398.94835848000366,None,,,,,,,,,,,,,,,,,,,,,,,,,,,,,,,,,,,,,,,,,,,,,,,,,,,,,26,001,0,21,350,425,2022_Oct_20_1524,Experiment,2021.1.4,360.2383337769894,
images\S10_M_S_03.png,images\S10_M_S_03_scrambled.png,10,sad,-30,male,1,,120,on,2,0.5,0.75,0.5,0.829,3,119,1,1,1,2,2,32,128,161,,,,,,0,43,43,43,,,,,,,,,,,,,,,,,,,,,,,,,,,,,,,,,,,,,,,,,,,,,,,,,,,,,,,,,399.0009790999902,399.50362029999087,399.50362029999087,400.2562743000017,400.2562743000017,400.75878399999056,400.75878399999056,401.591932899988,401.591932899988,None,num_4,0.4618211000051815,401.591932899988,None,sad,0,Sad,402.0751263800048,None,None,402.0751263800048,None,,,,,,,,,,,,,,,,,,,,,,,,,,,,,,,,,,,,,,,,,,,,,,,,,,,,,26,001,0,21,350,425,2022_Oct_20_1524,Experiment,2021.1.4,360.2383337769894,
images\S2_M_S_02.png,images\S2_M_S_02_scrambled.png,2,sad,-20,male,2,,551,on,2,0.5,0.75,0.5,0.773,3,550,2,1,1,2,2,32,128,162,,,,,,0,44,44,44,,,,,,,,,,,,,,,,,,,,,,,,,,,,,,,,,,,,,,,,,,,,,,,,,,,,,,,,,402.1250166999962,402.62485729999025,402.62485729999025,403.3774233000004,403.3774233000004,403.8800368999946,403.8800368999946,404.6576066999987,404.6576066999987,None,num_4,0.32467109999561217,404.6576066999987,None,sad,0,Sad,405.0102236199964,None,None,405.0102236199964,None,,,,,,,,,,,,,,,,,,,,,,,,,,,,,,,,,,,,,,,,,,,,,,,,,,,,,26,001,0,21,350,425,2022_Oct_20_1524,Experiment,2021.1.4,360.2383337769894,
images\S1_F_S_02.png,images\S1_F_S_02_scrambled.png,1,sad,-20,female,2,,245,off,1,0.5,0.75,0.5,0.869,3,244,1,1,2,0,0,0,0,2,,,,,,0,45,45,45,,,,,,,,,,,,,,,,,,,,,,,,,,,,,,,,,,,,,,,,,,,,,,,,,,,,,,,,,405.06022369999846,405.56006740000157,405.56006740000157,406.3126545999985,406.3126545999985,406.81523539999034,406.81523539999034,407.6872430999938,407.6872430999938,None,num_6,0.4622544000012567,407.6872430999938,None,happy,0,Sad,408.1592717599997,None,None,408.1592717599997,None,,,,,,,,,,,,,,,,,,,,,,,,,,,,,,,,,,,,,,,,,,,,,,,,,,,,,26,001,0,21,350,425,2022_Oct_20_1524,Experiment,2021.1.4,360.2383337769894,
images\S2_M_S_02.png,images\S2_M_S_02_scrambled.png,2,sad,-20,male,2,,131,off,1,0.5,0.75,0.5,0.932,3,130,2,1,3,0,0,0,0,2,,,,,,0,46,46,46,,,,,,,,,,,,,,,,,,,,,,,,,,,,,,,,,,,,,,,,,,,,,,,,,,,,,,,,,408.20648169999185,408.7091078999947,408.7091078999947,409.46172169999045,409.46172169999045,409.9670984999975,409.9670984999975,410.9028959999996,410.9028959999996,None,num_4,0.5186137000127928,410.9028959999996,None,sad,0,Sad,411.4360098199977,None,None,411.4360098199977,None,,,,,,,,,,,,,,,,,,,,,,,,,,,,,,,,,,,,,,,,,,,,,,,,,,,,,26,001,0,21,350,425,2022_Oct_20_1524,Experiment,2021.1.4,360.2383337769894,
images\blank.jpg,images\blank.jpg,none,none,none,none,0,,646,on,2,0.5,0.75,0.5,0.802,0,645,1,1,1,3,3,48,192,240,,,,,,0,47,47,47,,,,,,,,,,,,,,,,,,,,,,,,,,,,,,,,,,,,,,,,,,,,,,,,,,,,,,,,,411.51962359999015,412.0192015999928,412.0192015999928,412.7689715000015,412.7689715000015,413.2716655999975,413.2716655999975,414.07412679999834,414.07412679999834,414.07412679999834,None,,414.07412679999834,None,miss,0,,417.0788075599994,None,None,417.0788075599994,None,,,,,,,,,,,,,,,,,,,,,,,,,,,,,,,,,,,,,,,,,,,,,,,,,,,,,26,001,0,21,350,425,2022_Oct_20_1524,Experiment,2021.1.4,360.2383337769894,
images\S5_F_H_01.png,images\S5_F_H_01_scrambled.png,5,happy,10,female,4,,385,off,1,0.5,0.75,0.5,0.851,3,384,1,1,1,0,0,0,0,4,,,,,,0,48,48,48,,,,,,,,,,,,,,,,,,,,,,,,,,,,,,,,,,,,,,,,,,,,,,,,,,,,,,,,,417.19842669999343,417.6979944999912,417.6979944999912,418.450562500002,418.450562500002,418.95598020000034,418.95598020000034,419.81127939998987,419.81127939998987,None,num_6,0.394311199997901,419.81127939998987,417.19842669999343,happy,0,Happy,420.2194170199946,None,None,420.2194170199946,None,,,,,,,,,,,,,,,,,,,,,,,,,,,,,,,,,,,,,,,,,,,,,,,,,,,,,26,001,0,21,350,425,2022_Oct_20_1524,Experiment,2021.1.4,360.2383337769894,
images\blank.jpg,images\blank.jpg,none,none,none,none,0,,605,on,2,0.5,0.75,0.5,0.94,0,604,1,1,1,3,3,48,192,240,,,,,,0,49,49,49,,,,,,,,,,,,,,,,,,,,,,,,,,,,,,,,,,,,,,,,,,,,,,,,,,,,,,,,,420.3029572999949,420.80816219998815,420.80816219998815,421.5607877000002,421.5607877000002,422.0661417999945,422.0661417999945,423.00748439999006,423.00748439999006,423.00748439999006,None,,423.00748439999006,None,miss,0,,426.0093926599948,None,None,426.0093926599948,None,,,,,,,,,,,,,,,,,,,,,,,,,,,,,,,,,,,,,,,,,,,,,,,,,,,,,26,001,0,21,350,425,2022_Oct_20_1524,Experiment,2021.1.4,360.2383337769894,
images\S6_M_H_01.png,images\S6_M_H_01_scrambled.png,6,happy,10,male,4,,571,on,2,0.5,0.75,0.5,0.849,3,570,2,1,1,2,2,32,128,164,,,,,,0,50,50,50,,,,,,,,,,,,,,,,,,,,,,,,,,,,,,,,,,,,,,,,,,,,,,,,,,,,,,,,,426.1704647000006,426.67589939999743,426.67589939999743,427.428347699999,427.428347699999,427.9309551999904,427.9309551999904,428.78629369998816,428.78629369998816,None,num_6,0.3630101000017021,428.78629369998816,426.1704647000006,happy,0,Happy,429.1666940199939,None,None,429.1666940199939,None,,,,,,,,,,,,,,,,,,,,,,,,,,,,,,,,,,,,,,,,,,,,,,,,,,,,,26,001,0,21,350,425,2022_Oct_20_1524,Experiment,2021.1.4,360.2383337769894,
images\S7_F_S_02.png,images\S7_F_S_02_scrambled.png,7,sad,-20,female,2,,581,on,2,0.5,0.75,0.5,0.908,3,580,3,1,1,2,2,32,128,162,,,,,,0,51,51,51,,,,,,,,,,,,,,,,,,,,,,,,,,,,,,,,,,,,,,,,,,,,,,,,,,,,,,,,,429.2805512999912,429.7859858000011,429.7859858000011,430.5413125999912,430.5413125999912,431.0467046999984,431.0467046999984,431.9574942999898,431.9574942999898,None,num_6,0.6324760999996215,431.9574942999898,None,happy,0,Sad,432.5962836599938,None,None,432.5962836599938,None,,,,,,,,,,,,,,,,,,,,,,,,,,,,,,,,,,,,,,,,,,,,,,,,,,,,,26,001,0,21,350,425,2022_Oct_20_1524,Experiment,2021.1.4,360.2383337769894,
images\S1_F_H_01.png,images\S1_F_H_01_scrambled.png,1,happy,10,female,4,,481,off,1,0.5,0.75,0.5,0.855,3,480,1,1,1,0,0,0,0,4,,,,,,0,52,52,52,,,,,,,,,,,,,,,,,,,,,,,,,,,,,,,,,,,,,,,,,,,,,,,,,,,,,,,,,432.7072834999999,433.2100211999932,433.2100211999932,433.96245429999544,433.96245429999544,434.46519689999695,434.46519689999695,435.32596199998807,435.32596199998807,None,num_6,0.551507500000298,435.32596199998807,None,happy,0,Happy,435.8924220199988,None,None,435.8924220199988,None,,,,,,,,,,,,,,,,,,,,,,,,,,,,,,,,,,,,,,,,,,,,,,,,,,,,,26,001,0,21,350,425,2022_Oct_20_1524,Experiment,2021.1.4,360.2383337769894,
images\S9_F_H_03.png,images\S9_F_H_03_scrambled.png,9,happy,30,female,6,,171,off,1,0.5,0.75,0.5,0.853,3,170,2,1,1,0,0,0,0,6,,,,,,0,53,53,53,,,,,,,,,,,,,,,,,,,,,,,,,,,,,,,,,,,,,,,,,,,,,,,,,,,,,,,,,435.93960620000144,436.4422244000016,436.4422244000016,437.191991300002,437.191991300002,437.69742289998976,437.69742289998976,438.5556116999942,438.5556116999942,None,num_6,0.45002329999988433,438.5556116999942,None,happy,0,Happy,439.02199012000347,None,None,439.02199012000347,None,,,,,,,,,,,,,,,,,,,,,,,,,,,,,,,,,,,,,,,,,,,,,,,,,,,,,26,001,0,21,350,425,2022_Oct_20_1524,Experiment,2021.1.4,360.2383337769894,
images\S5_F_S_03.png,images\S5_F_S_03_scrambled.png,5,sad,-30,female,1,,150,off,1,0.5,0.75,0.5,0.826,3,149,3,1,1,0,0,0,0,1,,,,,,0,54,54,54,,,,,,,,,,,,,,,,,,,,,,,,,,,,,,,,,,,,,,,,,,,,,,,,,,,,,,,,,439.1302874999965,439.63583949999884,439.63583949999884,440.39106470000115,440.39106470000115,440.8964491999941,440.8964491999941,441.72675109999545,441.72675109999545,None,num_4,0.3024942000047304,441.72675109999545,None,sad,0,Sad,442.04328561999137,None,None,442.04328561999137,None,,,,,,,,,,,,,,,,,,,,,,,,,,,,,,,,,,,,,,,,,,,,,,,,,,,,,26,001,0,21,350,425,2022_Oct_20_1524,Experiment,2021.1.4,360.2383337769894,
images\S3_F_S_02.png,images\S3_F_S_02_scrambled.png,3,sad,-20,female,2,,377,off,1,0.5,0.75,0.5,0.916,3,376,4,1,1,0,0,0,0,2,,,,,,0,55,55,55,,,,,,,,,,,,,,,,,,,,,,,,,,,,,,,,,,,,,,,,,,,,,,,,,,,,,,,,,442.0904967999959,442.5931258999917,442.5931258999917,443.3484527999972,443.3484527999972,443.85111889999826,443.85111889999826,444.77301809999335,444.77301809999335,None,num_4,0.2648404999927152,444.77301809999335,None,sad,0,Sad,445.0591037800041,None,None,445.0591037800041,None,,,,,,,,,,,,,,,,,,,,,,,,,,,,,,,,,,,,,,,,,,,,,,,,,,,,,26,001,0,21,350,425,2022_Oct_20_1524,Experiment,2021.1.4,360.2383337769894,
images\S4_M_S_01.png,images\S4_M_S_01_scrambled.png,4,sad,-10,male,3,,382,off,1,0.5,0.75,0.5,0.809,3,381,5,1,1,0,0,0,0,3,,,,,,0,56,56,56,,,,,,,,,,,,,,,,,,,,,,,,,,,,,,,,,,,,,,,,,,,,,,,,,,,,,,,,,445.14232689999335,445.6477431999956,445.6477431999956,446.40040379999846,446.40040379999846,446.90575839999656,446.90575839999656,447.7165702999919,447.7165702999919,None,num_4,0.304883200005861,447.7165702999919,None,sad,0,Sad,448.03588352000224,None,None,448.03588352000224,None,,,,,,,,,,,,,,,,,,,,,,,,,,,,,,,,,,,,,,,,,,,,,,,,,,,,,26,001,0,21,350,425,2022_Oct_20_1524,Experiment,2021.1.4,360.2383337769894,
images\S3_F_S_02.png,images\S3_F_S_02_scrambled.png,3,sad,-20,female,2,,17,off,1,0.5,0.75,0.5,0.917,3,16,6,1,1,0,0,0,0,2,,,,,,0,57,57,57,,,,,,,,,,,,,,,,,,,,,,,,,,,,,,,,,,,,,,,,,,,,,,,,,,,,,,,,,448.08596079998824,448.5913225999975,448.5913225999975,449.3466274999955,449.3466274999955,449.8520156000013,449.8520156000013,450.771204699995,450.771204699995,None,num_4,0.1147999999957392,450.771204699995,None,sad,0,Sad,450.9045072999943,None,None,450.9045072999943,None,,,,,,,,,,,,,,,,,,,,,,,,,,,,,,,,,,,,,,,,,,,,,,,,,,,,,26,001,0,21,350,425,2022_Oct_20_1524,Experiment,2021.1.4,360.2383337769894,
images\S2_M_H_02.png,images\S2_M_H_02_scrambled.png,2,happy,20,male,5,,368,off,1,0.5,0.75,0.5,0.775,3,367,7,1,1,0,0,0,0,5,,,,,,0,58,58,58,,,,,,,,,,,,,,,,,,,,,,,,,,,,,,,,,,,,,,,,,,,,,,,,,,,,,,,,,450.96831050000037,451.47093579999637,451.47093579999637,452.22352119999414,452.22352119999414,452.7261419999995,452.7261419999995,453.5064558000013,453.5064558000013,None,num_6,0.2826379000034649,453.5064558000013,None,happy,0,Happy,453.80354402000376,None,None,453.80354402000376,None,,,,,,,,,,,,,,,,,,,,,,,,,,,,,,,,,,,,,,,,,,,,,,,,,,,,,26,001,0,21,350,425,2022_Oct_20_1524,Experiment,2021.1.4,360.2383337769894,
images\S4_M_H_02.png,images\S4_M_H_02_scrambled.png,4,happy,20,male,5,,440,on,2,0.5,0.75,0.5,0.851,3,439,1,1,2,2,2,32,128,165,,,,,,0,59,59,59,,,,,,,,,,,,,,,,,,,,,,,,,,,,,,,,,,,,,,,,,,,,,,,,,,,,,,,,,453.9118417999998,454.41169579999405,454.41169579999405,455.1642719999945,455.1642719999945,455.66689019999467,455.66689019999467,456.5221839000005,456.5221839000005,None,num_6,0.5792548000026727,456.5221839000005,None,happy,0,Happy,457.1163974200026,None,None,457.1163974200026,None,,,,,,,,,,,,,,,,,,,,,,,,,,,,,,,,,,,,,,,,,,,,,,,,,,,,,26,001,0,21,350,425,2022_Oct_20_1524,Experiment,2021.1.4,360.2383337769894,
images\S10_M_S_02.png,images\S10_M_S_02_scrambled.png,10,sad,-20,male,2,,179,off,1,0.5,0.75,0.5,0.904,3,178,1,1,1,0,0,0,0,2,,,,,,0,60,60,60,,,,,,,,,,,,,,,,,,,,,,,,,,,,,,,,,,,,,,,,,,,,,,,,,,,,,,,,,457.19972599999164,457.7023909999989,457.7023909999989,458.4521257999877,458.4521257999877,458.9547420999879,458.9547420999879,459.86283109999204,459.86283109999204,None,num_6,0.2869401000061771,459.86283109999204,None,happy,0,Sad,460.1600188599987,None,None,460.1600188599987,None,,,,,,,,,,,,,,,,,,,,,,,,,,,,,,,,,,,,,,,,,,,,,,,,,,,,,26,001,0,21,350,425,2022_Oct_20_1524,Experiment,2021.1.4,360.2383337769894,
images\S9_F_S_02.png,images\S9_F_S_02_scrambled.png,9,sad,-20,female,2,,53,off,1,0.5,0.75,0.5,0.871,3,52,2,1,2,0,0,0,0,2,,,,,,0,61,61,61,,,,,,,,,,,,,,,,,,,,,,,,,,,,,,,,,,,,,,,,,,,,,,,,,,,,,,,,,460.27378069999395,460.776397499998,460.776397499998,461.5318197999877,461.5318197999877,462.03716559999157,462.03716559999157,462.91192619998765,462.91192619998765,None,num_4,0.5502948000066681,462.91192619998765,None,sad,0,Sad,463.48683266000444,None,None,463.48683266000444,None,,,,,,,,,,,,,,,,,,,,,,,,,,,,,,,,,,,,,,,,,,,,,,,,,,,,,26,001,0,21,350,425,2022_Oct_20_1524,Experiment,2021.1.4,360.2383337769894,
images\S8_M_S_03.png,images\S8_M_S_03_scrambled.png,8,sad,-30,male,1,,108,on,2,0.5,0.75,0.5,0.945,3,107,1,1,1,2,2,32,128,161,,,,,,0,62,62,62,,,,,,,,,,,,,,,,,,,,,,,,,,,,,,,,,,,,,,,,,,,,,,,,,,,,,,,,,463.53943929998786,464.0421148999885,464.0421148999885,464.7918434999883,464.7918434999883,465.2945083999948,465.2945083999948,466.2413816999906,466.2413816999906,None,num_4,0.5325314999936381,466.2413816999906,None,sad,0,Sad,466.7940834799956,None,None,466.7940834799956,None,,,,,,,,,,,,,,,,,,,,,,,,,,,,,,,,,,,,,,,,,,,,,,,,,,,,,26,001,0,21,350,425,2022_Oct_20_1524,Experiment,2021.1.4,360.2383337769894,
images\S3_F_H_01.png,images\S3_F_H_01_scrambled.png,3,happy,10,female,4,,73,on,2,0.5,0.75,0.5,0.768,3,72,2,1,1,2,2,32,128,164,,,,,,0,63,63,63,,,,,,,,,,,,,,,,,,,,,,,,,,,,,,,,,,,,,,,,,,,,,,,,,,,,,,,,,466.902294399988,467.4077313999878,467.4077313999878,468.1602760999958,468.1602760999958,468.66285409999546,468.66285409999546,469.437666599988,469.437666599988,None,num_6,0.9678608999965945,469.437666599988,None,happy,0,Happy,470.4206301200029,None,None,470.4206301200029,None,,,,,,,,,,,,,,,,,,,,,,,,,,,,,,,,,,,,,,,,,,,,,,,,,,,,,26,001,0,21,350,425,2022_Oct_20_1524,Experiment,2021.1.4,360.2383337769894,
images\S10_M_S_02.png,images\S10_M_S_02_scrambled.png,10,sad,-20,male,2,,479,on,2,0.5,0.75,0.5,0.799,3,478,3,1,1,2,2,32,128,162,,,,,,0,64,64,64,,,,,,,,,,,,,,,,,,,,,,,,,,,,,,,,,,,,,,,,,,,,,,,,,,,,,,,,,470.4679100999929,470.9706213999889,470.9706213999889,471.72302729998773,471.72302729998773,472.22845749999397,472.22845749999397,473.03096769998956,473.03096769998956,None,num_6,0.854513099999167,473.03096769998956,None,happy,0,Sad,473.89455795999675,None,None,473.89455795999675,None,,,,,,,,,,,,,,,,,,,,,,,,,,,,,,,,,,,,,,,,,,,,,,,,,,,,,26,001,0,21,350,425,2022_Oct_20_1524,Experiment,2021.1.4,360.2383337769894,
images\S6_M_H_02.png,images\S6_M_H_02_scrambled.png,6,happy,20,male,5,,152,off,1,0.5,0.75,0.5,0.832,3,151,1,1,1,0,0,0,0,5,,,,,,0,65,65,65,,,,,,,,,,,,,,,,,,,,,,,,,,,,,,,,,,,,,,,,,,,,,,,,,,,,,,,,,473.9751280999917,474.4777713999938,474.4777713999938,475.2275062999979,475.2275062999979,475.73014239998884,475.73014239998884,476.5661151999957,476.5661151999957,None,num_6,0.27929950000543613,476.5661151999957,None,happy,0,Happy,476.86031652000383,None,None,476.86031652000383,None,,,,,,,,,,,,,,,,,,,,,,,,,,,,,,,,,,,,,,,,,,,,,,,,,,,,,26,001,0,21,350,425,2022_Oct_20_1524,Experiment,2021.1.4,360.2383337769894,
images\S8_M_S_03.png,images\S8_M_S_03_scrambled.png,8,sad,-30,male,1,,468,on,2,0.5,0.75,0.5,0.898,3,467,1,1,1,2,2,32,128,161,,,,,,0,66,66,66,,,,,,,,,,,,,,,,,,,,,,,,,,,,,,,,,,,,,,,,,,,,,,,,,,,,,,,,,476.907547099996,477.40739069999836,477.40739069999836,478.1627407999913,478.1627407999913,478.668139699992,478.668139699992,479.5734095999942,479.5734095999942,None,num_4,0.32051929998851847,479.5734095999942,None,sad,0,Sad,479.9150330800039,None,None,479.9150330800039,None,,,,,,,,,,,,,,,,,,,,,,,,,,,,,,,,,,,,,,,,,,,,,,,,,,,,,26,001,0,21,350,425,2022_Oct_20_1524,Experiment,2021.1.4,360.2383337769894,
images\S4_M_S_03.png,images\S4_M_S_03_scrambled.png,4,sad,-30,male,1,,564,on,2,0.5,0.75,0.5,0.895,3,563,2,1,2,2,2,32,128,161,,,,,,0,67,67,67,,,,,,,,,,,,,,,,,,,,,,,,,,,,,,,,,,,,,,,,,,,,,,,,,,,,,,,,,480.02324759999465,480.5230962999922,480.5230962999922,481.2784411999892,481.2784411999892,481.7811864999967,481.7811864999967,482.6780190999998,482.6780190999998,None,num_4,0.46325219998834655,482.6780190999998,None,sad,0,Sad,483.15841640000144,None,None,483.15841640000144,None,,,,,,,,,,,,,,,,,,,,,,,,,,,,,,,,,,,,,,,,,,,,,,,,,,,,,26,001,0,21,350,425,2022_Oct_20_1524,Experiment,2021.1.4,360.2383337769894,
images\S1_F_S_02.png,images\S1_F_S_02_scrambled.png,1,sad,-20,female,2,,485,off,1,0.5,0.75,0.5,0.819,3,484,1,1,1,0,0,0,0,2,,,,,,0,68,68,68,,,,,,,,,,,,,,,,,,,,,,,,,,,,,,,,,,,,,,,,,,,,,,,,,,,,,,,,,483.2056184999965,483.708255199992,483.708255199992,484.45799549999356,484.45799549999356,484.96074640000006,484.96074640000006,485.78259779998916,485.78259779998916,None,num_4,1.614757200004533,485.78259779998916,None,sad,0,Sad,487.41261971999484,None,None,487.41261971999484,None,,,,,,,,,,,,,,,,,,,,,,,,,,,,,,,,,,,,,,,,,,,,,,,,,,,,,26,001,0,21,350,425,2022_Oct_20_1524,Experiment,2021.1.4,360.2383337769894,
images\S7_F_H_02.png,images\S7_F_H_02_scrambled.png,7,happy,20,female,5,,518,off,1,0.5,0.75,0.5,0.906,3,517,2,1,1,0,0,0,0,5,,,,,,0,69,69,69,,,,,,,,,,,,,,,,,,,,,,,,,,,,,,,,,,,,,,,,,,,,,,,,,,,,,,,,,487.5069986999879,488.00689330000023,488.00689330000023,488.75666439998895,488.75666439998895,489.2621689999942,489.2621689999942,490.1729486999975,490.1729486999975,None,num_6,0.6004960000136634,490.1729486999975,None,happy,0,Happy,490.79228755999793,None,None,490.79228755999793,None,,,,,,,,,,,,,,,,,,,,,,,,,,,,,,,,,,,,,,,,,,,,,,,,,,,,,26,001,0,21,350,425,2022_Oct_20_1524,Experiment,2021.1.4,360.2383337769894,
images\S6_M_H_02.png,images\S6_M_H_02_scrambled.png,6,happy,20,male,5,,332,on,2,0.5,0.75,0.5,0.776,3,331,1,1,2,2,2,32,128,165,,,,,,0,70,70,70,,,,,,,,,,,,,,,,,,,,,,,,,,,,,,,,,,,,,,,,,,,,,,,,,,,,,,,,,490.8421556999965,491.3447850999946,491.3447850999946,492.0973862999963,492.0973862999963,492.5999351999926,492.5999351999926,493.3830861999886,493.3830861999886,None,num_6,0.8622292000072775,493.3830861999886,None,happy,0,Happy,494.26053122000303,None,None,494.26053122000303,None,,,,,,,,,,,,,,,,,,,,,,,,,,,,,,,,,,,,,,,,,,,,,,,,,,,,,26,001,0,21,350,425,2022_Oct_20_1524,Experiment,2021.1.4,360.2383337769894,
images\blank.jpg,images\blank.jpg,none,none,none,none,0,,641,on,2,0.5,0.75,0.5,0.903,0,640,2,1,1,3,3,48,192,240,,,,,,0,71,71,71,,,,,,,,,,,,,,,,,,,,,,,,,,,,,,,,,,,,,,,,,,,,,,,,,,,,,,,,,494.34405319999496,494.84368719998747,494.84368719998747,495.59902179999335,495.59902179999335,496.1044294999883,496.1044294999883,497.01259309999296,497.01259309999296,497.01259309999296,None,,497.01259309999296,None,miss,0,,500.0143815600022,None,None,500.0143815600022,None,,,,,,,,,,,,,,,,,,,,,,,,,,,,,,,,,,,,,,,,,,,,,,,,,,,,,26,001,0,21,350,425,2022_Oct_20_1524,Experiment,2021.1.4,360.2383337769894,
images\S2_M_H_03.png,images\S2_M_H_03_scrambled.png,2,happy,30,male,6,,369,off,1,0.5,0.75,0.5,0.85,3,368,1,1,1,0,0,0,0,6,,,,,,0,72,72,72,,,,,,,,,,,,,,,,,,,,,,,,,,,,,,,,,,,,,,,,,,,,,,,,,,,,,,,,,500.1645931999956,500.6669091999938,500.6669091999938,501.41946299999836,501.41946299999836,501.92489779999596,501.92489779999596,502.78018019998854,502.78018019998854,None,num_6,0.27337290000286885,502.78018019998854,500.1645931999956,happy,0,Happy,503.08011503999296,None,None,503.08011503999296,None,,,,,,,,,,,,,,,,,,,,,,,,,,,,,,,,,,,,,,,,,,,,,,,,,,,,,26,001,0,21,350,425,2022_Oct_20_1524,Experiment,2021.1.4,360.2383337769894,
images\S3_F_S_03.png,images\S3_F_S_03_scrambled.png,3,sad,-30,female,1,,258,off,1,0.5,0.75,0.5,0.793,3,257,2,1,1,0,0,0,0,1,,,,,,0,73,73,73,,,,,,,,,,,,,,,,,,,,,,,,,,,,,,,,,,,,,,,,,,,,,,,,,,,,,,,,,503.1439124999888,503.64655399999174,503.64655399999174,504.3990752999962,504.3990752999962,504.9046129999915,504.9046129999915,505.7043696999899,505.7043696999899,None,num_4,0.3330153999995673,505.7043696999899,None,sad,0,Sad,506.065282940006,None,None,506.065282940006,None,,,,,,,,,,,,,,,,,,,,,,,,,,,,,,,,,,,,,,,,,,,,,,,,,,,,,26,001,0,21,350,425,2022_Oct_20_1524,Experiment,2021.1.4,360.2383337769894,
images\S8_M_S_02.png,images\S8_M_S_02_scrambled.png,8,sad,-20,male,2,,467,on,2,0.5,0.75,0.5,0.86,3,466,1,1,1,2,2,32,128,162,,,,,,0,74,74,74,,,,,,,,,,,,,,,,,,,,,,,,,,,,,,,,,,,,,,,,,,,,,,,,,,,,,,,,,506.11799469999096,506.6206579999998,506.6206579999998,507.37038959999336,507.37038959999336,507.8730457999918,507.8730457999918,508.7395109999925,508.7395109999925,None,num_4,0.5060412000020733,508.7395109999925,None,sad,0,Sad,509.2753493000055,None,None,509.2753493000055,None,,,,,,,,,,,,,,,,,,,,,,,,,,,,,,,,,,,,,,,,,,,,,,,,,,,,,26,001,0,21,350,425,2022_Oct_20_1524,Experiment,2021.1.4,360.2383337769894,
images\S7_F_H_01.png,images\S7_F_H_01_scrambled.png,7,happy,10,female,4,,97,on,2,0.5,0.75,0.5,0.786,3,96,2,1,1,2,2,32,128,164,,,,,,0,75,75,75,,,,,,,,,,,,,,,,,,,,,,,,,,,,,,,,,,,,,,,,,,,,,,,,,,,,,,,,,509.36145079998823,509.86406179999176,509.86406179999176,510.6194848999876,510.6194848999876,511.1220215999929,511.1220215999929,511.9106565999973,511.9106565999973,None,num_6,0.646848599993973,511.9106565999973,None,happy,0,Happy,512.5715433199948,None,None,512.5715433199948,None,,,,,,,,,,,,,,,,,,,,,,,,,,,,,,,,,,,,,,,,,,,,,,,,,,,,,26,001,0,21,350,425,2022_Oct_20_1524,Experiment,2021.1.4,360.2383337769894,
images\S4_M_S_01.png,images\S4_M_S_01_scrambled.png,4,sad,-10,male,3,,262,off,1,0.5,0.75,0.5,0.908,3,261,1,1,1,0,0,0,0,3,,,,,,0,76,76,76,,,,,,,,,,,,,,,,,,,,,,,,,,,,,,,,,,,,,,,,,,,,,,,,,,,,,,,,,512.6187748999946,513.1186156999902,513.1186156999902,513.8711596999929,513.8711596999929,514.3739257999987,514.3739257999987,515.2818308999995,515.2818308999995,None,num_6,0.3396699000004446,515.2818308999995,None,happy,0,Sad,515.6262633599981,None,None,515.6262633599981,None,,,,,,,,,,,,,,,,,,,,,,,,,,,,,,,,,,,,,,,,,,,,,,,,,,,,,26,001,0,21,350,425,2022_Oct_20_1524,Experiment,2021.1.4,360.2383337769894,
images\S10_M_H_03.png,images\S10_M_H_03_scrambled.png,10,happy,30,male,6,,477,on,2,0.5,0.75,0.5,0.773,3,476,1,1,1,2,2,32,128,166,,,,,,0,77,77,77,,,,,,,,,,,,,,,,,,,,,,,,,,,,,,,,,,,,,,,,,,,,,,,,,,,,,,,,,515.7344799999992,516.2399250000017,516.2399250000017,516.995228499989,516.995228499989,517.4950612999965,517.4950612999965,518.275404,518.275404,None,num_6,0.2741813999891747,518.275404,None,happy,0,Happy,518.5725066599916,None,None,518.5725066599916,None,,,,,,,,,,,,,,,,,,,,,,,,,,,,,,,,,,,,,,,,,,,,,,,,,,,,,26,001,0,21,350,425,2022_Oct_20_1524,Experiment,2021.1.4,360.2383337769894,
images\S8_M_S_02.png,images\S8_M_S_02_scrambled.png,8,sad,-20,male,2,,407,off,1,0.5,0.75,0.5,0.838,3,406,1,1,1,0,0,0,0,2,,,,,,0,78,78,78,,,,,,,,,,,,,,,,,,,,,,,,,,,,,,,,,,,,,,,,,,,,,,,,,,,,,,,,,518.6252564999886,519.1306826999935,519.1306826999935,519.8860134999995,519.8860134999995,520.388630299989,520.388630299989,521.2300503000006,521.2300503000006,None,num_4,0.5113888000050792,521.2300503000006,None,sad,0,Sad,521.7521203200013,None,None,521.7521203200013,None,,,,,,,,,,,,,,,,,,,,,,,,,,,,,,,,,,,,,,,,,,,,,,,,,,,,,26,001,0,21,350,425,2022_Oct_20_1524,Experiment,2021.1.4,360.2383337769894,
images\S6_M_H_01.png,images\S6_M_H_01_scrambled.png,6,happy,10,male,4,,31,off,1,0.5,0.75,0.5,0.773,3,30,2,1,1,0,0,0,0,4,,,,,,0,79,79,79,,,,,,,,,,,,,,,,,,,,,,,,,,,,,,,,,,,,,,,,,,,,,,,,,,,,,,,,,521.79927399999,522.3018969999976,522.3018969999976,523.0544679000013,523.0544679000013,523.5598922999925,523.5598922999925,524.3346922999917,524.3346922999917,None,num_6,0.31067950000579003,524.3346922999917,None,happy,0,Happy,524.6594878199976,None,None,524.6594878199976,None,,,,,,,,,,,,,,,,,,,,,,,,,,,,,,,,,,,,,,,,,,,,,,,,,,,,,26,001,0,21,350,425,2022_Oct_20_1524,Experiment,2021.1.4,360.2383337769894,
images\S6_M_H_01.png,images\S6_M_H_01_scrambled.png,6,happy,10,male,4,,91,on,2,0.5,0.75,0.5,0.912,3,90,1,2,2,2,2,32,128,164,,,,,,0,80,80,80,,,,,,,,,,,,,,,,,,,,,,,,,,,,,,,,,,,,,,,,,,,,,,,,,,,,,,,,,524.7067171999952,525.2121279999992,525.2121279999992,525.9647489999916,525.9647489999916,526.4701061999949,526.4701061999949,527.3893457999948,527.3893457999948,None,num_6,0.8723181999957887,527.3893457999948,None,happy,0,Happy,528.283510039997,None,None,528.283510039997,None,,,,,,,,,,,,,,,,,,,,,,,,,,,,,,,,,,,,,,,,,,,,,,,,,,,,,26,001,0,21,350,425,2022_Oct_20_1524,Experiment,2021.1.4,360.2383337769894,
images\S3_F_H_03.png,images\S3_F_H_03_scrambled.png,3,happy,30,female,6,,75,on,2,0.5,0.75,0.5,0.865,3,74,2,1,1,2,2,32,128,166,,,,,,0,81,81,81,,,,,,,,,,,,,,,,,,,,,,,,,,,,,,,,,,,,,,,,,,,,,,,,,,,,,,,,,528.3916954999877,528.8943346999877,528.8943346999877,529.6440935999999,529.6440935999999,530.149651499989,530.149651499989,531.0158832000016,531.0158832000016,None,num_6,0.5577433000144083,531.0158832000016,None,happy,0,Happy,531.587937119999,None,None,531.587937119999,None,,,,,,,,,,,,,,,,,,,,,,,,,,,,,,,,,,,,,,,,,,,,,,,,,,,,,26,001,0,21,350,425,2022_Oct_20_1524,Experiment,2021.1.4,360.2383337769894,
images\blank.jpg,images\blank.jpg,none,none,none,none,0,,639,on,2,0.5,0.75,0.5,0.867,0,638,3,1,1,3,3,48,192,240,,,,,,0,82,82,82,,,,,,,,,,,,,,,,,,,,,,,,,,,,,,,,,,,,,,,,,,,,,,,,,,,,,,,,,531.6714925999986,532.173987999995,532.173987999995,532.9236607999919,532.9236607999919,533.4291389999999,533.4291389999999,534.2954666000005,534.2954666000005,534.2954666000005,None,,534.2954666000005,None,miss,0,,537.2973531600001,None,None,537.2973531600001,None,,,,,,,,,,,,,,,,,,,,,,,,,,,,,,,,,,,,,,,,,,,,,,,,,,,,,26,001,0,21,350,425,2022_Oct_20_1524,Experiment,2021.1.4,360.2383337769894,
images\S2_M_S_01.png,images\S2_M_S_01_scrambled.png,2,sad,-10,male,3,,70,on,2,0.5,0.75,0.5,0.758,3,69,4,1,1,2,2,32,128,163,,,,,,0,83,83,83,,,,,,,,,,,,,,,,,,,,,,,,,,,,,,,,,,,,,,,,,,,,,,,,,,,,,,,,,537.4168764999922,537.9165341999906,537.9165341999906,538.6663107999921,538.6663107999921,539.168958299997,539.168958299997,539.9326059999876,539.9326059999876,None,num_4,0.016487000000779517,539.9326059999876,537.4168764999922,sad,0,Sad,539.963138320003,None,None,539.963138320003,None,,,,,,,,,,,,,,,,,,,,,,,,,,,,,,,,,,,,,,,,,,,,,,,,,,,,,26,001,0,21,350,425,2022_Oct_20_1524,Experiment,2021.1.4,360.2383337769894,
images\S8_M_S_02.png,images\S8_M_S_02_scrambled.png,8,sad,-20,male,2,,347,on,2,0.5,0.75,0.5,0.884,3,346,5,1,1,2,2,32,128,162,,,,,,0,84,84,84,,,,,,,,,,,,,,,,,,,,,,,,,,,,,,,,,,,,,,,,,,,,,,,,,,,,,,,,,540.0132050999964,540.5129578999913,540.5129578999913,541.2655488999881,541.2655488999881,541.7681909999956,541.7681909999956,542.6539564999985,542.6539564999985,None,num_4,0.27904120000312105,542.6539564999985,None,sad,0,Sad,542.9483130199951,None,None,542.9483130199951,None,,,,,,,,,,,,,,,,,,,,,,,,,,,,,,,,,,,,,,,,,,,,,,,,,,,,,26,001,0,21,350,425,2022_Oct_20_1524,Experiment,2021.1.4,360.2383337769894,
images\S3_F_H_01.png,images\S3_F_H_01_scrambled.png,3,happy,10,female,4,,553,on,2,0.5,0.75,0.5,0.78,3,552,6,1,1,2,2,32,128,164,,,,,,0,85,85,85,,,,,,,,,,,,,,,,,,,,,,,,,,,,,,,,,,,,,,,,,,,,,,,,,,,,,,,,,542.9955233999935,543.498196799992,543.498196799992,544.2506972999981,544.2506972999981,544.7533618000016,544.7533618000016,545.5336367999989,545.5336367999989,None,num_4,1.1837558000115678,545.5336367999989,None,sad,0,Happy,546.7249101600028,None,None,546.7249101600028,None,,,,,,,,,,,,,,,,,,,,,,,,,,,,,,,,,,,,,,,,,,,,,,,,,,,,,26,001,0,21,350,425,2022_Oct_20_1524,Experiment,2021.1.4,360.2383337769894,
images\S5_F_H_01.png,images\S5_F_H_01_scrambled.png,5,happy,10,female,4,,565,on,2,0.5,0.75,0.5,0.773,3,564,7,1,2,2,2,32,128,164,,,,,,0,86,86,86,,,,,,,,,,,,,,,,,,,,,,,,,,,,,,,,,,,,,,,,,,,,,,,,,,,,,,,,,546.772151600002,547.274794500001,547.274794500001,548.0273406999913,548.0273406999913,548.5271978999954,548.5271978999954,549.3047355999879,549.3047355999879,None,num_6,0.3564410999970278,549.3047355999879,None,happy,0,Happy,549.6712733199965,None,None,549.6712733199965,None,,,,,,,,,,,,,,,,,,,,,,,,,,,,,,,,,,,,,,,,,,,,,,,,,,,,,26,001,0,21,350,425,2022_Oct_20_1524,Experiment,2021.1.4,360.2383337769894,
images\S4_M_H_01.png,images\S4_M_H_01_scrambled.png,4,happy,10,male,4,,139,off,1,0.5,0.75,0.5,0.91,3,138,1,1,3,0,0,0,0,4,,,,,,0,87,87,87,,,,,,,,,,,,,,,,,,,,,,,,,,,,,,,,,,,,,,,,,,,,,,,,,,,,,,,,,549.7212359999976,550.22109549999,550.22109549999,550.9764118999883,550.9764118999883,551.4790890000004,551.4790890000004,552.3926451000007,552.3926451000007,None,num_6,0.7251269999978831,552.3926451000007,None,happy,0,Happy,553.1369410799962,None,None,553.1369410799962,None,,,,,,,,,,,,,,,,,,,,,,,,,,,,,,,,,,,,,,,,,,,,,,,,,,,,,26,001,0,21,350,425,2022_Oct_20_1524,Experiment,2021.1.4,360.2383337769894,
images\S9_F_S_02.png,images\S9_F_S_02_scrambled.png,9,sad,-20,female,2,,413,off,1,0.5,0.75,0.5,0.791,3,412,2,1,1,0,0,0,0,2,,,,,,0,88,88,88,,,,,,,,,,,,,,,,,,,,,,,,,,,,,,,,,,,,,,,,,,,,,,,,,,,,,,,,,553.1896122999897,553.6950450000004,553.6950450000004,554.4447791999992,554.4447791999992,554.9502130999899,554.9502130999899,555.7444214999996,555.7444214999996,None,num_6,0.620903899995028,555.7444214999996,None,happy,0,Sad,556.3747314599896,None,None,556.3747314599896,None,,,,,,,,,,,,,,,,,,,,,,,,,,,,,,,,,,,,,,,,,,,,,,,,,,,,,26,001,0,21,350,425,2022_Oct_20_1524,Experiment,2021.1.4,360.2383337769894,
images\S4_M_H_03.png,images\S4_M_H_03_scrambled.png,4,happy,30,male,6,,261,off,1,0.5,0.75,0.5,0.819,3,260,3,1,1,0,0,0,0,6,,,,,,0,89,89,89,,,,,,,,,,,,,,,,,,,,,,,,,,,,,,,,,,,,,,,,,,,,,,,,,,,,,,,,,556.4552794999909,556.9580339999957,556.9580339999957,557.7104668999964,557.7104668999964,558.2130639999959,558.2130639999959,559.0350334999966,559.0350334999966,None,num_6,0.4184989999921527,559.0350334999966,None,happy,0,Happy,559.4793997399975,None,None,559.4793997399975,None,,,,,,,,,,,,,,,,,,,,,,,,,,,,,,,,,,,,,,,,,,,,,,,,,,,,,26,001,0,21,350,425,2022_Oct_20_1524,Experiment,2021.1.4,360.2383337769894,
images\S10_M_H_01.png,images\S10_M_H_01_scrambled.png,10,happy,10,male,4,,535,off,1,0.5,0.75,0.5,0.797,3,534,4,1,1,0,0,0,0,4,,,,,,0,90,90,90,,,,,,,,,,,,,,,,,,,,,,,,,,,,,,,,,,,,,,,,,,,,,,,,,,,,,,,,,559.5904195999901,560.0931675999891,560.0931675999891,560.8485006999981,560.8485006999981,561.3510324999952,561.3510324999952,562.1536035999889,562.1536035999889,None,num_6,0.3718380999926012,562.1536035999889,None,happy,0,Happy,562.5367543199973,None,None,562.5367543199973,None,,,,,,,,,,,,,,,,,,,,,,,,,,,,,,,,,,,,,,,,,,,,,,,,,,,,,26,001,0,21,350,425,2022_Oct_20_1524,Experiment,2021.1.4,360.2383337769894,
images\S8_M_H_02.png,images\S8_M_H_02_scrambled.png,8,happy,20,male,5,,44,off,1,0.5,0.75,0.5,0.949,3,43,5,1,1,0,0,0,0,5,,,,,,0,91,91,91,,,,,,,,,,,,,,,,,,,,,,,,,,,,,,,,,,,,,,,,,,,,,,,,,,,,,,,,,562.6228222999925,563.1283523999882,563.1283523999882,563.877986499996,563.877986499996,564.3835478999972,564.3835478999972,565.3387440999941,565.3387440999941,None,num_6,0.5143256000010297,565.3387440999941,None,happy,0,Happy,565.8718190799991,None,None,565.8718190799991,None,,,,,,,,,,,,,,,,,,,,,,,,,,,,,,,,,,,,,,,,,,,,,,,,,,,,,26,001,0,21,350,425,2022_Oct_20_1524,Experiment,2021.1.4,360.2383337769894,
images\S4_M_S_02.png,images\S4_M_S_02_scrambled.png,4,sad,-20,male,2,,143,off,1,0.5,0.75,0.5,0.898,3,142,6,1,1,0,0,0,0,2,,,,,,0,92,92,92,,,,,,,,,,,,,,,,,,,,,,,,,,,,,,,,,,,,,,,,,,,,,,,,,,,,,,,,,565.9801227999997,566.4855413999903,566.4855413999903,567.2381993999879,567.2381993999879,567.7435573999974,567.7435573999974,568.6488269999973,568.6488269999973,None,num_6,0.09298429999034852,568.6488269999973,None,happy,0,Sad,568.7542729399938,None,None,568.7542729399938,None,,,,,,,,,,,,,,,,,,,,,,,,,,,,,,,,,,,,,,,,,,,,,,,,,,,,,26,001,0,21,350,425,2022_Oct_20_1524,Experiment,2021.1.4,360.2383337769894,
images\S5_F_S_02.png,images\S5_F_S_02_scrambled.png,5,sad,-20,female,2,,569,on,2,0.5,0.75,0.5,0.903,3,568,1,1,2,2,2,32,128,162,,,,,,0,93,93,93,,,,,,,,,,,,,,,,,,,,,,,,,,,,,,,,,,,,,,,,,,,,,,,,,,,,,,,,,568.8181369999947,569.3207781999954,569.3207781999954,570.0734318999894,570.0734318999894,570.5759256000019,570.5759256000019,571.4840387000004,571.4840387000004,None,num_6,0.3613908999977866,571.4840387000004,None,happy,0,Sad,571.850565560002,None,None,571.850565560002,None,,,,,,,,,,,,,,,,,,,,,,,,,,,,,,,,,,,,,,,,,,,,,,,,,,,,,26,001,0,21,350,425,2022_Oct_20_1524,Experiment,2021.1.4,360.2383337769894,
images\blank.jpg,images\blank.jpg,none,none,none,none,0,,640,on,2,0.5,0.75,0.5,0.841,0,639,2,1,1,3,3,48,192,240,,,,,,0,94,94,94,,,,,,,,,,,,,,,,,,,,,,,,,,,,,,,,,,,,,,,,,,,,,,,,,,,,,,,,,571.9340749999974,572.439249899995,572.439249899995,573.1917977999983,573.1917977999983,573.6944346999953,573.6944346999953,574.5359557999909,574.5359557999909,574.5359557999909,None,,574.5359557999909,None,miss,0,,577.5404665799942,None,None,577.5404665799942,None,,,,,,,,,,,,,,,,,,,,,,,,,,,,,,,,,,,,,,,,,,,,,,,,,,,,,26,001,0,21,350,425,2022_Oct_20_1524,Experiment,2021.1.4,360.2383337769894,
images\S1_F_H_02.png,images\S1_F_H_02_scrambled.png,1,happy,20,female,5,,242,off,1,0.5,0.75,0.5,0.802,3,241,1,1,1,0,0,0,0,5,,,,,,0,95,95,95,,,,,,,,,,,,,,,,,,,,,,,,,,,,,,,,,,,,,,,,,,,,,,,,,,,,,,,,,577.6544876999978,578.1541670000006,578.1541670000006,578.9039467999974,578.9039467999974,579.4037933999934,579.4037933999934,580.2118628999888,580.2118628999888,None,num_6,0.5454144000104861,580.2118628999888,577.6544876999978,happy,0,Happy,580.7699850200006,None,None,580.7699850200006,None,,,,,,,,,,,,,,,,,,,,,,,,,,,,,,,,,,,,,,,,,,,,,,,,,,,,,26,001,0,21,350,425,2022_Oct_20_1524,Experiment,2021.1.4,360.2383337769894,
images\S1_F_H_02.png,images\S1_F_H_02_scrambled.png,1,happy,20,female,5,,122,off,1,0.5,0.75,0.5,0.751,3,121,2,2,2,0,0,0,0,5,,,,,,0,96,96,96,,,,,,,,,,,,,,,,,,,,,,,,,,,,,,,,,,,,,,,,,,,,,,,,,,,,,,,,,580.8172278999991,581.3170759999921,581.3170759999921,582.0696966999967,582.0696966999967,582.5750419999968,582.5750419999968,583.3303321999992,583.3303321999992,None,num_6,0.428237000000081,583.3303321999992,None,happy,0,Happy,583.7803522400063,None,None,583.7803522400063,None,,,,,,,,,,,,,,,,,,,,,,,,,,,,,,,,,,,,,,,,,,,,,,,,,,,,,26,001,0,21,350,425,2022_Oct_20_1524,Experiment,2021.1.4,360.2383337769894,
images\S1_F_S_01.png,images\S1_F_S_01_scrambled.png,1,sad,-10,female,3,,64,on,2,0.5,0.75,0.5,0.879,3,63,1,3,1,2,2,32,128,163,,,,,,0,97,97,97,,,,,,,,,,,,,,,,,,,,,,,,,,,,,,,,,,,,,,,,,,,,,,,,,,,,,,,,,583.8663615999976,584.3689001999883,584.3689001999883,585.1186683999986,585.1186683999986,585.624164599998,585.624164599998,586.5099536999915,586.5099536999915,None,num_4,0.6393442999979015,586.5099536999915,None,sad,0,Sad,587.1597309200006,None,None,587.1597309200006,None,,,,,,,,,,,,,,,,,,,,,,,,,,,,,,,,,,,,,,,,,,,,,,,,,,,,,26,001,0,21,350,425,2022_Oct_20_1524,Experiment,2021.1.4,360.2383337769894,
images\S7_F_S_03.png,images\S7_F_S_03_scrambled.png,7,sad,-30,female,1,,462,on,2,0.5,0.75,0.5,0.853,3,461,2,1,1,2,2,32,128,161,,,,,,0,98,98,98,,,,,,,,,,,,,,,,,,,,,,,,,,,,,,,,,,,,,,,,,,,,,,,,,,,,,,,,,587.206918099997,587.7096267000015,587.7096267000015,588.4649185000017,588.4649185000017,588.9703249000013,588.9703249000013,589.8255952999898,589.8255952999898,None,num_4,0.6596692000020994,589.8255952999898,None,sad,0,Sad,590.5003453200043,None,None,590.5003453200043,None,,,,,,,,,,,,,,,,,,,,,,,,,,,,,,,,,,,,,,,,,,,,,,,,,,,,,26,001,0,21,350,425,2022_Oct_20_1524,Experiment,2021.1.4,360.2383337769894,
images\S3_F_H_03.png,images\S3_F_H_03_scrambled.png,3,happy,30,female,6,,255,off,1,0.5,0.75,0.5,0.846,3,254,1,1,1,0,0,0,0,6,,,,,,0,99,99,99,,,,,,,,,,,,,,,,,,,,,,,,,,,,,,,,,,,,,,,,,,,,,,,,,,,,,,,,,590.5475596999895,591.0501871000015,591.0501871000015,591.7999555999995,591.7999555999995,592.2997920999915,592.2997920999915,593.1496478999907,593.1496478999907,None,num_6,0.5435687999997754,593.1496478999907,None,happy,0,Happy,593.704916319999,None,None,593.704916319999,None,,,,,,,,,,,,,,,,,,,,,,,,,,,,,,,,,,,,,,,,,,,,,,,,,,,,,26,001,0,21,350,425,2022_Oct_20_1524,Experiment,2021.1.4,360.2383337769894,
images\S6_M_S_02.png,images\S6_M_S_02_scrambled.png,6,sad,-20,male,2,,95,on,2,0.5,0.75,0.5,0.765,3,94,1,1,1,2,2,32,128,162,,,,,,0,100,100,100,,,,,,,,,,,,,,,,,,,,,,,,,,,,,,,,,,,,,,,,,,,,,,,,,,,,,,,,,593.7521275999898,594.2519680999976,594.2519680999976,595.0017367999972,595.0017367999972,595.5044821999909,595.5044821999909,596.2737011999998,596.2737011999998,None,num_6,0.3876908999955049,596.2737011999998,None,happy,0,Sad,596.6762848400031,None,None,596.6762848400031,None,,,,,,,,,,,,,,,,,,,,,,,,,,,,,,,,,,,,,,,,,,,,,,,,,,,,,26,001,0,21,350,425,2022_Oct_20_1524,Experiment,2021.1.4,360.2383337769894,
images\S7_F_S_01.png,images\S7_F_S_01_scrambled.png,7,sad,-10,female,3,,400,off,1,0.5,0.75,0.5,0.92,3,399,1,1,1,0,0,0,0,3,,,,,,0,101,101,101,,,,,,,,,,,,,,,,,,,,,,,,,,,,,,,,,,,,,,,,,,,,,,,,,,,,,,,,,596.73454759999,597.2399421000009,597.2399421000009,597.9953116999968,597.9953116999968,598.4979278999963,598.4979278999963,599.4198208000016,599.4198208000016,None,num_6,0.2660409000091022,599.4198208000016,None,happy,0,Sad,599.694867860002,None,None,599.694867860002,None,,,,,,,,,,,,,,,,,,,,,,,,,,,,,,,,,,,,,,,,,,,,,,,,,,,,,26,001,0,21,350,425,2022_Oct_20_1524,Experiment,2021.1.4,360.2383337769894,
images\S3_F_H_02.png,images\S3_F_H_02_scrambled.png,3,happy,20,female,5,,194,on,2,0.5,0.75,0.5,0.879,3,193,1,1,1,2,2,32,128,165,,,,,,0,102,102,102,,,,,,,,,,,,,,,,,,,,,,,,,,,,,,,,,,,,,,,,,,,,,,,,,,,,,,,,,599.8002942999883,600.3001146999886,600.3001146999886,601.0527063999907,601.0527063999907,601.5553188999911,601.5553188999911,602.4411460999982,602.4411460999982,None,num_6,0.14816650000284426,602.4411460999982,None,happy,0,Happy,602.5994236199913,None,None,602.5994236199913,None,,,,,,,,,,,,,,,,,,,,,,,,,,,,,,,,,,,,,,,,,,,,,,,,,,,,,26,001,0,21,350,425,2022_Oct_20_1524,Experiment,2021.1.4,360.2383337769894,
images\S7_F_H_01.png,images\S7_F_H_01_scrambled.png,7,happy,10,female,4,,217,on,2,0.5,0.75,0.5,0.829,3,216,2,1,1,2,2,32,128,164,,,,,,0,103,103,103,,,,,,,,,,,,,,,,,,,,,,,,,,,,,,,,,,,,,,,,,,,,,,,,,,,,,,,,,602.6466088000016,603.1520240999962,603.1520240999962,603.9046487000014,603.9046487000014,604.4100099999923,604.4100099999923,605.2458394999994,605.2458394999994,None,num_6,1.5114716999960365,605.2458394999994,None,happy,0,Happy,606.7731231200014,None,None,606.7731231200014,None,,,,,,,,,,,,,,,,,,,,,,,,,,,,,,,,,,,,,,,,,,,,,,,,,,,,,26,001,0,21,350,425,2022_Oct_20_1524,Experiment,2021.1.4,360.2383337769894,
images\S9_F_H_02.png,images\S9_F_H_02_scrambled.png,9,happy,20,female,5,,410,off,1,0.5,0.75,0.5,0.753,3,409,1,1,1,0,0,0,0,5,,,,,,0,104,104,104,,,,,,,,,,,,,,,,,,,,,,,,,,,,,,,,,,,,,,,,,,,,,,,,,,,,,,,,,606.856429099993,607.3618360999972,607.3618360999972,608.1171601999959,608.1171601999959,608.6198126999952,608.6198126999952,609.3751435999875,609.3751435999875,None,num_6,0.8141556000045966,609.3751435999875,None,happy,0,Happy,610.1998367199994,None,None,610.1998367199994,None,,,,,,,,,,,,,,,,,,,,,,,,,,,,,,,,,,,,,,,,,,,,,,,,,,,,,26,001,0,21,350,425,2022_Oct_20_1524,Experiment,2021.1.4,360.2383337769894,
images\S7_F_S_02.png,images\S7_F_S_02_scrambled.png,7,sad,-20,female,2,,281,off,1,0.5,0.75,0.5,0.797,3,280,2,1,1,0,0,0,0,2,,,,,,0,105,105,105,,,,,,,,,,,,,,,,,,,,,,,,,,,,,,,,,,,,,,,,,,,,,,,,,,,,,,,,,610.2470439999888,610.749744899993,610.749744899993,611.50222699999,611.50222699999,612.0048915999942,612.0048915999942,612.8046848999948,612.8046848999948,None,num_4,0.43275269999867305,612.8046848999948,None,sad,0,Sad,613.2516796199925,None,None,613.2516796199925,None,,,,,,,,,,,,,,,,,,,,,,,,,,,,,,,,,,,,,,,,,,,,,,,,,,,,,26,001,0,21,350,425,2022_Oct_20_1524,Experiment,2021.1.4,360.2383337769894,
images\S4_M_H_02.png,images\S4_M_H_02_scrambled.png,4,happy,20,male,5,,320,on,2,0.5,0.75,0.5,0.811,3,319,1,1,1,2,2,32,128,165,,,,,,0,106,106,106,,,,,,,,,,,,,,,,,,,,,,,,,,,,,,,,,,,,,,,,,,,,,,,,,,,,,,,,,613.298887500001,613.8015290999901,613.8015290999901,614.5540514999884,614.5540514999884,615.0595785999903,615.0595785999903,615.8758900999965,615.8758900999965,None,num_4,0.7533651999983704,615.8758900999965,None,sad,0,Happy,616.6367095599999,None,None,616.6367095599999,None,,,,,,,,,,,,,,,,,,,,,,,,,,,,,,,,,,,,,,,,,,,,,,,,,,,,,26,001,0,21,350,425,2022_Oct_20_1524,Experiment,2021.1.4,360.2383337769894,
images\S8_M_H_01.png,images\S8_M_H_01_scrambled.png,8,happy,10,male,4,,583,on,2,0.5,0.75,0.5,0.857,3,582,2,1,1,2,2,32,128,164,,,,,,0,107,107,107,,,,,,,,,,,,,,,,,,,,,,,,,,,,,,,,,,,,,,,,,,,,,,,,,,,,,,,,,616.6811725000007,617.186598100001,617.186598100001,617.941911899994,617.941911899994,618.444619499991,618.444619499991,619.3054096999986,619.3054096999986,None,num_6,0.34786690000328235,619.3054096999986,None,happy,0,Happy,619.6774804599918,None,None,619.6774804599918,None,,,,,,,,,,,,,,,,,,,,,,,,,,,,,,,,,,,,,,,,,,,,,,,,,,,,,26,001,0,21,350,425,2022_Oct_20_1524,Experiment,2021.1.4,360.2383337769894,
images\S9_F_H_01.png,images\S9_F_H_01_scrambled.png,9,happy,10,female,4,,289,off,1,0.5,0.75,0.5,0.875,3,288,1,1,2,0,0,0,0,4,,,,,,0,108,108,108,,,,,,,,,,,,,,,,,,,,,,,,,,,,,,,,,,,,,,,,,,,,,,,,,,,,,,,,,619.7857805999956,620.2912062999967,620.2912062999967,621.0438530999963,621.0438530999963,621.5463611999876,621.5463611999876,622.4238552999886,622.4238552999886,None,num_6,0.34140830000978895,622.4238552999886,None,happy,0,Happy,622.7765397199983,None,None,622.7765397199983,None,,,,,,,,,,,,,,,,,,,,,,,,,,,,,,,,,,,,,,,,,,,,,,,,,,,,,26,001,0,21,350,425,2022_Oct_20_1524,Experiment,2021.1.4,360.2383337769894,
images\S4_M_H_03.png,images\S4_M_H_03_scrambled.png,4,happy,30,male,6,,561,on,2,0.5,0.75,0.5,0.82,3,560,1,1,1,2,2,32,128,166,,,,,,0,109,109,109,,,,,,,,,,,,,,,,,,,,,,,,,,,,,,,,,,,,,,,,,,,,,,,,,,,,,,,,,622.826505399993,623.3319238999975,623.3319238999975,624.0816760999878,624.0816760999878,624.5844127000018,624.5844127000018,625.4034856999933,625.4034856999933,None,num_6,0.9378814999945462,625.4034856999933,None,happy,0,Happy,626.355955320003,None,None,626.355955320003,None,,,,,,,,,,,,,,,,,,,,,,,,,,,,,,,,,,,,,,,,,,,,,,,,,,,,,26,001,0,21,350,425,2022_Oct_20_1524,Experiment,2021.1.4,360.2383337769894,
images\S1_F_H_01.png,images\S1_F_H_01_scrambled.png,1,happy,10,female,4,,61,on,2,0.5,0.75,0.5,0.779,3,60,2,1,1,2,2,32,128,164,,,,,,0,110,110,110,,,,,,,,,,,,,,,,,,,,,,,,,,,,,,,,,,,,,,,,,,,,,,,,,,,,,,,,,626.4059363999986,626.9113788999966,626.9113788999966,627.6667096999881,627.6667096999881,628.1694422,628.1694422,628.9552322999953,628.9552322999953,None,num_6,0.44999860000098124,628.9552322999953,None,happy,0,Happy,629.4161704199942,None,None,629.4161704199942,None,,,,,,,,,,,,,,,,,,,,,,,,,,,,,,,,,,,,,,,,,,,,,,,,,,,,,26,001,0,21,350,425,2022_Oct_20_1524,Experiment,2021.1.4,360.2383337769894,
images\S2_M_S_01.png,images\S2_M_S_01_scrambled.png,2,sad,-10,male,3,,370,off,1,0.5,0.75,0.5,0.948,3,369,1,1,1,0,0,0,0,3,,,,,,0,111,111,111,,,,,,,,,,,,,,,,,,,,,,,,,,,,,,,,,,,,,,,,,,,,,,,,,,,,,,,,,629.4743962999928,629.9799109000014,629.9799109000014,630.7324198999995,630.7324198999995,631.2350256999925,631.2350256999925,632.1847846000019,632.1847846000019,None,num_4,0.6364031000121031,632.1847846000019,None,sad,0,Sad,632.8317810199951,None,None,632.8317810199951,None,,,,,,,,,,,,,,,,,,,,,,,,,,,,,,,,,,,,,,,,,,,,,,,,,,,,,26,001,0,21,350,425,2022_Oct_20_1524,Experiment,2021.1.4,360.2383337769894,
images\S9_F_H_02.png,images\S9_F_H_02_scrambled.png,9,happy,20,female,5,,290,off,1,0.5,0.75,0.5,0.83,3,289,2,1,1,0,0,0,0,5,,,,,,0,112,112,112,,,,,,,,,,,,,,,,,,,,,,,,,,,,,,,,,,,,,,,,,,,,,,,,,,,,,,,,,632.8789689999976,633.3816089999891,633.3816089999891,634.1341628999944,634.1341628999944,634.6396192999964,634.6396192999964,635.4754378999933,635.4754378999933,None,num_6,0.31384060000709724,635.4754378999933,None,happy,0,Happy,635.8003144199902,None,None,635.8003144199902,None,,,,,,,,,,,,,,,,,,,,,,,,,,,,,,,,,,,,,,,,,,,,,,,,,,,,,26,001,0,21,350,425,2022_Oct_20_1524,Experiment,2021.1.4,360.2383337769894,
images\S7_F_H_03.png,images\S7_F_H_03_scrambled.png,7,happy,30,female,6,,159,off,1,0.5,0.75,0.5,0.828,3,158,3,1,1,0,0,0,0,6,,,,,,0,113,113,113,,,,,,,,,,,,,,,,,,,,,,,,,,,,,,,,,,,,,,,,,,,,,,,,,,,,,,,,,635.8835984999896,636.3862163000013,636.3862163000013,637.1387787999993,637.1387787999993,637.6442876999936,637.6442876999936,638.4745507999905,638.4745507999905,None,num_6,1.0108088999986649,638.4745507999905,None,happy,0,Happy,639.4964059199992,None,None,639.4964059199992,None,,,,,,,,,,,,,,,,,,,,,,,,,,,,,,,,,,,,,,,,,,,,,,,,,,,,,26,001,0,21,350,425,2022_Oct_20_1524,Experiment,2021.1.4,360.2383337769894,
images\S1_F_H_02.png,images\S1_F_H_02_scrambled.png,1,happy,20,female,5,,362,off,1,0.5,0.75,0.5,0.888,3,361,4,1,1,0,0,0,0,5,,,,,,0,114,114,114,,,,,,,,,,,,,,,,,,,,,,,,,,,,,,,,,,,,,,,,,,,,,,,,,,,,,,,,,639.5435847999906,640.0462376999931,640.0462376999931,640.8015469999955,640.8015469999955,641.3042802999989,641.3042802999989,642.1955824999895,642.1955824999895,None,num_6,0.39362490001076367,642.1955824999895,None,happy,0,Happy,642.6037371199927,None,None,642.6037371199927,None,,,,,,,,,,,,,,,,,,,,,,,,,,,,,,,,,,,,,,,,,,,,,,,,,,,,,26,001,0,21,350,425,2022_Oct_20_1524,Experiment,2021.1.4,360.2383337769894,
images\S3_F_S_03.png,images\S3_F_S_03_scrambled.png,3,sad,-30,female,1,,138,off,1,0.5,0.75,0.5,0.855,3,137,5,1,1,0,0,0,0,1,,,,,,0,115,115,115,,,,,,,,,,,,,,,,,,,,,,,,,,,,,,,,,,,,,,,,,,,,,,,,,,,,,,,,,642.650994999989,643.1564058999938,643.1564058999938,643.9117113999964,643.9117113999964,644.4171086999995,644.4171086999995,645.2752937999903,645.2752937999903,None,num_4,0.2662590999971144,645.2752937999903,None,sad,0,Sad,645.5696162399981,None,None,645.5696162399981,None,,,,,,,,,,,,,,,,,,,,,,,,,,,,,,,,,,,,,,,,,,,,,,,,,,,,,26,001,0,21,350,425,2022_Oct_20_1524,Experiment,2021.1.4,360.2383337769894,
images\S9_F_H_02.png,images\S9_F_H_02_scrambled.png,9,happy,20,female,5,,350,on,2,0.5,0.75,0.5,0.948,3,349,1,1,1,2,2,32,128,165,,,,,,0,116,116,116,,,,,,,,,,,,,,,,,,,,,,,,,,,,,,,,,,,,,,,,,,,,,,,,,,,,,,,,,645.6222650999989,646.1250033999968,646.1250033999968,646.8746537999978,646.8746537999978,647.3802046999917,647.3802046999917,648.3354556999984,648.3354556999984,None,None,,648.3354556999984,None,miss,0,Happy,651.3371858800019,None,None,651.3371858800019,None,,,,,,,,,,,,,,,,,,,,,,,,,,,,,,,,,,,,,,,,,,,,,,,,,,,,,26,001,0,21,350,425,2022_Oct_20_1524,Experiment,2021.1.4,360.2383337769894,
images\S6_M_H_03.png,images\S6_M_H_03_scrambled.png,6,happy,30,male,6,,573,on,2,0.5,0.75,0.5,0.868,3,572,2,1,1,2,2,32,128,166,,,,,,0,117,117,117,,,,,,,,,,,,,,,,,,,,,,,,,,,,,,,,,,,,,,,,,,,,,,,,,,,,,,,,,651.3843921999942,651.8870253999921,651.8870253999921,652.639588399994,652.639588399994,653.1422108999977,653.1422108999977,654.0141371999925,654.0141371999925,651.3843921999942,num_6,0.6072389000037219,654.0141371999925,651.3843921999942,happy,0,Happy,654.6361611199973,None,None,654.6361611199973,None,,,,,,,,,,,,,,,,,,,,,,,,,,,,,,,,,,,,,,,,,,,,,,,,,,,,,26,001,0,21,350,425,2022_Oct_20_1524,Experiment,2021.1.4,360.2383337769894,
images\S10_M_H_02.png,images\S10_M_H_02_scrambled.png,10,happy,20,male,5,,416,off,1,0.5,0.75,0.5,0.827,3,415,1,1,1,0,0,0,0,5,,,,,,0,118,118,118,,,,,,,,,,,,,,,,,,,,,,,,,,,,,,,,,,,,,,,,,,,,,,,,,,,,,,,,,654.6833693999943,655.1887791999907,655.1887791999907,655.9414414999919,655.9414414999919,656.443930399997,656.443930399997,657.2770634999906,657.2770634999906,None,num_6,0.6080572000064421,657.2770634999906,None,happy,0,Happy,657.8962420199969,None,None,657.8962420199969,None,,,,,,,,,,,,,,,,,,,,,,,,,,,,,,,,,,,,,,,,,,,,,,,,,,,,,26,001,0,21,350,425,2022_Oct_20_1524,Experiment,2021.1.4,360.2383337769894,
images\S4_M_S_01.png,images\S4_M_S_01_scrambled.png,4,sad,-10,male,3,,202,on,2,0.5,0.75,0.5,0.907,3,201,1,1,1,2,2,32,128,163,,,,,,0,119,119,119,,,,,,,,,,,,,,,,,,,,,,,,,,,,,,,,,,,,,,,,,,,,,,,,,,,,,,,,,657.9462518999935,658.4488922000019,658.4488922000019,659.2042126000015,659.2042126000015,659.7068820999993,659.7068820999993,660.6176848999894,660.6176848999894,None,num_4,1.9074644999927841,660.6176848999894,None,sad,0,Sad,662.5364951200027,None,None,662.5364951200027,None,,,,,,,,,,,,,,,,,,,,,,,,,,,,,,,,,,,,,,,,,,,,,,,,,,,,,26,001,0,21,350,425,2022_Oct_20_1524,Experiment,2021.1.4,360.2383337769894,
images\S8_M_H_03.png,images\S8_M_H_03_scrambled.png,8,happy,30,male,6,,285,off,1,0.5,0.75,0.5,0.905,3,284,1,1,1,0,0,0,0,6,,,,,,0,120,120,120,,,,,,,,,,,,,,,,,,,,,,,,,,,,,,,,,,,,,,,,,,,,,,,,,,,,,,,,,662.5837109999993,663.0864676999918,663.0864676999918,663.8361231000017,663.8361231000017,664.3415868000011,664.3415868000011,665.2523741999903,665.2523741999903,None,num_4,0.2808948000019882,665.2523741999903,None,sad,0,Happy,665.5438842399963,None,None,665.5438842399963,None,,,,,,,,,,,,,,,,,,,,,,,,,,,,,,,,,,,,,,,,,,,,,,,,,,,,,26,001,0,21,350,425,2022_Oct_20_1524,Experiment,2021.1.4,360.2383337769894,
images\S5_F_S_03.png,images\S5_F_S_03_scrambled.png,5,sad,-30,female,1,,270,off,1,0.5,0.75,0.5,0.796,3,269,2,1,1,0,0,0,0,1,,,,,,0,121,121,121,,,,,,,,,,,,,,,,,,,,,,,,,,,,,,,,,,,,,,,,,,,,,,,,,,,,,,,,,665.6050480999984,666.1076525999961,666.1076525999961,666.8573959999921,666.8573959999921,667.3600273999909,667.3600273999909,668.1597757999989,668.1597757999989,None,num_4,0.47738520000712015,668.1597757999989,None,sad,0,Sad,668.6485518199916,None,None,668.6485518199916,None,,,,,,,,,,,,,,,,,,,,,,,,,,,,,,,,,,,,,,,,,,,,,,,,,,,,,26,001,0,21,350,425,2022_Oct_20_1524,Experiment,2021.1.4,360.2383337769894,
images\S9_F_H_01.png,images\S9_F_H_01_scrambled.png,9,happy,10,female,4,,589,on,2,0.5,0.75,0.5,0.833,3,588,1,1,1,2,2,32,128,164,,,,,,0,122,122,122,,,,,,,,,,,,,,,,,,,,,,,,,,,,,,,,,,,,,,,,,,,,,,,,,,,,,,,,,668.6957205999934,669.1983621999971,669.1983621999971,669.9509732000006,669.9509732000006,670.4535276999959,670.4535276999959,671.29218579999,671.29218579999,None,num_6,0.4731153000029735,671.29218579999,None,happy,0,Happy,671.7947688200002,None,None,671.7947688200002,None,,,,,,,,,,,,,,,,,,,,,,,,,,,,,,,,,,,,,,,,,,,,,,,,,,,,,26,001,0,21,350,425,2022_Oct_20_1524,Experiment,2021.1.4,360.2383337769894,
images\S4_M_H_02.png,images\S4_M_H_02_scrambled.png,4,happy,20,male,5,,200,on,2,0.5,0.75,0.5,0.765,3,199,2,1,1,2,2,32,128,165,,,,,,0,123,123,123,,,,,,,,,,,,,,,,,,,,,,,,,,,,,,,,,,,,,,,,,,,,,,,,,,,,,,,,,671.8475267999893,672.352953900001,672.352953900001,673.1082636999927,673.1082636999927,673.6108650999959,673.6108650999959,674.3800690999924,674.3800690999924,None,num_4,1.2731379000033485,674.3800690999924,None,sad,0,Happy,675.6602607599925,None,None,675.6602607599925,None,,,,,,,,,,,,,,,,,,,,,,,,,,,,,,,,,,,,,,,,,,,,,,,,,,,,,26,001,0,21,350,425,2022_Oct_20_1524,Experiment,2021.1.4,360.2383337769894,
images\S1_F_S_02.png,images\S1_F_S_02_scrambled.png,1,sad,-20,female,2,,545,on,2,0.5,0.75,0.5,0.863,3,544,3,1,1,2,2,32,128,162,,,,,,0,124,124,124,,,,,,,,,,,,,,,,,,,,,,,,,,,,,,,,,,,,,,,,,,,,,,,,,,,,,,,,,675.707448000001,676.2128786999965,676.2128786999965,676.9655123999983,676.9655123999983,677.4680157999974,677.4680157999974,678.3316383999918,678.3316383999918,None,None,,678.3316383999918,None,miss,0,Sad,681.333510880002,None,None,681.333510880002,None,,,,,,,,,,,,,,,,,,,,,,,,,,,,,,,,,,,,,,,,,,,,,,,,,,,,,26,001,0,21,350,425,2022_Oct_20_1524,Experiment,2021.1.4,360.2383337769894,
images\blank.jpg,images\blank.jpg,none,none,none,none,0,,619,on,2,0.5,0.75,0.5,0.922,0,618,4,1,1,3,3,48,192,240,,,,,,0,125,125,125,,,,,,,,,,,,,,,,,,,,,,,,,,,,,,,,,,,,,,,,,,,,,,,,,,,,,,,,,681.4199601,681.9223380999902,681.9223380999902,682.6719991999998,682.6719991999998,683.1774595999887,683.1774595999887,684.1022060999967,684.1022060999967,684.1022060999967,None,,684.1022060999967,681.4199601,miss,0,,687.1068466599972,None,None,687.1068466599972,None,,,,,,,,,,,,,,,,,,,,,,,,,,,,,,,,,,,,,,,,,,,,,,,,,,,,,26,001,0,21,350,425,2022_Oct_20_1524,Experiment,2021.1.4,360.2383337769894,
images\S2_M_H_01.png,images\S2_M_H_01_scrambled.png,2,happy,10,male,4,,307,on,2,0.5,0.75,0.5,0.856,3,306,5,1,1,2,2,32,128,164,,,,,,0,126,126,126,,,,,,,,,,,,,,,,,,,,,,,,,,,,,,,,,,,,,,,,,,,,,,,,,,,,,,,,,687.2627039999934,687.7676607999892,687.7676607999892,688.5229748999991,688.5229748999991,689.0256935999932,689.0256935999932,689.8893315999885,689.8893315999885,None,None,,689.8893315999885,687.2627039999934,miss,0,Happy,692.8910615799905,None,None,692.8910615799905,None,,,,,,,,,,,,,,,,,,,,,,,,,,,,,,,,,,,,,,,,,,,,,,,,,,,,,26,001,0,21,350,425,2022_Oct_20_1524,Experiment,2021.1.4,360.2383337769894,
images\S6_M_H_03.png,images\S6_M_H_03_scrambled.png,6,happy,30,male,6,,393,off,1,0.5,0.75,0.5,0.796,3,392,1,1,1,0,0,0,0,6,,,,,,0,127,127,127,,,,,,,,,,,,,,,,,,,,,,,,,,,,,,,,,,,,,,,,,,,,,,,,,,,,,,,,,692.9382679999981,693.4381009999925,693.4381009999925,694.1878757999948,694.1878757999948,694.6877237000008,694.6877237000008,695.4875810999947,695.4875810999947,692.9382679999981,num_6,0.6217623999982607,695.4875810999947,692.9382679999981,happy,0,Happy,696.1233578199899,None,None,696.1233578199899,None,,,,,,,,,,,,,,,,,,,,,,,,,,,,,,,,,,,,,,,,,,,,,,,,,,,,,26,001,0,21,350,425,2022_Oct_20_1524,Experiment,2021.1.4,360.2383337769894,
images\blank.jpg,images\blank.jpg,none,none,none,none,0,,615,on,2,0.5,0.75,0.5,0.9,0,614,1,1,1,3,3,48,192,240,,,,,,0,128,128,128,,,,,,,,,,,,,,,,,,,,,,,,,,,,,,,,,,,,,,,,,,,,,,,,,,,,,,,,,696.2069561999961,696.7093343000015,696.7093343000015,697.4619987999904,697.4619987999904,697.9673770999943,697.9673770999943,698.8726198999939,698.8726198999939,698.8726198999939,None,,698.8726198999939,None,miss,0,,701.8772111599974,None,None,701.8772111599974,None,,,,,,,,,,,,,,,,,,,,,,,,,,,,,,,,,,,,,,,,,,,,,,,,,,,,,26,001,0,21,350,425,2022_Oct_20_1524,Experiment,2021.1.4,360.2383337769894,
images\blank.jpg,images\blank.jpg,none,none,none,none,0,,637,on,2,0.5,0.75,0.5,0.851,0,636,2,2,2,3,3,48,192,240,,,,,,0,129,129,129,,,,,,,,,,,,,,,,,,,,,,,,,,,,,,,,,,,,,,,,,,,,,,,,,,,,,,,,,701.9049555999954,702.4047997999878,702.4047997999878,703.1545492000005,703.1545492000005,703.6544251000014,703.6544251000014,704.5097201999888,704.5097201999888,704.5097201999888,None,,704.5097201999888,701.9049555999954,miss,0,,707.5143860599928,None,None,707.5143860599928,None,,,,,,,,,,,,,,,,,,,,,,,,,,,,,,,,,,,,,,,,,,,,,,,,,,,,,26,001,0,21,350,425,2022_Oct_20_1524,Experiment,2021.1.4,360.2383337769894,
images\S4_M_H_02.png,images\S4_M_H_02_scrambled.png,4,happy,20,male,5,,20,off,1,0.5,0.75,0.5,0.756,3,19,1,1,1,0,0,0,0,5,,,,,,0,130,130,130,,,,,,,,,,,,,,,,,,,,,,,,,,,,,,,,,,,,,,,,,,,,,,,,,,,,,,,,,707.6367673999921,708.1419475000002,708.1419475000002,708.891689600001,708.891689600001,709.3971184999973,709.3971184999973,710.1551739999995,710.1551739999995,None,num_4,0.6583990000071935,710.1551739999995,707.6367673999921,sad,0,Happy,710.8356496999913,None,space,710.8356496999913,None,69.95293220000167,,,,,,,,,,,,,,,,,,,,,,,,,,,,,,,,,,,,,,,,,,,,,,,,,,,,26,001,0,21,350,425,2022_Oct_20_1524,Experiment,2021.1.4,360.2383337769894,
images\S7_F_H_02.png,images\S7_F_H_02_scrambled.png,7,happy,20,female,5,,218,on,2,0.5,0.75,0.5,0.947,3,217,1,1,2,2,2,32,128,165,,,,,,0,131,131,131,,,,,,,,,,,,,,,,,,,,,,,,,,,,,,,,,,,,,,,,,,,,,,,,,,,,,,,,,780.8444611999876,781.349950799995,781.349950799995,782.1052743999899,782.1052743999899,782.608004099995,782.608004099995,783.554795899996,783.554795899996,None,num_6,0.3622380000015255,783.554795899996,None,happy,0,Happy,783.9296570199949,None,None,783.9296570199949,None,,,,,,,,,,,,,,,,,,,,,,,,,,,,,,,,,,,,,,,,,,,,,,,,,,,,,26,001,0,21,350,425,2022_Oct_20_1524,Experiment,2021.1.4,360.2383337769894,
images\S10_M_S_03.png,images\S10_M_S_03_scrambled.png,10,sad,-30,male,1,,540,off,1,0.5,0.75,0.5,0.867,3,539,1,1,1,0,0,0,0,1,,,,,,0,132,132,132,,,,,,,,,,,,,,,,,,,,,,,,,,,,,,,,,,,,,,,,,,,,,,,,,,,,,,,,,783.9963321999967,784.4989487999992,784.4989487999992,785.2515427999897,785.2515427999897,785.7541645000019,785.7541645000019,786.6233943999978,786.6233943999978,None,num_4,0.565802099998109,786.6233943999978,None,sad,0,Sad,787.2036545199953,None,None,787.2036545199953,None,,,,,,,,,,,,,,,,,,,,,,,,,,,,,,,,,,,,,,,,,,,,,,,,,,,,,26,001,0,21,350,425,2022_Oct_20_1524,Experiment,2021.1.4,360.2383337769894,
images\S7_F_S_01.png,images\S7_F_S_01_scrambled.png,7,sad,-10,female,3,,160,off,1,0.5,0.75,0.5,0.81,3,159,2,1,1,0,0,0,0,3,,,,,,0,133,133,133,,,,,,,,,,,,,,,,,,,,,,,,,,,,,,,,,,,,,,,,,,,,,,,,,,,,,,,,,787.2508882999973,787.7536192999978,787.7536192999978,788.5088849999884,788.5088849999884,789.0142724999896,789.0142724999896,789.8279021999915,789.8279021999915,None,num_4,0.8173106000031112,789.8279021999915,None,sad,0,Sad,790.6609442199988,None,None,790.6609442199988,None,,,,,,,,,,,,,,,,,,,,,,,,,,,,,,,,,,,,,,,,,,,,,,,,,,,,,26,001,0,21,350,425,2022_Oct_20_1524,Experiment,2021.1.4,360.2383337769894,
images\S7_F_S_02.png,images\S7_F_S_02_scrambled.png,7,sad,-20,female,2,,521,off,1,0.5,0.75,0.5,0.814,3,520,3,2,1,0,0,0,0,2,,,,,,0,134,134,134,,,,,,,,,,,,,,,,,,,,,,,,,,,,,,,,,,,,,,,,,,,,,,,,,,,,,,,,,790.7081513000012,791.2080215999886,791.2080215999886,791.9577870999929,791.9577870999929,792.4576451999892,792.4576451999892,793.2740699999995,793.2740699999995,None,num_4,0.7871441999886883,793.2740699999995,None,sad,0,Sad,794.0737597199914,None,None,794.0737597199914,None,,,,,,,,,,,,,,,,,,,,,,,,,,,,,,,,,,,,,,,,,,,,,,,,,,,,,26,001,0,21,350,425,2022_Oct_20_1524,Experiment,2021.1.4,360.2383337769894,
images\S3_F_S_03.png,images\S3_F_S_03_scrambled.png,3,sad,-30,female,1,,378,off,1,0.5,0.75,0.5,0.876,3,377,4,1,1,0,0,0,0,1,,,,,,0,135,135,135,,,,,,,,,,,,,,,,,,,,,,,,,,,,,,,,,,,,,,,,,,,,,,,,,,,,,,,,,794.1210050999944,794.6236559999961,794.6236559999961,795.3734014999936,795.3734014999936,795.8788265999901,795.8788265999901,796.7591112999944,796.7591112999944,None,num_4,0.26215090000187047,796.7591112999944,None,sad,0,Sad,797.042426739994,None,None,797.042426739994,None,,,,,,,,,,,,,,,,,,,,,,,,,,,,,,,,,,,,,,,,,,,,,,,,,,,,,26,001,0,21,350,425,2022_Oct_20_1524,Experiment,2021.1.4,360.2383337769894,
images\S10_M_S_01.png,images\S10_M_S_01_scrambled.png,10,sad,-10,male,3,,598,on,2,0.5,0.75,0.5,0.933,3,597,1,1,1,2,2,32,128,163,,,,,,0,136,136,136,,,,,,,,,,,,,,,,,,,,,,,,,,,,,,,,,,,,,,,,,,,,,,,,,,,,,,,,,797.1506115999946,797.6533800999896,797.6533800999896,798.4086301999923,798.4086301999923,798.9140110000008,798.9140110000008,799.8498113999958,799.8498113999958,None,num_6,0.40322890000243206,799.8498113999958,None,happy,0,Sad,800.2607370600017,None,None,800.2607370600017,None,,,,,,,,,,,,,,,,,,,,,,,,,,,,,,,,,,,,,,,,,,,,,,,,,,,,,26,001,0,21,350,425,2022_Oct_20_1524,Experiment,2021.1.4,360.2383337769894,
images\S2_M_S_03.png,images\S2_M_S_03_scrambled.png,2,sad,-30,male,1,,132,off,1,0.5,0.75,0.5,0.817,3,131,1,1,1,0,0,0,0,1,,,,,,0,137,137,137,,,,,,,,,,,,,,,,,,,,,,,,,,,,,,,,,,,,,,,,,,,,,,,,,,,,,,,,,800.3440768,800.8494774999999,800.8494774999999,801.6020638999908,801.6020638999908,802.1046728999936,802.1046728999936,802.9238858999888,802.9238858999888,None,num_4,0.37734829999681097,802.9238858999888,None,sad,0,Sad,803.3181630199979,None,None,803.3181630199979,None,,,,,,,,,,,,,,,,,,,,,,,,,,,,,,,,,,,,,,,,,,,,,,,,,,,,,26,001,0,21,350,425,2022_Oct_20_1524,Experiment,2021.1.4,360.2383337769894,
images\S3_F_S_02.png,images\S3_F_S_02_scrambled.png,3,sad,-20,female,2,,557,on,2,0.5,0.75,0.5,0.927,3,556,1,1,1,2,2,32,128,162,,,,,,0,138,138,138,,,,,,,,,,,,,,,,,,,,,,,,,,,,,,,,,,,,,,,,,,,,,,,,,,,,,,,,,803.3653605,803.8707808999898,803.8707808999898,804.6233309999952,804.6233309999952,805.125936299999,805.125936299999,806.0590198999998,806.0590198999998,None,num_4,0.569954599995981,806.0590198999998,None,sad,0,Sad,806.6393773199961,None,None,806.6393773199961,None,,,,,,,,,,,,,,,,,,,,,,,,,,,,,,,,,,,,,,,,,,,,,,,,,,,,,26,001,0,21,350,425,2022_Oct_20_1524,Experiment,2021.1.4,360.2383337769894,
images\S8_M_S_03.png,images\S8_M_S_03_scrambled.png,8,sad,-30,male,1,,168,off,1,0.5,0.75,0.5,0.89,3,167,1,1,1,0,0,0,0,1,,,,,,0,139,139,139,,,,,,,,,,,,,,,,,,,,,,,,,,,,,,,,,,,,,,,,,,,,,,,,,,,,,,,,,806.6865660999902,807.1891941999929,807.1891941999929,807.9445406999876,807.9445406999876,808.4471779000014,808.4471779000014,809.341305199996,809.341305199996,None,num_4,0.6239705999905709,809.341305199996,None,sad,0,Sad,809.9800165199995,None,None,809.9800165199995,None,,,,,,,,,,,,,,,,,,,,,,,,,,,,,,,,,,,,,,,,,,,,,,,,,,,,,26,001,0,21,350,425,2022_Oct_20_1524,Experiment,2021.1.4,360.2383337769894,
