image_face,image_scram,avatar,emo,emotion,sex,trigeeg,dac,trial_no,NMES,stimtime,baseline,iti,face,scr_face,resp_time,index,count_NMES,count_avatar,count_emotion,dac1,dac2,dac1_output,dac2_output,trigs_out,nmes,practice_trials.thisRepN,practice_trials.thisTrialN,practice_trials.thisN,practice_trials.thisIndex,real_trials.thisRepN,real_trials.thisTrialN,real_trials.thisN,real_trials.thisIndex,trials.thisRepN,trials.thisTrialN,trials.thisN,trials.thisIndex,position,Welcome.started,Welcome.stopped,Welcome_resp.keys,Welcome_resp.rt,text_2.started,text_2.stopped,form_2.index,form_2.itemText,form_2.type,form_2.response,form_2.rt,key_resp_4.keys,key_resp_4.rt,key_resp_4.started,key_resp_4.stopped,instructions.started,instructions.stopped,end_instr.keys,end_instr.rt,instructions_2.started,instructions_2.stopped,end_instr_2.keys,end_instr_2.rt,end_instr_2.started,end_instr_2.stopped,instruct_keypress.started,instruct_keypress.stopped,end_instruct_keypress.keys,end_instruct_keypress.rt,start_practice.started,start_practice.stopped,start_practice_resp.keys,start_practice_resp.rt,prac_baseline.started,prac_baseline.stopped,prac_iti.started,prac_iti.stopped,prac_stimulus.started,prac_stimulus.stopped,prac_scram_stim.started,prac_scram_stim.stopped,prac_stimulus_resp.started,prac_stimulus_resp.stopped,prac_resp.keys,prac_resp.rt,prac_resp.started,prac_resp.stopped,transition_to_real.started,transition_to_real.stopped,end_transition_to_real.keys,end_transition_to_real.rt,fixation_cross.started,fixation_cross.stopped,tr_iti.started,tr_iti.stopped,stimulus.started,stimulus.stopped,scram_stim.started,scram_stim.stopped,response_txt.started,response_txt.stopped,response.keys,response.rt,response.started,response.stopped,participant_Resp,grouping,corAnswer,break_msg.started,break_msg.stopped,end_break.keys,end_break.started,end_break.stopped,end_break.rt,text.started,text.stopped,key_resp_3.keys,key_resp_3.rt,key_resp_3.started,key_resp_3.stopped,fix_cross_comf.started,fix_cross_comf.stopped,stimulation_comf.started,stimulation_comf.stopped,rate_instr.started,rate_instr.stopped,comfort_rating.response,comfort_rating.rt,comfort_rating.started,comfort_rating.stopped,resp_form.keys,resp_form.rt,resp_form.started,resp_form.stopped,survey_instructions.started,survey_instructions.stopped,key_resp_2.keys,key_resp_2.rt,key_resp_2.started,key_resp_2.stopped,form.index,form.itemText,form.type,form.response,form.rt,key_resp.keys,key_resp.rt,key_resp.started,key_resp.stopped,text_3.started,text_3.stopped,rate_smile.response,rate_smile.rt,rate_smile.started,rate_smile.stopped,key_resp_5.keys,key_resp_5.rt,key_resp_5.started,key_resp_5.stopped,end_msg.started,end_msg.stopped,end_resp.keys,end_resp.rt,end_resp.started,end_resp.stopped,participant,session,gender,age,LEFT,RIGHT,date,expName,psychopyVersion,frameRate,
,,,,,,,,,,,,,,,,,,,,,,,,,,,,,,,,,,,,,,H-S,25.06263459999991,None,num_add,10.941340200000013,,,,,,,,,,,,,,,,,,,,,,,,,,,,,,,,,,,,,,,,,,,,,,,,,,,,,,,,,,,,,,,,,,,,,,,,,,,,,,,,,,,,,,,,,,,,,,,,,,,,,,,,,,,,,,,,,,,,,,,,,,27,001,1,36,500,475,2022_Oct_24_1059,Experiment,2021.1.4,359.8118903394767,
,,,,,,,,,,,,,,,,,,,,,,,,,,,,,,,,,,,,,,,,,,,36.02687180000066,38.05680140000004,1,"This scale consistes of a number of words that describe different feelings and emotion. Read each item and then list the number from the scale below each word. Indicate (by clicking) to what extend you feel this way RIGHT NOW, that is, AT THE PRESENT MOMENT.",description,,,,,,,,,,,,,,,,,,,,,,,,,,,,,,,,,,,,,,,,,,,,,,,,,,,,,,,,,,,,,,,,,,,,,,,,,,,,,,,,,,,,,,,,,,,,,,,,,,,,,,,,,,,,,,,,,,,,,27,001,1,36,500,475,2022_Oct_24_1059,Experiment,2021.1.4,359.8118903394767,
,,,,,,,,,,,,,,,,,,,,,,,,,,,,,,,,,,,,,,,,,,,,,2,Interested,rating,4.0,60.89377940000031,,,,,,,,,,,,,,,,,,,,,,,,,,,,,,,,,,,,,,,,,,,,,,,,,,,,,,,,,,,,,,,,,,,,,,,,,,,,,,,,,,,,,,,,,,,,,,,,,,,,,,,,,,,,,,,,,,,27,001,1,36,500,475,2022_Oct_24_1059,Experiment,2021.1.4,359.8118903394767,
,,,,,,,,,,,,,,,,,,,,,,,,,,,,,,,,,,,,,,,,,,,,,3,Distressed,rating,2.0,64.78739219999989,,,,,,,,,,,,,,,,,,,,,,,,,,,,,,,,,,,,,,,,,,,,,,,,,,,,,,,,,,,,,,,,,,,,,,,,,,,,,,,,,,,,,,,,,,,,,,,,,,,,,,,,,,,,,,,,,,,27,001,1,36,500,475,2022_Oct_24_1059,Experiment,2021.1.4,359.8118903394767,
,,,,,,,,,,,,,,,,,,,,,,,,,,,,,,,,,,,,,,,,,,,,,4,Excited,rating,5.0,66.89645120000023,,,,,,,,,,,,,,,,,,,,,,,,,,,,,,,,,,,,,,,,,,,,,,,,,,,,,,,,,,,,,,,,,,,,,,,,,,,,,,,,,,,,,,,,,,,,,,,,,,,,,,,,,,,,,,,,,,,27,001,1,36,500,475,2022_Oct_24_1059,Experiment,2021.1.4,359.8118903394767,
,,,,,,,,,,,,,,,,,,,,,,,,,,,,,,,,,,,,,,,,,,,,,5,Upset,rating,2.0,72.5661412999998,,,,,,,,,,,,,,,,,,,,,,,,,,,,,,,,,,,,,,,,,,,,,,,,,,,,,,,,,,,,,,,,,,,,,,,,,,,,,,,,,,,,,,,,,,,,,,,,,,,,,,,,,,,,,,,,,,,27,001,1,36,500,475,2022_Oct_24_1059,Experiment,2021.1.4,359.8118903394767,
,,,,,,,,,,,,,,,,,,,,,,,,,,,,,,,,,,,,,,,,,,,,,6,Strong,rating,4.0,76.38476859999992,,,,,,,,,,,,,,,,,,,,,,,,,,,,,,,,,,,,,,,,,,,,,,,,,,,,,,,,,,,,,,,,,,,,,,,,,,,,,,,,,,,,,,,,,,,,,,,,,,,,,,,,,,,,,,,,,,,27,001,1,36,500,475,2022_Oct_24_1059,Experiment,2021.1.4,359.8118903394767,
,,,,,,,,,,,,,,,,,,,,,,,,,,,,,,,,,,,,,,,,,,,,,7,Guilty,rating,1.0,11.3550036000006,,,,,,,,,,,,,,,,,,,,,,,,,,,,,,,,,,,,,,,,,,,,,,,,,,,,,,,,,,,,,,,,,,,,,,,,,,,,,,,,,,,,,,,,,,,,,,,,,,,,,,,,,,,,,,,,,,,27,001,1,36,500,475,2022_Oct_24_1059,Experiment,2021.1.4,359.8118903394767,
,,,,,,,,,,,,,,,,,,,,,,,,,,,,,,,,,,,,,,,,,,,,,8,Scared,rating,1.0,13.994406299999355,,,,,,,,,,,,,,,,,,,,,,,,,,,,,,,,,,,,,,,,,,,,,,,,,,,,,,,,,,,,,,,,,,,,,,,,,,,,,,,,,,,,,,,,,,,,,,,,,,,,,,,,,,,,,,,,,,,27,001,1,36,500,475,2022_Oct_24_1059,Experiment,2021.1.4,359.8118903394767,
,,,,,,,,,,,,,,,,,,,,,,,,,,,,,,,,,,,,,,,,,,,,,9,Hostile,rating,2.0,15.108428499999718,,,,,,,,,,,,,,,,,,,,,,,,,,,,,,,,,,,,,,,,,,,,,,,,,,,,,,,,,,,,,,,,,,,,,,,,,,,,,,,,,,,,,,,,,,,,,,,,,,,,,,,,,,,,,,,,,,,27,001,1,36,500,475,2022_Oct_24_1059,Experiment,2021.1.4,359.8118903394767,
,,,,,,,,,,,,,,,,,,,,,,,,,,,,,,,,,,,,,,,,,,,,,10,Enthusiastic,rating,4.0,17.063414600000215,,,,,,,,,,,,,,,,,,,,,,,,,,,,,,,,,,,,,,,,,,,,,,,,,,,,,,,,,,,,,,,,,,,,,,,,,,,,,,,,,,,,,,,,,,,,,,,,,,,,,,,,,,,,,,,,,,,27,001,1,36,500,475,2022_Oct_24_1059,Experiment,2021.1.4,359.8118903394767,
,,,,,,,,,,,,,,,,,,,,,,,,,,,,,,,,,,,,,,,,,,,,,11,Proud,rating,3.0,16.258913599999687,,,,,,,,,,,,,,,,,,,,,,,,,,,,,,,,,,,,,,,,,,,,,,,,,,,,,,,,,,,,,,,,,,,,,,,,,,,,,,,,,,,,,,,,,,,,,,,,,,,,,,,,,,,,,,,,,,,27,001,1,36,500,475,2022_Oct_24_1059,Experiment,2021.1.4,359.8118903394767,
,,,,,,,,,,,,,,,,,,,,,,,,,,,,,,,,,,,,,,,,,,,,,12,Irritable,rating,2.0,16.204274099999566,,,,,,,,,,,,,,,,,,,,,,,,,,,,,,,,,,,,,,,,,,,,,,,,,,,,,,,,,,,,,,,,,,,,,,,,,,,,,,,,,,,,,,,,,,,,,,,,,,,,,,,,,,,,,,,,,,,27,001,1,36,500,475,2022_Oct_24_1059,Experiment,2021.1.4,359.8118903394767,
,,,,,,,,,,,,,,,,,,,,,,,,,,,,,,,,,,,,,,,,,,,,,13,Alert,rating,5.0,11.208921700000246,,,,,,,,,,,,,,,,,,,,,,,,,,,,,,,,,,,,,,,,,,,,,,,,,,,,,,,,,,,,,,,,,,,,,,,,,,,,,,,,,,,,,,,,,,,,,,,,,,,,,,,,,,,,,,,,,,,27,001,1,36,500,475,2022_Oct_24_1059,Experiment,2021.1.4,359.8118903394767,
,,,,,,,,,,,,,,,,,,,,,,,,,,,,,,,,,,,,,,,,,,,,,14,Ashamed,rating,1.0,10.615778699999282,,,,,,,,,,,,,,,,,,,,,,,,,,,,,,,,,,,,,,,,,,,,,,,,,,,,,,,,,,,,,,,,,,,,,,,,,,,,,,,,,,,,,,,,,,,,,,,,,,,,,,,,,,,,,,,,,,,27,001,1,36,500,475,2022_Oct_24_1059,Experiment,2021.1.4,359.8118903394767,
,,,,,,,,,,,,,,,,,,,,,,,,,,,,,,,,,,,,,,,,,,,,,15,Inspired,rating,4.0,8.979193000000123,,,,,,,,,,,,,,,,,,,,,,,,,,,,,,,,,,,,,,,,,,,,,,,,,,,,,,,,,,,,,,,,,,,,,,,,,,,,,,,,,,,,,,,,,,,,,,,,,,,,,,,,,,,,,,,,,,,27,001,1,36,500,475,2022_Oct_24_1059,Experiment,2021.1.4,359.8118903394767,
,,,,,,,,,,,,,,,,,,,,,,,,,,,,,,,,,,,,,,,,,,,,,16,Nervous,rating,1.0,11.871546399999716,,,,,,,,,,,,,,,,,,,,,,,,,,,,,,,,,,,,,,,,,,,,,,,,,,,,,,,,,,,,,,,,,,,,,,,,,,,,,,,,,,,,,,,,,,,,,,,,,,,,,,,,,,,,,,,,,,,27,001,1,36,500,475,2022_Oct_24_1059,Experiment,2021.1.4,359.8118903394767,
,,,,,,,,,,,,,,,,,,,,,,,,,,,,,,,,,,,,,,,,,,,,,17,Determined,rating,4.0,10.5475665999993,,,,,,,,,,,,,,,,,,,,,,,,,,,,,,,,,,,,,,,,,,,,,,,,,,,,,,,,,,,,,,,,,,,,,,,,,,,,,,,,,,,,,,,,,,,,,,,,,,,,,,,,,,,,,,,,,,,27,001,1,36,500,475,2022_Oct_24_1059,Experiment,2021.1.4,359.8118903394767,
,,,,,,,,,,,,,,,,,,,,,,,,,,,,,,,,,,,,,,,,,,,,,18,Attentive,rating,5.0,11.525315700000647,,,,,,,,,,,,,,,,,,,,,,,,,,,,,,,,,,,,,,,,,,,,,,,,,,,,,,,,,,,,,,,,,,,,,,,,,,,,,,,,,,,,,,,,,,,,,,,,,,,,,,,,,,,,,,,,,,,27,001,1,36,500,475,2022_Oct_24_1059,Experiment,2021.1.4,359.8118903394767,
,,,,,,,,,,,,,,,,,,,,,,,,,,,,,,,,,,,,,,,,,,,,,19,Jittery,rating,2.0,20.396048300000075,,,,,,,,,,,,,,,,,,,,,,,,,,,,,,,,,,,,,,,,,,,,,,,,,,,,,,,,,,,,,,,,,,,,,,,,,,,,,,,,,,,,,,,,,,,,,,,,,,,,,,,,,,,,,,,,,,,27,001,1,36,500,475,2022_Oct_24_1059,Experiment,2021.1.4,359.8118903394767,
,,,,,,,,,,,,,,,,,,,,,,,,,,,,,,,,,,,,,,,,,,,,,20,Active,rating,5.0,24.46106729999974,,,,,,,,,,,,,,,,,,,,,,,,,,,,,,,,,,,,,,,,,,,,,,,,,,,,,,,,,,,,,,,,,,,,,,,,,,,,,,,,,,,,,,,,,,,,,,,,,,,,,,,,,,,,,,,,,,,27,001,1,36,500,475,2022_Oct_24_1059,Experiment,2021.1.4,359.8118903394767,
,,,,,,,,,,,,,,,,,,,,,,,,,,,,,,,,,,,,,,,,,,,,,21,Afraid,rating,1.0,23.295720000000074,,,,,,,,,,,,,,,,,,,,,,,,,,,,,,,,,,,,,,,,,,,,,,,,,,,,,,,,,,,,,,,,,,,,,,,,,,,,,,,,,,,,,,,,,,,,,,,,,,,,,,,,,,,,,,,,,,,27,001,1,36,500,475,2022_Oct_24_1059,Experiment,2021.1.4,359.8118903394767,
,,,,,,,,,,,,,,,,,,,,,,,,,,,,,,,,,,,,,,,,,,,,,22,Press the + button to submit your answers,description,,,,,,,,,,,,,,,,,,,,,,,,,,,,,,,,,,,,,,,,,,,,,,,,,,,,,,,,,,,,,,,,,,,,,,,,,,,,,,,,,,,,,,,,,,,,,,,,,,,,,,,,,,,,,,,,,,,,,27,001,1,36,500,475,2022_Oct_24_1059,Experiment,2021.1.4,359.8118903394767,
,,,,,,,,,,,,,,,,,,,,,,,,,,,,,,,,,,,,,,,,,,,,,,,,,,num_add,137.0585076999996,46.06546040000012,None,,,,,,,,,,,,,,,,,,,,,,,,,,,,,,,,,,,,,,,,,,,,,,,,,,,,,,,,,,,,,,,,,,,,,,,,,,,,,,,,,,,,,,,,,,,,,,,,,,,,,,,,,,,,,,,27,001,1,36,500,475,2022_Oct_24_1059,Experiment,2021.1.4,359.8118903394767,
,,,,,,,,,,,,,,,,,,,,,,,,,,,,,,,,,,,,,,,,,,,,,,,,,,,,,,183.15397850000045,None,num_add,20.193917100000363,,,,,,,,,,,,,,,,,,,,,,,,,,,,,,,,,,,,,,,,,,,,,,,,,,,,,,,,,,,,,,,,,,,,,,,,,,,,,,,,,,,,,,,,,,,,,,,,,,,,,,,,,,,27,001,1,36,500,475,2022_Oct_24_1059,Experiment,2021.1.4,359.8118903394767,
,,,,,,,,,,,,,,,,,,,,,,,,,,,,,,,,,,,,,,,,,,,,,,,,,,,,,,,,,,203.35601810000026,None,num_add,23.928135200000725,203.35601810000026,None,,,,,,,,,,,,,,,,,,,,,,,,,,,,,,,,,,,,,,,,,,,,,,,,,,,,,,,,,,,,,,,,,,,,,,,,,,,,,,,,,,,,,,,,,,,,,,,,,,,,,27,001,1,36,500,475,2022_Oct_24_1059,Experiment,2021.1.4,359.8118903394767,
,,,,,,,,,,,,,,,,,,,,,,,,,,,,,,,,,,,,,,,,,,,,,,,,,,,,,,,,,,,,,,,,227.30699300000015,None,num_add,12.08899139999994,,,,,,,,,,,,,,,,,,,,,,,,,,,,,,,,,,,,,,,,,,,,,,,,,,,,,,,,,,,,,,,,,,,,,,,,,,,,,,,,,,,,,,,,,,,,,,,,,27,001,1,36,500,475,2022_Oct_24_1059,Experiment,2021.1.4,359.8118903394767,
,,,,,,,,,,,,,,,,,,,,,,,,,,,,,,,,,,,,,,,,,,,,,,,,,,,,,,,,,,,,,,,,,,,,239.40605649999998,None,space,15.797909400000208,,,,,,,,,,,,,,,,,,,,,,,,,,,,,,,,,,,,,,,,,,,,,,,,,,,,,,,,,,,,,,,,,,,,,,,,,,,,,,,,,,,,,,,,,,,,,27,001,1,36,500,475,2022_Oct_24_1059,Experiment,2021.1.4,359.8118903394767,
images\S22_M_H_02.png,images\S22_M_H_02_scrambled.png,22,Happy,-0.2,M,0,0,practice,off,1,0.5,0.75,0.5,0.883,3,,,,,,,,,,,0,0,0,2,,,,,,,,,,,,,,,,,,,,,,,,,,,,,,,,,,,,,,,,,,,255.3844136000007,255.88990100000046,255.88990100000046,256.6425472000001,256.6425472000001,257.14791590000004,257.14791590000004,258.03379920000043,258.03379920000043,None,num_4,2.170966099999532,258.03379920000043,None,,,,,,,,,,,,,,,,,,,,,,,,,,,,,,,,,,,,,,,,,,,,,,,,,,,,,,,,,,,,,,,,,,,,,,,,,,,,,,,27,001,1,36,500,475,2022_Oct_24_1059,Experiment,2021.1.4,359.8118903394767,
images\S22_M_S_03.png,images\S22_M_S_03_scrambled.png,22,Sad,0.3,M,0,0,practice,on,2,0.5,0.75,0.5,0.794,3,,,,,,,,,,,0,1,1,7,,,,,,,,,,,,,,,,,,,,,,,,,,,,,,,,,,,,,,,,,,,260.2940778000002,260.7994832000004,260.7994832000004,261.5492520000007,261.5492520000007,262.05185960000017,262.05185960000017,262.8489225000003,262.8489225000003,None,num_4,1.0355486999997083,262.8489225000003,None,,,,,,,,,,,,,,,,,,,,,,,,,,,,,,,,,,,,,,,,,,,,,,,,,,,,,,,,,,,,,,,,,,,,,,,,,,,,,,,27,001,1,36,500,475,2022_Oct_24_1059,Experiment,2021.1.4,359.8118903394767,
images\S21_F_H_01.png,images\S21_F_H_01_scrambled.png,21,Happy,-0.1,F,0,0,practice,off,1,0.5,0.75,0.5,0.853,3,,,,,,,,,,,0,2,2,0,,,,,,,,,,,,,,,,,,,,,,,,,,,,,,,,,,,,,,,,,,,263.9734971000007,264.47896200000014,264.47896200000014,265.2342858000002,265.2342858000002,265.7396593000003,265.7396593000003,266.59211760000017,266.59211760000017,None,num_4,1.0925646000005145,266.59211760000017,None,,,,,,,,,,,,,,,,,,,,,,,,,,,,,,,,,,,,,,,,,,,,,,,,,,,,,,,,,,,,,,,,,,,,,,,,,,,,,,,27,001,1,36,500,475,2022_Oct_24_1059,Experiment,2021.1.4,359.8118903394767,
images\S22_M_S_01.png,images\S22_M_S_01_scrambled.png,22,Sad,0.1,M,0,0,practice,on,2,0.5,0.75,0.5,0.867,3,,,,,,,,,,,0,3,3,5,,,,,,,,,,,,,,,,,,,,,,,,,,,,,,,,,,,,,,,,,,,267.7751147000008,268.2805388000006,268.2805388000006,269.03318320000017,269.03318320000017,269.5328917000006,269.5328917000006,270.4021188000006,270.4021188000006,None,None,,270.4021188000006,None,,,,,,,,,,,,,,,,,,,,,,,,,,,,,,,,,,,,,,,,,,,,,,,,,,,,,,,,,,,,,,,,,,,,,,,,,,,,,,,27,001,1,36,500,475,2022_Oct_24_1059,Experiment,2021.1.4,359.8118903394767,
images\S22_M_S_03.png,images\S22_M_S_03_scrambled.png,22,Sad,0.3,M,0,0,practice,on,2,0.5,0.75,0.5,0.87,3,,,,,,,,,,,0,4,4,4,,,,,,,,,,,,,,,,,,,,,,,,,,,,,,,,,,,,,,,,,,,273.4539216000003,273.9593745000002,273.9593745000002,274.7091067000001,274.7091067000001,275.21175440000025,275.21175440000025,276.08379520000017,276.08379520000017,273.4539216000003,None,,276.08379520000017,273.4539216000003,,,,,,,,,,,,,,,,,,,,,,,,,,,,,,,,,,,,,,,,,,,,,,,,,,,,,,,,,,,,,,,,,,,,,,,,,,,,,,,27,001,1,36,500,475,2022_Oct_24_1059,Experiment,2021.1.4,359.8118903394767,
images\S22_M_S_02.png,images\S22_M_S_02_scrambled.png,22,Sad,0.2,M,0,0,practice,off,1,0.5,0.75,0.5,0.751,3,,,,,,,,,,,0,5,5,3,,,,,,,,,,,,,,,,,,,,,,,,,,,,,,,,,,,,,,,,,,,279.1688253000002,279.66867380000076,279.66867380000076,280.4184743000005,280.4184743000005,280.9211064000001,280.9211064000001,281.67921110000043,281.67921110000043,279.1688253000002,None,,281.67921110000043,279.1688253000002,,,,,,,,,,,,,,,,,,,,,,,,,,,,,,,,,,,,,,,,,,,,,,,,,,,,,,,,,,,,,,,,,,,,,,,,,,,,,,,27,001,1,36,500,475,2022_Oct_24_1059,Experiment,2021.1.4,359.8118903394767,
images\S21_F_H_02.png,images\S21_F_H_02_scrambled.png,21,Happy,-0.2,F,0,0,practice,off,1,0.5,0.75,0.5,0.91,3,,,,,,,,,,,0,6,6,1,,,,,,,,,,,,,,,,,,,,,,,,,,,,,,,,,,,,,,,,,,,284.7643306,285.2669616000003,285.2669616000003,286.019542,286.019542,286.52211650000027,286.52211650000027,287.43575130000045,287.43575130000045,284.7643306,None,,287.43575130000045,284.7643306,,,,,,,,,,,,,,,,,,,,,,,,,,,,,,,,,,,,,,,,,,,,,,,,,,,,,,,,,,,,,,,,,,,,,,,,,,,,,,,27,001,1,36,500,475,2022_Oct_24_1059,Experiment,2021.1.4,359.8118903394767,
images\S22_M_S_02.png,images\S22_M_S_02_scrambled.png,22,Sad,0.2,M,0,0,practice,on,2,0.5,0.75,0.5,0.783,3,,,,,,,,,,,0,7,7,6,,,,,,,,,,,,,,,,,,,,,,,,,,,,,,,,,,,,,,,,,,,290.4847926000002,290.98742480000055,290.98742480000055,291.7371968000007,291.7371968000007,292.23981129999993,292.23981129999993,293.0285554000002,293.0285554000002,290.4847926000002,None,,293.0285554000002,290.4847926000002,,,,,,,,,,,,,,,,,,,,,,,,,,,,,,,,,,,,,,,,,,,,,,,,,,,,,,,,,,,,,,,,,,,,,,,,,,,,,,,27,001,1,36,500,475,2022_Oct_24_1059,Experiment,2021.1.4,359.8118903394767,
,,,,,,,,,,,,,,,,,,,,,,,,,,,,,,,,,,,,,,,,,,,,,,,,,,,,,,,,,,,,,,,,,,,,,,,,,,,,,,,,,,,,,,296.0553069000007,None,space,86.02063100000032,,,,,,,,,,,,,,,,,,,,,,,,,,,,,,,,,,,,,,,,,,,,,,,,,,,,,,,,,,,,,,,,,,,,,,,,,,,27,001,1,36,500,475,2022_Oct_24_1059,Experiment,2021.1.4,359.8118903394767,
images\S7_F_S_03.png,images\S7_F_S_03_scrambled.png,7,sad,-30,female,1,,402,off,1,0.5,0.75,0.5,0.918,3,401,1,1,1,0,0,0,0,1,,,,,,0,0,0,0,,,,,,,,,,,,,,,,,,,,,,,,,,,,,,,,,,,,,,,,,,,,,,,,,,,,,,,,,382.58715910000046,383.0924861000003,383.0924861000003,383.8477760000005,383.8477760000005,384.3476126000005,384.3476126000005,385.27236790000006,385.27236790000006,None,num_6,0.8920879999996032,385.27236790000006,None,sad,1,Sad,386.1776556,None,None,386.1776556,None,,,,,,,,,,,,,,,,,,,,,,,,,,,,,,,,,,,,,,,,,,,,,,,,,,,,,27,001,1,36,500,475,2022_Oct_24_1059,Experiment,2021.1.4,359.8118903394767,
images\S6_M_S_02.png,images\S6_M_S_02_scrambled.png,6,sad,-20,male,2,,335,on,2,0.5,0.75,0.5,0.918,3,334,1,1,1,2,2,32,128,162,,,,,,0,1,1,1,,,,,,,,,,,,,,,,,,,,,,,,,,,,,,,,,,,,,,,,,,,,,,,,,,,,,,,,,386.2637033000001,386.76645910000025,386.76645910000025,387.5188882000002,387.5188882000002,388.02162020000014,388.02162020000014,388.9463287000008,388.9463287000008,None,num_6,0.20208290000027773,388.9463287000008,None,sad,1,Sad,389.1601161400005,None,None,389.1601161400005,None,,,,,,,,,,,,,,,,,,,,,,,,,,,,,,,,,,,,,,,,,,,,,,,,,,,,,27,001,1,36,500,475,2022_Oct_24_1059,Experiment,2021.1.4,359.8118903394767,
images\S9_F_H_01.png,images\S9_F_H_01_scrambled.png,9,happy,10,female,4,,349,on,2,0.5,0.75,0.5,0.836,3,348,2,1,1,2,2,32,128,164,,,,,,0,2,2,2,,,,,,,,,,,,,,,,,,,,,,,,,,,,,,,,,,,,,,,,,,,,,,,,,,,,,,,,,389.2738898000007,389.7766308,389.7766308,390.5319083000004,390.5319083000004,391.0372877,391.0372877,391.8758531000003,391.8758531000003,None,num_4,0.40085220000037225,391.8758531000003,None,happy,1,Happy,392.30632419999984,None,None,392.30632419999984,None,,,,,,,,,,,,,,,,,,,,,,,,,,,,,,,,,,,,,,,,,,,,,,,,,,,,,27,001,1,36,500,475,2022_Oct_24_1059,Experiment,2021.1.4,359.8118903394767,
images\blank.jpg,images\blank.jpg,none,none,none,none,0,,626,on,2,0.5,0.75,0.5,0.879,0,625,3,1,1,3,3,48,192,240,,,,,,0,3,3,3,,,,,,,,,,,,,,,,,,,,,,,,,,,,,,,,,,,,,,,,,,,,,,,,,,,,,,,,,392.4649900000004,392.9671999000002,392.9671999000002,393.7169631000006,393.7169631000006,394.22241850000046,394.22241850000046,395.10264350000034,395.10264350000034,395.10264350000034,None,,395.10264350000034,None,miss,1,,398.10459482000044,None,None,398.10459482000044,None,,,,,,,,,,,,,,,,,,,,,,,,,,,,,,,,,,,,,,,,,,,,,,,,,,,,,27,001,1,36,500,475,2022_Oct_24_1059,Experiment,2021.1.4,359.8118903394767,
images\S1_F_H_03.png,images\S1_F_H_03_scrambled.png,1,happy,30,female,6,,243,off,1,0.5,0.75,0.5,0.758,3,242,1,1,1,0,0,0,0,6,,,,,,0,4,4,4,,,,,,,,,,,,,,,,,,,,,,,,,,,,,,,,,,,,,,,,,,,,,,,,,,,,,,,,,398.2602166000006,398.76555970000027,398.76555970000027,399.5179469000004,399.5179469000004,400.02072490000046,400.02072490000046,400.78159010000036,400.78159010000036,None,num_4,0.6308988000000681,400.78159010000036,398.2602166000006,happy,1,Happy,401.42298234000026,None,None,401.42298234000026,None,,,,,,,,,,,,,,,,,,,,,,,,,,,,,,,,,,,,,,,,,,,,,,,,,,,,,27,001,1,36,500,475,2022_Oct_24_1059,Experiment,2021.1.4,359.8118903394767,
images\S8_M_H_03.png,images\S8_M_H_03_scrambled.png,8,happy,30,male,6,,585,on,2,0.5,0.75,0.5,0.869,3,584,1,1,2,2,2,32,128,166,,,,,,0,5,5,5,,,,,,,,,,,,,,,,,,,,,,,,,,,,,,,,,,,,,,,,,,,,,,,,,,,,,,,,,401.5062508000001,402.00609299999996,402.00609299999996,402.7558446000003,402.7558446000003,403.26138210000045,403.26138210000045,404.13319410000076,404.13319410000076,None,num_4,1.2875882999996975,404.13319410000076,None,happy,1,Happy,405.43560094000003,None,None,405.43560094000003,None,,,,,,,,,,,,,,,,,,,,,,,,,,,,,,,,,,,,,,,,,,,,,,,,,,,,,27,001,1,36,500,475,2022_Oct_24_1059,Experiment,2021.1.4,359.8118903394767,
images\S5_F_H_03.png,images\S5_F_H_03_scrambled.png,5,happy,30,female,6,,207,on,2,0.5,0.75,0.5,0.801,3,206,2,1,3,2,2,32,128,166,,,,,,0,6,6,6,,,,,,,,,,,,,,,,,,,,,,,,,,,,,,,,,,,,,,,,,,,,,,,,,,,,,,,,,405.51889050000045,406.0215351000006,406.0215351000006,406.7713012000004,406.7713012000004,407.2767683000002,407.2767683000002,408.0820362000004,408.0820362000004,None,num_4,0.9785263999992821,408.0820362000004,None,happy,1,Happy,409.07341964000005,None,None,409.07341964000005,None,,,,,,,,,,,,,,,,,,,,,,,,,,,,,,,,,,,,,,,,,,,,,,,,,,,,,27,001,1,36,500,475,2022_Oct_24_1059,Experiment,2021.1.4,359.8118903394767,
images\S10_M_S_03.png,images\S10_M_S_03_scrambled.png,10,sad,-30,male,1,,480,on,2,0.5,0.75,0.5,0.843,3,479,3,1,1,2,2,32,128,161,,,,,,0,7,7,7,,,,,,,,,,,,,,,,,,,,,,,,,,,,,,,,,,,,,,,,,,,,,,,,,,,,,,,,,409.1566780000003,409.6592771000005,409.6592771000005,410.41190840000036,410.41190840000036,410.9172782000005,410.9172782000005,411.7670152999999,411.7670152999999,None,num_6,0.7255896999995457,411.7670152999999,None,sad,1,Sad,412.5084326400003,None,None,412.5084326400003,None,,,,,,,,,,,,,,,,,,,,,,,,,,,,,,,,,,,,,,,,,,,,,,,,,,,,,27,001,1,36,500,475,2022_Oct_24_1059,Experiment,2021.1.4,359.8118903394767,
images\S3_F_S_02.png,images\S3_F_S_02_scrambled.png,3,sad,-20,female,2,,17,off,1,0.5,0.75,0.5,0.917,3,16,1,1,1,0,0,0,0,2,,,,,,0,8,8,8,,,,,,,,,,,,,,,,,,,,,,,,,,,,,,,,,,,,,,,,,,,,,,,,,,,,,,,,,412.5917266000006,413.0915881000001,413.0915881000001,413.84694320000017,413.84694320000017,414.3523285000001,414.3523285000001,415.2715822,415.2715822,None,num_6,0.9410176999999749,415.2715822,None,sad,1,Sad,416.2267230400004,None,None,416.2267230400004,None,,,,,,,,,,,,,,,,,,,,,,,,,,,,,,,,,,,,,,,,,,,,,,,,,,,,,27,001,1,36,500,475,2022_Oct_24_1059,Experiment,2021.1.4,359.8118903394767,
images\S3_F_S_03.png,images\S3_F_S_03_scrambled.png,3,sad,-30,female,1,,78,on,2,0.5,0.75,0.5,0.878,3,77,1,2,1,2,2,32,128,161,,,,,,0,9,9,9,,,,,,,,,,,,,,,,,,,,,,,,,,,,,,,,,,,,,,,,,,,,,,,,,,,,,,,,,416.3100256000007,416.81268140000066,416.81268140000066,417.5679958999999,417.5679958999999,418.07072120000066,418.07072120000066,418.95368060000055,418.95368060000055,None,num_6,0.922726199999488,418.95368060000055,None,sad,1,Sad,419.8894885400006,None,None,419.8894885400006,None,,,,,,,,,,,,,,,,,,,,,,,,,,,,,,,,,,,,,,,,,,,,,,,,,,,,,27,001,1,36,500,475,2022_Oct_24_1059,Experiment,2021.1.4,359.8118903394767,
images\S1_F_H_02.png,images\S1_F_H_02_scrambled.png,1,happy,20,female,5,,182,on,2,0.5,0.75,0.5,0.929,3,181,2,1,1,2,2,32,128,165,,,,,,0,10,10,10,,,,,,,,,,,,,,,,,,,,,,,,,,,,,,,,,,,,,,,,,,,,,,,,,,,,,,,,,419.9727862,420.47264690000065,420.47264690000065,421.2252160000007,421.2252160000007,421.72782840000036,421.72782840000036,422.6609724,422.6609724,None,num_4,0.8074909000006301,422.6609724,None,happy,1,Happy,423.48283104,None,None,423.48283104,None,,,,,,,,,,,,,,,,,,,,,,,,,,,,,,,,,,,,,,,,,,,,,,,,,,,,,27,001,1,36,500,475,2022_Oct_24_1059,Experiment,2021.1.4,359.8118903394767,
images\S3_F_S_03.png,images\S3_F_S_03_scrambled.png,3,sad,-30,female,1,,138,off,1,0.5,0.75,0.5,0.855,3,137,1,1,1,0,0,0,0,1,,,,,,0,11,11,11,,,,,,,,,,,,,,,,,,,,,,,,,,,,,,,,,,,,,,,,,,,,,,,,,,,,,,,,,423.5328014000006,424.0354204000005,424.0354204000005,424.7852292000007,424.7852292000007,425.2878427000005,425.2878427000005,426.1431067000003,426.1431067000003,None,num_6,0.9095360999999684,426.1431067000003,None,sad,1,Sad,427.0706260400004,None,None,427.0706260400004,None,,,,,,,,,,,,,,,,,,,,,,,,,,,,,,,,,,,,,,,,,,,,,,,,,,,,,27,001,1,36,500,475,2022_Oct_24_1059,Experiment,2021.1.4,359.8118903394767,
images\S6_M_H_03.png,images\S6_M_H_03_scrambled.png,6,happy,30,male,6,,453,on,2,0.5,0.75,0.5,0.878,3,452,1,1,1,2,2,32,128,166,,,,,,0,12,12,12,,,,,,,,,,,,,,,,,,,,,,,,,,,,,,,,,,,,,,,,,,,,,,,,,,,,,,,,,427.16218130000016,427.66767849999997,427.66767849999997,428.4203277000006,428.4203277000006,428.9228492000002,428.9228492000002,429.80308980000063,429.80308980000063,None,num_4,1.3134578999997757,429.80308980000063,None,happy,1,Happy,431.13047704000036,None,None,431.13047704000036,None,,,,,,,,,,,,,,,,,,,,,,,,,,,,,,,,,,,,,,,,,,,,,,,,,,,,,27,001,1,36,500,475,2022_Oct_24_1059,Experiment,2021.1.4,359.8118903394767,
images\S7_F_S_03.png,images\S7_F_S_03_scrambled.png,7,sad,-30,female,1,,282,off,1,0.5,0.75,0.5,0.852,3,281,1,1,1,0,0,0,0,1,,,,,,0,13,13,13,,,,,,,,,,,,,,,,,,,,,,,,,,,,,,,,,,,,,,,,,,,,,,,,,,,,,,,,,431.1776699000002,431.68310270000075,431.68310270000075,432.4356579000005,432.4356579000005,432.93824080000013,432.93824080000013,433.7964374000003,433.7964374000003,None,num_6,1.0801504000000932,433.7964374000003,None,sad,1,Sad,434.89043383999996,None,None,434.89043383999996,None,,,,,,,,,,,,,,,,,,,,,,,,,,,,,,,,,,,,,,,,,,,,,,,,,,,,,27,001,1,36,500,475,2022_Oct_24_1059,Experiment,2021.1.4,359.8118903394767,
images\S5_F_H_02.png,images\S5_F_H_02_scrambled.png,5,happy,20,female,5,,506,off,1,0.5,0.75,0.5,0.899,3,505,2,1,1,0,0,0,0,5,,,,,,0,14,14,14,,,,,,,,,,,,,,,,,,,,,,,,,,,,,,,,,,,,,,,,,,,,,,,,,,,,,,,,,434.97373460000017,435.47643920000064,435.47643920000064,436.23172870000053,436.23172870000053,436.7371256000006,436.7371256000006,437.6423842000004,437.6423842000004,None,num_4,0.7302153999999064,437.6423842000004,None,happy,1,Happy,438.38658464000054,None,None,438.38658464000054,None,,,,,,,,,,,,,,,,,,,,,,,,,,,,,,,,,,,,,,,,,,,,,,,,,,,,,27,001,1,36,500,475,2022_Oct_24_1059,Experiment,2021.1.4,359.8118903394767,
images\S8_M_S_03.png,images\S8_M_S_03_scrambled.png,8,sad,-30,male,1,,108,on,2,0.5,0.75,0.5,0.945,3,107,1,1,1,2,2,32,128,161,,,,,,0,15,15,15,,,,,,,,,,,,,,,,,,,,,,,,,,,,,,,,,,,,,,,,,,,,,,,,,,,,,,,,,438.47267420000026,438.9752778000002,438.9752778000002,439.7250427000008,439.7250427000008,440.2249440000005,440.2249440000005,441.1718449,441.1718449,None,num_6,0.9042893000005279,441.1718449,None,sad,1,Sad,442.0909957400001,None,None,442.0909957400001,None,,,,,,,,,,,,,,,,,,,,,,,,,,,,,,,,,,,,,,,,,,,,,,,,,,,,,27,001,1,36,500,475,2022_Oct_24_1059,Experiment,2021.1.4,359.8118903394767,
images\S8_M_S_01.png,images\S8_M_S_01_scrambled.png,8,sad,-10,male,3,,406,off,1,0.5,0.75,0.5,0.848,3,405,1,2,1,0,0,0,0,3,,,,,,0,16,16,16,,,,,,,,,,,,,,,,,,,,,,,,,,,,,,,,,,,,,,,,,,,,,,,,,,,,,,,,,442.20203110000057,442.70469930000036,442.70469930000036,443.45443630000045,443.45443630000045,443.9570960000001,443.9570960000001,444.8068933000004,444.8068933000004,None,num_6,1.1096122999997533,444.8068933000004,None,sad,1,Sad,445.93148474000026,None,None,445.93148474000026,None,,,,,,,,,,,,,,,,,,,,,,,,,,,,,,,,,,,,,,,,,,,,,,,,,,,,,27,001,1,36,500,475,2022_Oct_24_1059,Experiment,2021.1.4,359.8118903394767,
images\S10_M_S_03.png,images\S10_M_S_03_scrambled.png,10,sad,-30,male,1,,240,on,2,0.5,0.75,0.5,0.772,3,239,1,1,1,2,2,32,128,161,,,,,,0,17,17,17,,,,,,,,,,,,,,,,,,,,,,,,,,,,,,,,,,,,,,,,,,,,,,,,,,,,,,,,,445.97867360000055,446.48143620000064,446.48143620000064,447.2338698000003,447.2338698000003,447.73660689999997,447.73660689999997,448.51126190000014,448.51126190000014,None,num_4,1.5813813000004302,448.51126190000014,None,happy,1,Sad,450.10246918000024,None,None,450.10246918000024,None,,,,,,,,,,,,,,,,,,,,,,,,,,,,,,,,,,,,,,,,,,,,,,,,,,,,,27,001,1,36,500,475,2022_Oct_24_1059,Experiment,2021.1.4,359.8118903394767,
images\S6_M_H_02.png,images\S6_M_H_02_scrambled.png,6,happy,20,male,5,,572,on,2,0.5,0.75,0.5,0.794,3,571,2,1,1,2,2,32,128,165,,,,,,0,18,18,18,,,,,,,,,,,,,,,,,,,,,,,,,,,,,,,,,,,,,,,,,,,,,,,,,,,,,,,,,450.2079381000003,450.71336820000033,450.71336820000033,451.4686795000007,451.4686795000007,451.96847330000037,451.96847330000037,452.7626970000001,452.7626970000001,None,num_4,1.393810300000041,452.7626970000001,None,happy,1,Happy,454.17061654000025,None,None,454.17061654000025,None,,,,,,,,,,,,,,,,,,,,,,,,,,,,,,,,,,,,,,,,,,,,,,,,,,,,,27,001,1,36,500,475,2022_Oct_24_1059,Experiment,2021.1.4,359.8118903394767,
images\S1_F_H_01.png,images\S1_F_H_01_scrambled.png,1,happy,10,female,4,,181,on,2,0.5,0.75,0.5,0.861,3,180,3,1,1,2,2,32,128,164,,,,,,0,19,19,19,,,,,,,,,,,,,,,,,,,,,,,,,,,,,,,,,,,,,,,,,,,,,,,,,,,,,,,,,454.25392180000017,454.7565562,454.7565562,455.51192510000055,455.51192510000055,456.01729870000054,456.01729870000054,456.8808804,456.8808804,None,num_4,1.1236056999996435,456.8808804,None,happy,1,Happy,458.01943623999995,None,None,458.01943623999995,None,,,,,,,,,,,,,,,,,,,,,,,,,,,,,,,,,,,,,,,,,,,,,,,,,,,,,27,001,1,36,500,475,2022_Oct_24_1059,Experiment,2021.1.4,359.8118903394767,
images\S1_F_H_02.png,images\S1_F_H_02_scrambled.png,1,happy,20,female,5,,2,off,1,0.5,0.75,0.5,0.805,3,1,1,2,1,0,0,0,0,5,,,,,,0,20,20,20,,,,,,,,,,,,,,,,,,,,,,,,,,,,,,,,,,,,,,,,,,,,,,,,,,,,,,,,,458.06663389999994,458.56926900000053,458.56926900000053,459.3218282000007,459.3218282000007,459.8272442000007,459.8272442000007,460.6381000000001,460.6381000000001,None,num_4,1.0625356000000465,460.6381000000001,None,happy,1,Happy,461.71551784,None,None,461.71551784,None,,,,,,,,,,,,,,,,,,,,,,,,,,,,,,,,,,,,,,,,,,,,,,,,,,,,,27,001,1,36,500,475,2022_Oct_24_1059,Experiment,2021.1.4,359.8118903394767,
images\S6_M_H_03.png,images\S6_M_H_03_scrambled.png,6,happy,30,male,6,,153,off,1,0.5,0.75,0.5,0.894,3,152,2,1,1,0,0,0,0,6,,,,,,0,21,21,21,,,,,,,,,,,,,,,,,,,,,,,,,,,,,,,,,,,,,,,,,,,,,,,,,,,,,,,,,461.76271520000046,462.2681420000008,462.2681420000008,463.0234637000003,463.0234637000003,463.5261969000003,463.5261969000003,464.4230083000002,464.4230083000002,None,num_4,0.7735577000003104,464.4230083000002,None,happy,1,Happy,465.21164754,None,None,465.21164754,None,,,,,,,,,,,,,,,,,,,,,,,,,,,,,,,,,,,,,,,,,,,,,,,,,,,,,27,001,1,36,500,475,2022_Oct_24_1059,Experiment,2021.1.4,359.8118903394767,
images\S9_F_S_02.png,images\S9_F_S_02_scrambled.png,9,sad,-20,female,2,,353,on,2,0.5,0.75,0.5,0.907,3,352,1,1,1,2,2,32,128,162,,,,,,0,22,22,22,,,,,,,,,,,,,,,,,,,,,,,,,,,,,,,,,,,,,,,,,,,,,,,,,,,,,,,,,465.3199568,465.82262119999996,465.82262119999996,466.57794210000066,466.57794210000066,467.08066210000015,467.08066210000015,467.99135750000005,467.99135750000005,None,num_6,0.7013316000002305,467.99135750000005,None,sad,1,Sad,468.7051131400005,None,None,468.7051131400005,None,,,,,,,,,,,,,,,,,,,,,,,,,,,,,,,,,,,,,,,,,,,,,,,,,,,,,27,001,1,36,500,475,2022_Oct_24_1059,Experiment,2021.1.4,359.8118903394767,
images\S1_F_H_01.png,images\S1_F_H_01_scrambled.png,1,happy,10,female,4,,1,off,1,0.5,0.75,0.5,0.759,3,0,1,1,1,0,0,0,0,4,,,,,,0,23,23,23,,,,,,,,,,,,,,,,,,,,,,,,,,,,,,,,,,,,,,,,,,,,,,,,,,,,,,,,,468.7522376000006,469.25767630000064,469.25767630000064,470.00740850000057,470.00740850000057,470.5128371999999,470.5128371999999,471.27370240000073,471.27370240000073,None,num_4,0.8509247000001778,471.27370240000073,None,happy,1,Happy,472.14859246,None,None,472.14859246,None,,,,,,,,,,,,,,,,,,,,,,,,,,,,,,,,,,,,,,,,,,,,,,,,,,,,,27,001,1,36,500,475,2022_Oct_24_1059,Experiment,2021.1.4,359.8118903394767,
images\S10_M_H_01.png,images\S10_M_H_01_scrambled.png,10,happy,10,male,4,,595,on,2,0.5,0.75,0.5,0.92,3,594,1,1,2,2,2,32,128,164,,,,,,0,24,24,24,,,,,,,,,,,,,,,,,,,,,,,,,,,,,,,,,,,,,,,,,,,,,,,,,,,,,,,,,472.2594914000001,472.76211500000045,472.76211500000045,473.5118721000008,473.5118721000008,474.01172829999996,474.01172829999996,474.93658080000023,474.93658080000023,None,num_4,1.1158728000000337,474.93658080000023,None,happy,1,Happy,476.06387104000004,None,None,476.06387104000004,None,,,,,,,,,,,,,,,,,,,,,,,,,,,,,,,,,,,,,,,,,,,,,,,,,,,,,27,001,1,36,500,475,2022_Oct_24_1059,Experiment,2021.1.4,359.8118903394767,
images\S5_F_S_02.png,images\S5_F_S_02_scrambled.png,5,sad,-20,female,2,,269,off,1,0.5,0.75,0.5,0.768,3,268,1,1,1,0,0,0,0,2,,,,,,0,25,25,25,,,,,,,,,,,,,,,,,,,,,,,,,,,,,,,,,,,,,,,,,,,,,,,,,,,,,,,,,476.14720340000076,476.65258600000016,476.65258600000016,477.4051722000004,477.4051722000004,477.90779610000027,477.90779610000027,478.6825559000008,478.6825559000008,None,num_4,1.1056165999998484,478.6825559000008,None,happy,1,Sad,479.79331112000057,None,None,479.79331112000057,None,,,,,,,,,,,,,,,,,,,,,,,,,,,,,,,,,,,,,,,,,,,,,,,,,,,,,27,001,1,36,500,475,2022_Oct_24_1059,Experiment,2021.1.4,359.8118903394767,
images\blank.jpg,images\blank.jpg,none,none,none,none,0,,603,on,2,0.5,0.75,0.5,0.94,0,602,1,1,1,3,3,48,192,240,,,,,,0,26,26,26,,,,,,,,,,,,,,,,,,,,,,,,,,,,,,,,,,,,,,,,,,,,,,,,,,,,,,,,,479.87684010000066,480.3820319000006,480.3820319000006,481.1373558000005,481.1373558000005,481.64274509999996,481.64274509999996,482.5841848,482.5841848,482.5841848,None,,482.5841848,None,miss,1,,485.5888056200007,None,None,485.5888056200007,None,,,,,,,,,,,,,,,,,,,,,,,,,,,,,,,,,,,,,,,,,,,,,,,,,,,,,27,001,1,36,500,475,2022_Oct_24_1059,Experiment,2021.1.4,359.8118903394767,
images\S1_F_S_02.png,images\S1_F_S_02_scrambled.png,1,sad,-20,female,2,,305,on,2,0.5,0.75,0.5,0.855,3,304,2,1,1,2,2,32,128,162,,,,,,0,27,27,27,,,,,,,,,,,,,,,,,,,,,,,,,,,,,,,,,,,,,,,,,,,,,,,,,,,,,,,,,485.7470983000003,486.2496478000003,486.2496478000003,487.0022288,487.0022288,487.5076131000005,487.5076131000005,488.36579450000045,488.36579450000045,None,num_6,0.030693699999574164,488.36579450000045,485.7470983000003,sad,1,Sad,488.4128461400007,None,None,488.4128461400007,None,,,,,,,,,,,,,,,,,,,,,,,,,,,,,,,,,,,,,,,,,,,,,,,,,,,,,27,001,1,36,500,475,2022_Oct_24_1059,Experiment,2021.1.4,359.8118903394767,
images\S2_M_S_01.png,images\S2_M_S_01_scrambled.png,2,sad,-10,male,3,,370,off,1,0.5,0.75,0.5,0.948,3,369,1,1,1,0,0,0,0,3,,,,,,0,28,28,28,,,,,,,,,,,,,,,,,,,,,,,,,,,,,,,,,,,,,,,,,,,,,,,,,,,,,,,,,488.5239425,489.0266410000004,489.0266410000004,489.7763552000006,489.7763552000006,490.28187720000005,490.28187720000005,491.23423060000005,491.23423060000005,None,num_6,0.6343505999993795,491.23423060000005,None,sad,1,Sad,491.88125424000026,None,None,491.88125424000026,None,,,,,,,,,,,,,,,,,,,,,,,,,,,,,,,,,,,,,,,,,,,,,,,,,,,,,27,001,1,36,500,475,2022_Oct_24_1059,Experiment,2021.1.4,359.8118903394767,
images\S6_M_H_01.png,images\S6_M_H_01_scrambled.png,6,happy,10,male,4,,31,off,1,0.5,0.75,0.5,0.773,3,30,2,1,1,0,0,0,0,4,,,,,,0,29,29,29,,,,,,,,,,,,,,,,,,,,,,,,,,,,,,,,,,,,,,,,,,,,,,,,,,,,,,,,,491.9673315,492.47277140000006,492.47277140000006,493.2280789000006,493.2280789000006,493.7334780000001,493.7334780000001,494.5082394000001,494.5082394000001,None,num_6,0.48807180000039807,494.5082394000001,None,sad,1,Happy,495.00529042000073,None,None,495.00529042000073,None,,,,,,,,,,,,,,,,,,,,,,,,,,,,,,,,,,,,,,,,,,,,,,,,,,,,,27,001,1,36,500,475,2022_Oct_24_1059,Experiment,2021.1.4,359.8118903394767,
images\S5_F_S_02.png,images\S5_F_S_02_scrambled.png,5,sad,-20,female,2,,89,on,2,0.5,0.75,0.5,0.769,3,88,1,1,1,2,2,32,128,162,,,,,,0,30,30,30,,,,,,,,,,,,,,,,,,,,,,,,,,,,,,,,,,,,,,,,,,,,,,,,,,,,,,,,,495.0524890000006,495.55510550000054,495.55510550000054,496.3077060000005,496.3077060000005,496.81033040000057,496.81033040000057,497.58226809999996,497.58226809999996,None,num_4,0.6064430999995238,497.58226809999996,None,happy,1,Sad,498.1987494199999,None,None,498.1987494199999,None,,,,,,,,,,,,,,,,,,,,,,,,,,,,,,,,,,,,,,,,,,,,,,,,,,,,,27,001,1,36,500,475,2022_Oct_24_1059,Experiment,2021.1.4,359.8118903394767,
images\S3_F_H_01.png,images\S3_F_H_01_scrambled.png,3,happy,10,female,4,,133,off,1,0.5,0.75,0.5,0.887,3,132,1,1,1,0,0,0,0,4,,,,,,0,31,31,31,,,,,,,,,,,,,,,,,,,,,,,,,,,,,,,,,,,,,,,,,,,,,,,,,,,,,,,,,498.3070402000003,498.8124841000008,498.8124841000008,499.56780849999996,499.56780849999996,500.0732005,500.0732005,500.9674136000003,500.9674136000003,None,num_4,0.6532766000000265,500.9674136000003,None,happy,1,Happy,501.63659604000003,None,None,501.63659604000003,None,,,,,,,,,,,,,,,,,,,,,,,,,,,,,,,,,,,,,,,,,,,,,,,,,,,,,27,001,1,36,500,475,2022_Oct_24_1059,Experiment,2021.1.4,359.8118903394767,
images\S7_F_S_01.png,images\S7_F_S_01_scrambled.png,7,sad,-10,female,3,,340,on,2,0.5,0.75,0.5,0.923,3,339,1,1,1,2,2,32,128,163,,,,,,0,32,32,32,,,,,,,,,,,,,,,,,,,,,,,,,,,,,,,,,,,,,,,,,,,,,,,,,,,,,,,,,501.71989440000016,502.22255100000075,502.22255100000075,502.9778694000006,502.9778694000006,503.4776758000007,503.4776758000007,504.4024330000002,504.4024330000002,None,num_4,1.1861448999998174,504.4024330000002,None,happy,1,Sad,505.59925428000037,None,None,505.59925428000037,None,,,,,,,,,,,,,,,,,,,,,,,,,,,,,,,,,,,,,,,,,,,,,,,,,,,,,27,001,1,36,500,475,2022_Oct_24_1059,Experiment,2021.1.4,359.8118903394767,
images\S3_F_S_02.png,images\S3_F_S_02_scrambled.png,3,sad,-20,female,2,,197,on,2,0.5,0.75,0.5,0.913,3,196,2,1,1,2,2,32,128,162,,,,,,0,33,33,33,,,,,,,,,,,,,,,,,,,,,,,,,,,,,,,,,,,,,,,,,,,,,,,,,,,,,,,,,505.6659002000006,506.17141600000014,506.17141600000014,506.9238595000006,506.9238595000006,507.4265996000004,507.4265996000004,508.3428894000008,508.3428894000008,None,num_6,0.7256050999994841,508.3428894000008,None,sad,1,Sad,509.08441076000037,None,None,509.08441076000037,None,,,,,,,,,,,,,,,,,,,,,,,,,,,,,,,,,,,,,,,,,,,,,,,,,,,,,27,001,1,36,500,475,2022_Oct_24_1059,Experiment,2021.1.4,359.8118903394767,
images\S4_M_H_03.png,images\S4_M_H_03_scrambled.png,4,happy,30,male,6,,21,off,1,0.5,0.75,0.5,0.832,3,20,1,1,1,0,0,0,0,6,,,,,,0,34,34,34,,,,,,,,,,,,,,,,,,,,,,,,,,,,,,,,,,,,,,,,,,,,,,,,,,,,,,,,,509.17314760000045,509.67856370000027,509.67856370000027,510.43389300000035,510.43389300000035,510.9366172,510.9366172,511.77233720000004,511.77233720000004,None,num_4,0.8079649999999674,511.77233720000004,None,happy,1,Happy,512.5915747400005,None,None,512.5915747400005,None,,,,,,,,,,,,,,,,,,,,,,,,,,,,,,,,,,,,,,,,,,,,,,,,,,,,,27,001,1,36,500,475,2022_Oct_24_1059,Experiment,2021.1.4,359.8118903394767,
images\S5_F_H_03.png,images\S5_F_H_03_scrambled.png,5,happy,30,female,6,,567,on,2,0.5,0.75,0.5,0.753,3,566,1,1,2,2,2,32,128,166,,,,,,0,35,35,35,,,,,,,,,,,,,,,,,,,,,,,,,,,,,,,,,,,,,,,,,,,,,,,,,,,,,,,,,512.6387507,513.1413906000007,513.1413906000007,513.8911622000005,513.8911622000005,514.3966902000002,514.3966902000002,515.1519038000006,515.1519038000006,None,num_4,0.9884429000003365,515.1519038000006,None,happy,1,Happy,516.1571360400004,None,None,516.1571360400004,None,,,,,,,,,,,,,,,,,,,,,,,,,,,,,,,,,,,,,,,,,,,,,,,,,,,,,27,001,1,36,500,475,2022_Oct_24_1059,Experiment,2021.1.4,359.8118903394767,
images\S1_F_H_02.png,images\S1_F_H_02_scrambled.png,1,happy,20,female,5,,542,on,2,0.5,0.75,0.5,0.808,3,541,2,1,1,2,2,32,128,165,,,,,,0,36,36,36,,,,,,,,,,,,,,,,,,,,,,,,,,,,,,,,,,,,,,,,,,,,,,,,,,,,,,,,,516.2071003000001,516.7097298000008,516.7097298000008,517.4623122000003,517.4623122000003,517.9621237000001,517.9621237000001,518.7729740000004,518.7729740000004,None,num_4,1.1676799999995637,518.7729740000004,None,happy,1,Happy,519.9531840400006,None,None,519.9531840400006,None,,,,,,,,,,,,,,,,,,,,,,,,,,,,,,,,,,,,,,,,,,,,,,,,,,,,,27,001,1,36,500,475,2022_Oct_24_1059,Experiment,2021.1.4,359.8118903394767,
images\S7_F_S_03.png,images\S7_F_S_03_scrambled.png,7,sad,-30,female,1,,522,off,1,0.5,0.75,0.5,0.931,3,521,1,1,1,0,0,0,0,1,,,,,,0,37,37,37,,,,,,,,,,,,,,,,,,,,,,,,,,,,,,,,,,,,,,,,,,,,,,,,,,,,,,,,,520.0003796000001,520.5030317000001,520.5030317000001,521.2583232000006,521.2583232000006,521.7611053,521.7611053,522.694007,522.694007,None,num_6,0.5825499999991735,522.694007,None,sad,1,Sad,523.29383204,None,None,523.29383204,None,,,,,,,,,,,,,,,,,,,,,,,,,,,,,,,,,,,,,,,,,,,,,,,,,,,,,27,001,1,36,500,475,2022_Oct_24_1059,Experiment,2021.1.4,359.8118903394767,
images\S3_F_S_03.png,images\S3_F_S_03_scrambled.png,3,sad,-30,female,1,,198,on,2,0.5,0.75,0.5,0.932,3,197,1,1,2,2,2,32,128,161,,,,,,0,38,38,38,,,,,,,,,,,,,,,,,,,,,,,,,,,,,,,,,,,,,,,,,,,,,,,,,,,,,,,,,523.3410196000004,523.8408604000006,523.8408604000006,524.5906739000002,524.5906739000002,525.0905236000008,525.0905236000008,526.0264504000006,526.0264504000006,None,num_6,0.8263044999994236,526.0264504000006,None,sad,1,Sad,526.8677336399998,None,None,526.8677336399998,None,,,,,,,,,,,,,,,,,,,,,,,,,,,,,,,,,,,,,,,,,,,,,,,,,,,,,27,001,1,36,500,475,2022_Oct_24_1059,Experiment,2021.1.4,359.8118903394767,
images\blank.jpg,images\blank.jpg,none,none,none,none,0,,609,on,2,0.5,0.75,0.5,0.786,0,608,2,1,1,3,3,48,192,240,,,,,,0,39,39,39,,,,,,,,,,,,,,,,,,,,,,,,,,,,,,,,,,,,,,,,,,,,,,,,,,,,,,,,,526.9512644000006,527.4565723000005,527.4565723000005,528.2061797000006,528.2061797000006,528.7088285,528.7088285,529.5002756000004,529.5002756000004,529.5002756000004,None,,529.5002756000004,None,miss,1,,532.5021757200007,None,None,532.5021757200007,None,,,,,,,,,,,,,,,,,,,,,,,,,,,,,,,,,,,,,,,,,,,,,,,,,,,,,27,001,1,36,500,475,2022_Oct_24_1059,Experiment,2021.1.4,359.8118903394767,
images\S7_F_H_03.png,images\S7_F_H_03_scrambled.png,7,happy,30,female,6,,579,on,2,0.5,0.75,0.5,0.814,3,578,3,1,1,2,2,32,128,166,,,,,,0,40,40,40,,,,,,,,,,,,,,,,,,,,,,,,,,,,,,,,,,,,,,,,,,,,,,,,,,,,,,,,,532.6688000000004,533.1741185000001,533.1741185000001,533.9266784000001,533.9266784000001,534.4292879000004,534.4292879000004,535.2484960000002,535.2484960000002,None,num_4,0.45197099999950296,535.2484960000002,532.6688000000004,happy,1,Happy,535.7150029400001,None,None,535.7150029400001,None,,,,,,,,,,,,,,,,,,,,,,,,,,,,,,,,,,,,,,,,,,,,,,,,,,,,,27,001,1,36,500,475,2022_Oct_24_1059,Experiment,2021.1.4,359.8118903394767,
images\S4_M_S_02.png,images\S4_M_S_02_scrambled.png,4,sad,-20,male,2,,83,on,2,0.5,0.75,0.5,0.842,3,82,4,1,1,2,2,32,128,162,,,,,,0,41,41,41,,,,,,,,,,,,,,,,,,,,,,,,,,,,,,,,,,,,,,,,,,,,,,,,,,,,,,,,,535.7983029000006,536.3010458000008,536.3010458000008,537.0507234000006,537.0507234000006,537.5562164000003,537.5562164000003,538.4003171000004,538.4003171000004,None,num_6,0.8203161000001273,538.4003171000004,None,sad,1,Sad,539.2417751600003,None,None,539.2417751600003,None,,,,,,,,,,,,,,,,,,,,,,,,,,,,,,,,,,,,,,,,,,,,,,,,,,,,,27,001,1,36,500,475,2022_Oct_24_1059,Experiment,2021.1.4,359.8118903394767,
images\S4_M_H_02.png,images\S4_M_H_02_scrambled.png,4,happy,20,male,5,,320,on,2,0.5,0.75,0.5,0.811,3,319,5,2,1,2,2,32,128,165,,,,,,0,42,42,42,,,,,,,,,,,,,,,,,,,,,,,,,,,,,,,,,,,,,,,,,,,,,,,,,,,,,,,,,539.3472154000001,539.8526490000004,539.8526490000004,540.6052009000005,540.6052009000005,541.1078069000005,541.1078069000005,541.9215671000002,541.9215671000002,None,num_4,0.8749652000005881,541.9215671000002,None,happy,1,Happy,542.8128355000003,None,None,542.8128355000003,None,,,,,,,,,,,,,,,,,,,,,,,,,,,,,,,,,,,,,,,,,,,,,,,,,,,,,27,001,1,36,500,475,2022_Oct_24_1059,Experiment,2021.1.4,359.8118903394767,
images\S9_F_S_01.png,images\S9_F_S_01_scrambled.png,9,sad,-10,female,3,,412,off,1,0.5,0.75,0.5,0.876,3,411,1,1,1,0,0,0,0,3,,,,,,0,43,43,43,,,,,,,,,,,,,,,,,,,,,,,,,,,,,,,,,,,,,,,,,,,,,,,,,,,,,,,,,542.8933483999999,543.3987619,543.3987619,544.1513053000008,544.1513053000008,544.6539314000001,544.6539314000001,545.5370235,545.5370235,None,num_6,1.5955641999998988,545.5370235,None,sad,1,Sad,547.1504789399997,None,None,547.1504789399997,None,,,,,,,,,,,,,,,,,,,,,,,,,,,,,,,,,,,,,,,,,,,,,,,,,,,,,27,001,1,36,500,475,2022_Oct_24_1059,Experiment,2021.1.4,359.8118903394767,
images\S9_F_S_02.png,images\S9_F_S_02_scrambled.png,9,sad,-20,female,2,,173,off,1,0.5,0.75,0.5,0.948,3,172,2,2,1,0,0,0,0,2,,,,,,0,44,44,44,,,,,,,,,,,,,,,,,,,,,,,,,,,,,,,,,,,,,,,,,,,,,,,,,,,,,,,,,547.2003573000002,547.7030060000006,547.7030060000006,548.4556548,548.4556548,548.9581740000003,548.9581740000003,549.9106276000002,549.9106276000002,None,num_6,1.5097239999995509,549.9106276000002,None,sad,1,Sad,551.4490757000003,None,None,551.4490757000003,None,,,,,,,,,,,,,,,,,,,,,,,,,,,,,,,,,,,,,,,,,,,,,,,,,,,,,27,001,1,36,500,475,2022_Oct_24_1059,Experiment,2021.1.4,359.8118903394767,
images\S2_M_S_03.png,images\S2_M_S_03_scrambled.png,2,sad,-30,male,1,,252,off,1,0.5,0.75,0.5,0.921,3,251,3,1,1,0,0,0,0,1,,,,,,0,45,45,45,,,,,,,,,,,,,,,,,,,,,,,,,,,,,,,,,,,,,,,,,,,,,,,,,,,,,,,,,551.5323562000003,552.0322051000003,552.0322051000003,552.781986,552.781986,553.2846407000006,553.2846407000006,554.2121334000003,554.2121334000003,None,num_6,0.5042823999992834,554.2121334000003,None,sad,1,Sad,554.7452927399996,None,None,554.7452927399996,None,,,,,,,,,,,,,,,,,,,,,,,,,,,,,,,,,,,,,,,,,,,,,,,,,,,,,27,001,1,36,500,475,2022_Oct_24_1059,Experiment,2021.1.4,359.8118903394767,
images\S9_F_S_03.png,images\S9_F_S_03_scrambled.png,9,sad,-30,female,1,,594,on,2,0.5,0.75,0.5,0.814,3,593,1,1,2,2,2,32,128,161,,,,,,0,46,46,46,,,,,,,,,,,,,,,,,,,,,,,,,,,,,,,,,,,,,,,,,,,,,,,,,,,,,,,,,554.8535842000001,555.3563179000002,555.3563179000002,556.1087484,556.1087484,556.6113668000007,556.6113668000007,557.4278037000004,557.4278037000004,None,num_6,1.5207197999998243,557.4278037000004,None,sad,1,Sad,558.9634138399998,None,None,558.9634138399998,None,,,,,,,,,,,,,,,,,,,,,,,,,,,,,,,,,,,,,,,,,,,,,,,,,,,,,27,001,1,36,500,475,2022_Oct_24_1059,Experiment,2021.1.4,359.8118903394767,
images\S5_F_S_02.png,images\S5_F_S_02_scrambled.png,5,sad,-20,female,2,,29,off,1,0.5,0.75,0.5,0.904,3,28,1,1,1,0,0,0,0,2,,,,,,0,47,47,47,,,,,,,,,,,,,,,,,,,,,,,,,,,,,,,,,,,,,,,,,,,,,,,,,,,,,,,,,559.0106187000001,559.5132312000005,559.5132312000005,560.2629996000005,560.2629996000005,560.7657568000004,560.7657568000004,561.6709019,561.6709019,None,num_4,0.9337547000004633,561.6709019,None,happy,1,Sad,562.6095652200006,None,None,562.6095652200006,None,,,,,,,,,,,,,,,,,,,,,,,,,,,,,,,,,,,,,,,,,,,,,,,,,,,,,27,001,1,36,500,475,2022_Oct_24_1059,Experiment,2021.1.4,359.8118903394767,
images\S2_M_H_02.png,images\S2_M_H_02_scrambled.png,2,happy,20,male,5,,128,off,1,0.5,0.75,0.5,0.928,3,127,2,1,1,0,0,0,0,5,,,,,,0,48,48,48,,,,,,,,,,,,,,,,,,,,,,,,,,,,,,,,,,,,,,,,,,,,,,,,,,,,,,,,,562.6955825000005,563.1982422000001,563.1982422000001,563.9509024000008,563.9509024000008,564.4534042000005,564.4534042000005,565.3892865000007,565.3892865000007,None,num_4,0.7517111999995905,565.3892865000007,None,happy,1,Happy,566.1529991400004,None,None,566.1529991400004,None,,,,,,,,,,,,,,,,,,,,,,,,,,,,,,,,,,,,,,,,,,,,,,,,,,,,,27,001,1,36,500,475,2022_Oct_24_1059,Experiment,2021.1.4,359.8118903394767,
images\S4_M_H_02.png,images\S4_M_H_02_scrambled.png,4,happy,20,male,5,,560,on,2,0.5,0.75,0.5,0.787,3,559,1,1,2,2,2,32,128,165,,,,,,0,49,49,49,,,,,,,,,,,,,,,,,,,,,,,,,,,,,,,,,,,,,,,,,,,,,,,,,,,,,,,,,566.2000928000007,566.7027323000002,566.7027323000002,567.4580469000002,567.4580469000002,567.9578808000006,567.9578808000006,568.7492781000001,568.7492781000001,None,num_4,0.7273401000002195,568.7492781000001,None,happy,1,Happy,569.4907407399998,None,None,569.4907407399998,None,,,,,,,,,,,,,,,,,,,,,,,,,,,,,,,,,,,,,,,,,,,,,,,,,,,,,27,001,1,36,500,475,2022_Oct_24_1059,Experiment,2021.1.4,359.8118903394767,
images\S2_M_S_02.png,images\S2_M_S_02_scrambled.png,2,sad,-20,male,2,,491,off,1,0.5,0.75,0.5,0.767,3,490,1,1,1,0,0,0,0,2,,,,,,0,50,50,50,,,,,,,,,,,,,,,,,,,,,,,,,,,,,,,,,,,,,,,,,,,,,,,,,,,,,,,,,569.5712596000003,570.0767392000007,570.0767392000007,570.8264462000006,570.8264462000006,571.3318944000002,571.3318944000002,572.1011800000006,572.1011800000006,None,num_6,1.1751956999996764,572.1011800000006,None,sad,1,Sad,573.2868139399999,None,None,573.2868139399999,None,,,,,,,,,,,,,,,,,,,,,,,,,,,,,,,,,,,,,,,,,,,,,,,,,,,,,27,001,1,36,500,475,2022_Oct_24_1059,Experiment,2021.1.4,359.8118903394767,
images\S10_M_H_01.png,images\S10_M_H_01_scrambled.png,10,happy,10,male,4,,115,on,2,0.5,0.75,0.5,0.927,3,114,1,1,1,2,2,32,128,164,,,,,,0,51,51,51,,,,,,,,,,,,,,,,,,,,,,,,,,,,,,,,,,,,,,,,,,,,,,,,,,,,,,,,,573.3367686000001,573.8393990000004,573.8393990000004,574.59195,574.59195,575.0973801,575.0973801,576.0276448000004,576.0276448000004,None,num_4,0.9529336999994484,576.0276448000004,None,happy,1,Happy,576.9911768399999,None,None,576.9911768399999,None,,,,,,,,,,,,,,,,,,,,,,,,,,,,,,,,,,,,,,,,,,,,,,,,,,,,,27,001,1,36,500,475,2022_Oct_24_1059,Experiment,2021.1.4,359.8118903394767,
images\S3_F_H_03.png,images\S3_F_H_03_scrambled.png,3,happy,30,female,6,,15,off,1,0.5,0.75,0.5,0.829,3,14,1,1,1,0,0,0,0,6,,,,,,0,52,52,52,,,,,,,,,,,,,,,,,,,,,,,,,,,,,,,,,,,,,,,,,,,,,,,,,,,,,,,,,577.0772985000003,577.5827201000002,577.5827201000002,578.3380305999999,578.3380305999999,578.8378567,578.8378567,579.6709212000005,579.6709212000005,None,num_4,0.9656064999999217,579.6709212000005,None,happy,1,Happy,580.6484535400006,None,None,580.6484535400006,None,,,,,,,,,,,,,,,,,,,,,,,,,,,,,,,,,,,,,,,,,,,,,,,,,,,,,27,001,1,36,500,475,2022_Oct_24_1059,Experiment,2021.1.4,359.8118903394767,
images\S3_F_H_01.png,images\S3_F_H_01_scrambled.png,3,happy,10,female,4,,13,off,1,0.5,0.75,0.5,0.759,3,12,2,2,1,0,0,0,0,4,,,,,,0,53,53,53,,,,,,,,,,,,,,,,,,,,,,,,,,,,,,,,,,,,,,,,,,,,,,,,,,,,,,,,,580.7038874,581.2066496000007,581.2066496000007,581.9563600000001,581.9563600000001,582.4618221999999,582.4618221999999,583.2198377000004,583.2198377000004,None,num_6,0.6729648999998972,583.2198377000004,None,sad,1,Happy,583.8974497200002,None,None,583.8974497200002,None,,,,,,,,,,,,,,,,,,,,,,,,,,,,,,,,,,,,,,,,,,,,,,,,,,,,,27,001,1,36,500,475,2022_Oct_24_1059,Experiment,2021.1.4,359.8118903394767,
images\S4_M_H_02.png,images\S4_M_H_02_scrambled.png,4,happy,20,male,5,,20,off,1,0.5,0.75,0.5,0.756,3,19,3,1,1,0,0,0,0,5,,,,,,0,54,54,54,,,,,,,,,,,,,,,,,,,,,,,,,,,,,,,,,,,,,,,,,,,,,,,,,,,,,,,,,583.9473897000007,584.4472439000001,584.4472439000001,585.1970040000006,585.1970040000006,585.7024510000001,585.7024510000001,586.4633153000004,586.4633153000004,None,num_6,0.8372220000001107,586.4633153000004,None,sad,1,Happy,587.3102499199999,None,None,587.3102499199999,None,,,,,,,,,,,,,,,,,,,,,,,,,,,,,,,,,,,,,,,,,,,,,,,,,,,,,27,001,1,36,500,475,2022_Oct_24_1059,Experiment,2021.1.4,359.8118903394767,
images\S7_F_S_01.png,images\S7_F_S_01_scrambled.png,7,sad,-10,female,3,,160,off,1,0.5,0.75,0.5,0.81,3,159,4,1,1,0,0,0,0,3,,,,,,0,55,55,55,,,,,,,,,,,,,,,,,,,,,,,,,,,,,,,,,,,,,,,,,,,,,,,,,,,,,,,,,587.3574549000004,587.862889,587.862889,588.6182077000003,588.6182077000003,589.1235984000004,589.1235984000004,589.9372256000006,589.9372256000006,None,num_4,0.723334999999679,589.9372256000006,None,happy,1,Sad,590.6703367200003,None,None,590.6703367200003,None,,,,,,,,,,,,,,,,,,,,,,,,,,,,,,,,,,,,,,,,,,,,,,,,,,,,,27,001,1,36,500,475,2022_Oct_24_1059,Experiment,2021.1.4,359.8118903394767,
images\S3_F_S_03.png,images\S3_F_S_03_scrambled.png,3,sad,-30,female,1,,318,on,2,0.5,0.75,0.5,0.911,3,317,1,1,1,2,2,32,128,161,,,,,,0,56,56,56,,,,,,,,,,,,,,,,,,,,,,,,,,,,,,,,,,,,,,,,,,,,,,,,,,,,,,,,,590.7175389000004,591.2229654000002,591.2229654000002,591.9755249,591.9755249,592.4780959,592.4780959,593.3917885000001,593.3917885000001,None,num_6,0.7406224999995175,593.3917885000001,None,sad,1,Sad,594.1442766400006,None,None,594.1442766400006,None,,,,,,,,,,,,,,,,,,,,,,,,,,,,,,,,,,,,,,,,,,,,,,,,,,,,,27,001,1,36,500,475,2022_Oct_24_1059,Experiment,2021.1.4,359.8118903394767,
images\S9_F_H_02.png,images\S9_F_H_02_scrambled.png,9,happy,20,female,5,,110,on,2,0.5,0.75,0.5,0.815,3,109,2,1,1,2,2,32,128,165,,,,,,0,57,57,57,,,,,,,,,,,,,,,,,,,,,,,,,,,,,,,,,,,,,,,,,,,,,,,,,,,,,,,,,594.2275695000008,594.7329973000005,594.7329973000005,595.4883166,595.4883166,595.9909094000004,595.9909094000004,596.8128977000006,596.8128977000006,None,num_4,0.6555776999994123,596.8128977000006,None,happy,1,Happy,597.4960544000005,None,None,597.4960544000005,None,,,,,,,,,,,,,,,,,,,,,,,,,,,,,,,,,,,,,,,,,,,,,,,,,,,,,27,001,1,36,500,475,2022_Oct_24_1059,Experiment,2021.1.4,359.8118903394767,
images\S9_F_H_02.png,images\S9_F_H_02_scrambled.png,9,happy,20,female,5,,470,on,2,0.5,0.75,0.5,0.942,3,469,3,2,2,2,2,32,128,165,,,,,,0,58,58,58,,,,,,,,,,,,,,,,,,,,,,,,,,,,,,,,,,,,,,,,,,,,,,,,,,,,,,,,,597.5515537000001,598.0514101000008,598.0514101000008,598.8039602000008,598.8039602000008,599.3066554000006,599.3066554000006,600.2535173000006,600.2535173000006,None,num_4,1.1351887000000715,600.2535173000006,None,happy,1,Happy,601.41156248,None,None,601.41156248,None,,,,,,,,,,,,,,,,,,,,,,,,,,,,,,,,,,,,,,,,,,,,,,,,,,,,,27,001,1,36,500,475,2022_Oct_24_1059,Experiment,2021.1.4,359.8118903394767,
images\S7_F_S_03.png,images\S7_F_S_03_scrambled.png,7,sad,-30,female,1,,582,on,2,0.5,0.75,0.5,0.888,3,581,4,1,1,2,2,32,128,161,,,,,,0,59,59,59,,,,,,,,,,,,,,,,,,,,,,,,,,,,,,,,,,,,,,,,,,,,,,,,,,,,,,,,,601.464234,601.9669513000008,601.9669513000008,602.7166311000001,602.7166311000001,603.2220811000007,603.2220811000007,604.1134513000006,604.1134513000006,None,num_6,0.8352544999997917,604.1134513000006,None,sad,1,Sad,604.9631697400001,None,None,604.9631697400001,None,,,,,,,,,,,,,,,,,,,,,,,,,,,,,,,,,,,,,,,,,,,,,,,,,,,,,27,001,1,36,500,475,2022_Oct_24_1059,Experiment,2021.1.4,359.8118903394767,
images\S4_M_H_02.png,images\S4_M_H_02_scrambled.png,4,happy,20,male,5,,200,on,2,0.5,0.75,0.5,0.765,3,199,5,1,1,2,2,32,128,165,,,,,,0,60,60,60,,,,,,,,,,,,,,,,,,,,,,,,,,,,,,,,,,,,,,,,,,,,,,,,,,,,,,,,,605.0103701000007,605.5129849000004,605.5129849000004,606.2656773000008,606.2656773000008,606.7654209000002,606.7654209000002,607.5373782000006,607.5373782000006,None,num_4,0.8669356000000334,607.5373782000006,None,happy,1,Happy,608.4149060400006,None,None,608.4149060400006,None,,,,,,,,,,,,,,,,,,,,,,,,,,,,,,,,,,,,,,,,,,,,,,,,,,,,,27,001,1,36,500,475,2022_Oct_24_1059,Experiment,2021.1.4,359.8118903394767,
images\S3_F_S_02.png,images\S3_F_S_02_scrambled.png,3,sad,-20,female,2,,497,off,1,0.5,0.75,0.5,0.803,3,496,1,1,1,0,0,0,0,2,,,,,,0,61,61,61,,,,,,,,,,,,,,,,,,,,,,,,,,,,,,,,,,,,,,,,,,,,,,,,,,,,,,,,,608.4648603000005,608.9675232,608.9675232,609.7228324000007,609.7228324000007,610.2226876000004,610.2226876000004,611.0307355000004,611.0307355000004,None,num_4,1.6055392999996911,611.0307355000004,None,happy,1,Sad,612.6413735199999,None,None,612.6413735199999,None,,,,,,,,,,,,,,,,,,,,,,,,,,,,,,,,,,,,,,,,,,,,,,,,,,,,,27,001,1,36,500,475,2022_Oct_24_1059,Experiment,2021.1.4,359.8118903394767,
images\S7_F_H_02.png,images\S7_F_H_02_scrambled.png,7,happy,20,female,5,,278,off,1,0.5,0.75,0.5,0.941,3,277,2,1,1,0,0,0,0,5,,,,,,0,62,62,62,,,,,,,,,,,,,,,,,,,,,,,,,,,,,,,,,,,,,,,,,,,,,,,,,,,,,,,,,612.7246753,613.2245189000005,613.2245189000005,613.9771085000002,613.9771085000002,614.4824942000005,614.4824942000005,615.4267140000002,615.4267140000002,None,num_4,0.8020847999996477,615.4267140000002,None,happy,1,Happy,616.2430522400001,None,None,616.2430522400001,None,,,,,,,,,,,,,,,,,,,,,,,,,,,,,,,,,,,,,,,,,,,,,,,,,,,,,27,001,1,36,500,475,2022_Oct_24_1059,Experiment,2021.1.4,359.8118903394767,
images\S8_M_H_01.png,images\S8_M_H_01_scrambled.png,8,happy,10,male,4,,343,on,2,0.5,0.75,0.5,0.844,3,342,1,1,1,2,2,32,128,164,,,,,,0,63,63,63,,,,,,,,,,,,,,,,,,,,,,,,,,,,,,,,,,,,,,,,,,,,,,,,,,,,,,,,,616.3263401000004,616.8318153,616.8318153,617.5871125000003,617.5871125000003,618.0896848000002,618.0896848000002,618.9367289000002,618.9367289000002,None,num_6,1.0356919999994716,618.9367289000002,None,sad,1,Happy,619.9780206199998,None,None,619.9780206199998,None,,,,,,,,,,,,,,,,,,,,,,,,,,,,,,,,,,,,,,,,,,,,,,,,,,,,,27,001,1,36,500,475,2022_Oct_24_1059,Experiment,2021.1.4,359.8118903394767,
images\S6_M_H_03.png,images\S6_M_H_03_scrambled.png,6,happy,30,male,6,,573,on,2,0.5,0.75,0.5,0.868,3,572,2,1,1,2,2,32,128,166,,,,,,0,64,64,64,,,,,,,,,,,,,,,,,,,,,,,,,,,,,,,,,,,,,,,,,,,,,,,,,,,,,,,,,620.0279719,620.5334034000007,620.5334034000007,621.2859464000003,621.2859464000003,621.7914492,621.7914492,622.6632681000001,622.6632681000001,None,num_4,0.605240099999719,622.6632681000001,None,happy,1,Happy,623.27975824,None,None,623.27975824,None,,,,,,,,,,,,,,,,,,,,,,,,,,,,,,,,,,,,,,,,,,,,,,,,,,,,,27,001,1,36,500,475,2022_Oct_24_1059,Experiment,2021.1.4,359.8118903394767,
images\blank.jpg,images\blank.jpg,none,none,none,none,0,,641,on,2,0.5,0.75,0.5,0.903,0,640,3,1,1,3,3,48,192,240,,,,,,0,65,65,65,,,,,,,,,,,,,,,,,,,,,,,,,,,,,,,,,,,,,,,,,,,,,,,,,,,,,,,,,623.3660853000001,623.8684785000005,623.8684785000005,624.6211413000001,624.6211413000001,625.1208587000001,625.1208587000001,626.0261294000002,626.0261294000002,626.0261294000002,None,,626.0261294000002,None,miss,1,,629.0308261200003,None,None,629.0308261200003,None,,,,,,,,,,,,,,,,,,,,,,,,,,,,,,,,,,,,,,,,,,,,,,,,,,,,,27,001,1,36,500,475,2022_Oct_24_1059,Experiment,2021.1.4,359.8118903394767,
images\S1_F_H_02.png,images\S1_F_H_02_scrambled.png,1,happy,20,female,5,,122,off,1,0.5,0.75,0.5,0.751,3,121,1,1,1,0,0,0,0,5,,,,,,0,66,66,66,,,,,,,,,,,,,,,,,,,,,,,,,,,,,,,,,,,,,,,,,,,,,,,,,,,,,,,,,629.1503491000003,629.6527871000008,629.6527871000008,630.4053837000001,630.4053837000001,630.9079903000002,630.9079903000002,631.6633170000005,631.6633170000005,None,num_4,0.42927549999967596,631.6633170000005,629.1503491000003,happy,1,Happy,632.1103923399997,None,None,632.1103923399997,None,,,,,,,,,,,,,,,,,,,,,,,,,,,,,,,,,,,,,,,,,,,,,,,,,,,,,27,001,1,36,500,475,2022_Oct_24_1059,Experiment,2021.1.4,359.8118903394767,
images\S2_M_H_03.png,images\S2_M_H_03_scrambled.png,2,happy,30,male,6,,309,on,2,0.5,0.75,0.5,0.933,3,308,1,1,1,2,2,32,128,166,,,,,,0,67,67,67,,,,,,,,,,,,,,,,,,,,,,,,,,,,,,,,,,,,,,,,,,,,,,,,,,,,,,,,,632.1909020000003,632.6935461000003,632.6935461000003,633.4488672000007,633.4488672000007,633.9516116000004,633.9516116000004,634.8873076,634.8873076,None,num_4,0.9255785000004835,634.8873076,None,happy,1,Happy,635.8343387600005,None,None,635.8343387600005,None,,,,,,,,,,,,,,,,,,,,,,,,,,,,,,,,,,,,,,,,,,,,,,,,,,,,,27,001,1,36,500,475,2022_Oct_24_1059,Experiment,2021.1.4,359.8118903394767,
images\S9_F_S_01.png,images\S9_F_S_01_scrambled.png,9,sad,-10,female,3,,592,on,2,0.5,0.75,0.5,0.804,3,591,2,1,1,2,2,32,128,163,,,,,,0,68,68,68,,,,,,,,,,,,,,,,,,,,,,,,,,,,,,,,,,,,,,,,,,,,,,,,,,,,,,,,,635.8869800000002,636.3924074000006,636.3924074000006,637.1477115000007,637.1477115000007,637.6503606000006,637.6503606000006,638.4584437000003,638.4584437000003,None,num_6,1.626143399999819,638.4584437000003,None,sad,1,Sad,640.0996033399998,None,None,640.0996033399998,None,,,,,,,,,,,,,,,,,,,,,,,,,,,,,,,,,,,,,,,,,,,,,,,,,,,,,27,001,1,36,500,475,2022_Oct_24_1059,Experiment,2021.1.4,359.8118903394767,
images\S8_M_S_03.png,images\S8_M_S_03_scrambled.png,8,sad,-30,male,1,,588,on,2,0.5,0.75,0.5,0.851,3,587,3,1,1,2,2,32,128,161,,,,,,0,69,69,69,,,,,,,,,,,,,,,,,,,,,,,,,,,,,,,,,,,,,,,,,,,,,,,,,,,,,,,,,640.1467995000003,640.6494137,640.6494137,641.4019600000001,641.4019600000001,641.9018186000003,641.9018186000003,642.7571086000007,642.7571086000007,None,num_6,1.151339399999415,642.7571086000007,None,sad,1,Sad,643.92342784,None,None,643.92342784,None,,,,,,,,,,,,,,,,,,,,,,,,,,,,,,,,,,,,,,,,,,,,,,,,,,,,,27,001,1,36,500,475,2022_Oct_24_1059,Experiment,2021.1.4,359.8118903394767,
images\S10_M_S_01.png,images\S10_M_S_01_scrambled.png,10,sad,-10,male,3,,598,on,2,0.5,0.75,0.5,0.933,3,597,4,1,1,2,2,32,128,163,,,,,,0,70,70,70,,,,,,,,,,,,,,,,,,,,,,,,,,,,,,,,,,,,,,,,,,,,,,,,,,,,,,,,,644.0094975000002,644.5121241000006,644.5121241000006,645.2647053000001,645.2647053000001,645.7644975000003,645.7644975000003,646.7003205000001,646.7003205000001,None,num_4,0.6401648999999452,646.7003205000001,None,happy,1,Sad,647.3473872200007,None,None,647.3473872200007,None,,,,,,,,,,,,,,,,,,,,,,,,,,,,,,,,,,,,,,,,,,,,,,,,,,,,,27,001,1,36,500,475,2022_Oct_24_1059,Experiment,2021.1.4,359.8118903394767,
images\S7_F_S_03.png,images\S7_F_S_03_scrambled.png,7,sad,-30,female,1,,222,on,2,0.5,0.75,0.5,0.813,3,221,5,1,1,2,2,32,128,161,,,,,,0,71,71,71,,,,,,,,,,,,,,,,,,,,,,,,,,,,,,,,,,,,,,,,,,,,,,,,,,,,,,,,,647.3945652000002,647.8971921000002,647.8971921000002,648.6497407000006,648.6497407000006,649.1496307000007,649.1496307000007,649.9661331000007,649.9661331000007,None,num_6,0.8944535999999061,649.9661331000007,None,sad,1,Sad,650.87406544,None,None,650.87406544,None,,,,,,,,,,,,,,,,,,,,,,,,,,,,,,,,,,,,,,,,,,,,,,,,,,,,,27,001,1,36,500,475,2022_Oct_24_1059,Experiment,2021.1.4,359.8118903394767,
images\S6_M_H_02.png,images\S6_M_H_02_scrambled.png,6,happy,20,male,5,,392,off,1,0.5,0.75,0.5,0.917,3,391,1,1,1,0,0,0,0,5,,,,,,0,72,72,72,,,,,,,,,,,,,,,,,,,,,,,,,,,,,,,,,,,,,,,,,,,,,,,,,,,,,,,,,650.9212647000004,651.4238997000002,651.4238997000002,652.1765564000007,652.1765564000007,652.6818884000004,652.6818884000004,653.6011109000001,653.6011109000001,None,num_4,0.795564199999717,653.6011109000001,None,happy,1,Happy,654.41186914,None,None,654.41186914,None,,,,,,,,,,,,,,,,,,,,,,,,,,,,,,,,,,,,,,,,,,,,,,,,,,,,,27,001,1,36,500,475,2022_Oct_24_1059,Experiment,2021.1.4,359.8118903394767,
images\blank.jpg,images\blank.jpg,none,none,none,none,0,,616,on,2,0.5,0.75,0.5,0.871,0,615,1,1,1,3,3,48,192,240,,,,,,0,73,73,73,,,,,,,,,,,,,,,,,,,,,,,,,,,,,,,,,,,,,,,,,,,,,,,,,,,,,,,,,654.4954336999999,654.9978152000003,654.9978152000003,655.7504631000002,655.7504631000002,656.2529542000002,656.2529542000002,657.1249157000002,657.1249157000002,657.1249157000002,None,,657.1249157000002,None,miss,1,,660.1267784600007,None,None,660.1267784600007,None,,,,,,,,,,,,,,,,,,,,,,,,,,,,,,,,,,,,,,,,,,,,,,,,,,,,,27,001,1,36,500,475,2022_Oct_24_1059,Experiment,2021.1.4,359.8118903394767,
images\S2_M_H_03.png,images\S2_M_H_03_scrambled.png,2,happy,30,male,6,,189,on,2,0.5,0.75,0.5,0.914,3,188,2,1,1,2,2,32,128,166,,,,,,0,74,74,74,,,,,,,,,,,,,,,,,,,,,,,,,,,,,,,,,,,,,,,,,,,,,,,,,,,,,,,,,660.2408822000007,660.7432523000007,660.7432523000007,661.4929961000007,661.4929961000007,661.9957574,661.9957574,662.9092387999999,662.9092387999999,None,num_4,0.5032352999996874,662.9092387999999,660.2408822000007,happy,1,Happy,663.4229870400005,None,None,663.4229870400005,None,,,,,,,,,,,,,,,,,,,,,,,,,,,,,,,,,,,,,,,,,,,,,,,,,,,,,27,001,1,36,500,475,2022_Oct_24_1059,Experiment,2021.1.4,359.8118903394767,
images\S8_M_S_01.png,images\S8_M_S_01_scrambled.png,8,sad,-10,male,3,,106,on,2,0.5,0.75,0.5,0.857,3,105,3,1,1,2,2,32,128,163,,,,,,0,75,75,75,,,,,,,,,,,,,,,,,,,,,,,,,,,,,,,,,,,,,,,,,,,,,,,,,,,,,,,,,663.4701720000003,663.9700152000005,663.9700152000005,664.7226121000003,664.7226121000003,665.2224125000002,665.2224125000002,666.0832998000005,666.0832998000005,None,num_6,0.4331371999996918,666.0832998000005,None,sad,1,Sad,666.5275999400002,None,None,666.5275999400002,None,,,,,,,,,,,,,,,,,,,,,,,,,,,,,,,,,,,,,,,,,,,,,,,,,,,,,27,001,1,36,500,475,2022_Oct_24_1059,Experiment,2021.1.4,359.8118903394767,
images\S5_F_H_01.png,images\S5_F_H_01_scrambled.png,5,happy,10,female,4,,505,off,1,0.5,0.75,0.5,0.815,3,504,1,1,1,0,0,0,0,4,,,,,,0,76,76,76,,,,,,,,,,,,,,,,,,,,,,,,,,,,,,,,,,,,,,,,,,,,,,,,,,,,,,,,,666.6386644000004,667.1414122000006,667.1414122000006,667.8966874000007,667.8966874000007,668.4020417000002,668.4020417000002,669.2240561000008,669.2240561000008,None,num_4,0.6279861000002711,669.2240561000008,None,happy,1,Happy,669.86269714,None,None,669.86269714,None,,,,,,,,,,,,,,,,,,,,,,,,,,,,,,,,,,,,,,,,,,,,,,,,,,,,,27,001,1,36,500,475,2022_Oct_24_1059,Experiment,2021.1.4,359.8118903394767,
images\S4_M_H_03.png,images\S4_M_H_03_scrambled.png,4,happy,30,male,6,,381,off,1,0.5,0.75,0.5,0.757,3,380,2,1,1,0,0,0,0,6,,,,,,0,77,77,77,,,,,,,,,,,,,,,,,,,,,,,,,,,,,,,,,,,,,,,,,,,,,,,,,,,,,,,,,669.9098661000007,670.4125293000006,670.4125293000006,671.1650919000003,671.1650919000003,671.6676983000007,671.6676983000007,672.4257493000005,672.4257493000005,None,num_4,0.5706019999997807,672.4257493000005,None,happy,1,Happy,673.0229035400004,None,None,673.0229035400004,None,,,,,,,,,,,,,,,,,,,,,,,,,,,,,,,,,,,,,,,,,,,,,,,,,,,,,27,001,1,36,500,475,2022_Oct_24_1059,Experiment,2021.1.4,359.8118903394767,
images\S6_M_H_02.png,images\S6_M_H_02_scrambled.png,6,happy,20,male,5,,512,off,1,0.5,0.75,0.5,0.938,3,511,3,1,1,0,0,0,0,5,,,,,,0,78,78,78,,,,,,,,,,,,,,,,,,,,,,,,,,,,,,,,,,,,,,,,,,,,,,,,,,,,,,,,,673.0783383000007,673.5810806,673.5810806,674.3307693000006,674.3307693000006,674.8333519000007,674.8333519000007,675.7747370000006,675.7747370000006,None,num_4,0.49382259999947564,675.7747370000006,None,happy,1,Happy,676.28293554,None,None,676.28293554,None,,,,,,,,,,,,,,,,,,,,,,,,,,,,,,,,,,,,,,,,,,,,,,,,,,,,,27,001,1,36,500,475,2022_Oct_24_1059,Experiment,2021.1.4,359.8118903394767,
images\S9_F_H_03.png,images\S9_F_H_03_scrambled.png,9,happy,30,female,6,,231,on,2,0.5,0.75,0.5,0.763,3,230,1,1,1,2,2,32,128,166,,,,,,0,79,79,79,,,,,,,,,,,,,,,,,,,,,,,,,,,,,,,,,,,,,,,,,,,,,,,,,,,,,,,,,676.3662214000005,676.8688587000006,676.8688587000006,677.6215248000008,677.6215248000008,678.1268633,678.1268633,678.8932448000005,678.8932448000005,None,num_4,0.7913655000002109,678.8932448000005,None,happy,1,Happy,679.69853824,None,None,679.69853824,None,,,,,,,,,,,,,,,,,,,,,,,,,,,,,,,,,,,,,,,,,,,,,,,,,,,,,27,001,1,36,500,475,2022_Oct_24_1059,Experiment,2021.1.4,359.8118903394767,
images\S2_M_H_02.png,images\S2_M_H_02_scrambled.png,2,happy,20,male,5,,8,off,1,0.5,0.75,0.5,0.782,3,7,1,1,1,0,0,0,0,5,,,,,,0,80,80,80,,,,,,,,,,,,,,,,,,,,,,,,,,,,,,,,,,,,,,,,,,,,,,,,,,,,,,,,,679.7457399000004,680.2455758000006,680.2455758000006,680.9981550000002,680.9981550000002,681.5008785,681.5008785,682.2867446,682.2867446,None,num_4,0.7097342999995817,682.2867446,None,happy,1,Happy,683.0114222399999,None,None,683.0114222399999,None,,,,,,,,,,,,,,,,,,,,,,,,,,,,,,,,,,,,,,,,,,,,,,,,,,,,,27,001,1,36,500,475,2022_Oct_24_1059,Experiment,2021.1.4,359.8118903394767,
images\S2_M_S_03.png,images\S2_M_S_03_scrambled.png,2,sad,-30,male,1,,312,on,2,0.5,0.75,0.5,0.95,3,311,1,2,1,2,2,32,128,161,,,,,,0,81,81,81,,,,,,,,,,,,,,,,,,,,,,,,,,,,,,,,,,,,,,,,,,,,,,,,,,,,,,,,,683.0586044000001,683.5612458000005,683.5612458000005,684.3110256,684.3110256,684.8165390000004,684.8165390000004,685.7717289000002,685.7717289000002,None,num_6,0.7848175999997693,685.7717289000002,None,sad,1,Sad,686.5714395400001,None,None,686.5714395400001,None,,,,,,,,,,,,,,,,,,,,,,,,,,,,,,,,,,,,,,,,,,,,,,,,,,,,,27,001,1,36,500,475,2022_Oct_24_1059,Experiment,2021.1.4,359.8118903394767,
images\S6_M_H_03.png,images\S6_M_H_03_scrambled.png,6,happy,30,male,6,,33,off,1,0.5,0.75,0.5,0.788,3,32,1,1,1,0,0,0,0,6,,,,,,0,82,82,82,,,,,,,,,,,,,,,,,,,,,,,,,,,,,,,,,,,,,,,,,,,,,,,,,,,,,,,,,686.6186229000004,687.1213647000004,687.1213647000004,687.8738162,687.8738162,688.3765510000003,688.3765510000003,689.1678687000003,689.1678687000003,None,num_4,1.00467800000024,689.1678687000003,None,happy,1,Happy,690.1869858400006,None,None,690.1869858400006,None,,,,,,,,,,,,,,,,,,,,,,,,,,,,,,,,,,,,,,,,,,,,,,,,,,,,,27,001,1,36,500,475,2022_Oct_24_1059,Experiment,2021.1.4,359.8118903394767,
images\S3_F_S_02.png,images\S3_F_S_02_scrambled.png,3,sad,-20,female,2,,257,off,1,0.5,0.75,0.5,0.793,3,256,2,1,1,0,0,0,0,2,,,,,,0,83,83,83,,,,,,,,,,,,,,,,,,,,,,,,,,,,,,,,,,,,,,,,,,,,,,,,,,,,,,,,,690.2341845999999,690.7369103000001,690.7369103000001,691.4893541000001,691.4893541000001,691.9920101000007,691.9920101000007,692.7918214000001,692.7918214000001,None,num_6,0.6287744000001112,692.7918214000001,None,sad,1,Sad,693.4359902400003,None,None,693.4359902400003,None,,,,,,,,,,,,,,,,,,,,,,,,,,,,,,,,,,,,,,,,,,,,,,,,,,,,,27,001,1,36,500,475,2022_Oct_24_1059,Experiment,2021.1.4,359.8118903394767,
images\S10_M_S_01.png,images\S10_M_S_01_scrambled.png,10,sad,-10,male,3,,178,off,1,0.5,0.75,0.5,0.853,3,177,3,1,1,0,0,0,0,3,,,,,,0,84,84,84,,,,,,,,,,,,,,,,,,,,,,,,,,,,,,,,,,,,,,,,,,,,,,,,,,,,,,,,,693.4831712000005,693.9830203000001,693.9830203000001,694.7356021000005,694.7356021000005,695.2354439999999,695.2354439999999,696.0908425000007,696.0908425000007,None,num_4,0.8497981999998956,696.0908425000007,None,happy,1,Sad,696.94884022,None,None,696.94884022,None,,,,,,,,,,,,,,,,,,,,,,,,,,,,,,,,,,,,,,,,,,,,,,,,,,,,,27,001,1,36,500,475,2022_Oct_24_1059,Experiment,2021.1.4,359.8118903394767,
images\S4_M_H_01.png,images\S4_M_H_01_scrambled.png,4,happy,10,male,4,,19,off,1,0.5,0.75,0.5,0.934,3,18,4,1,1,0,0,0,0,4,,,,,,0,85,85,85,,,,,,,,,,,,,,,,,,,,,,,,,,,,,,,,,,,,,,,,,,,,,,,,,,,,,,,,,697.0320942000008,697.5347184000002,697.5347184000002,698.2872636000002,698.2872636000002,698.7898800000003,698.7898800000003,699.7258462,699.7258462,None,num_6,0.6307049000006373,699.7258462,None,sad,1,Happy,700.3616626200005,None,None,700.3616626200005,None,,,,,,,,,,,,,,,,,,,,,,,,,,,,,,,,,,,,,,,,,,,,,,,,,,,,,27,001,1,36,500,475,2022_Oct_24_1059,Experiment,2021.1.4,359.8118903394767,
images\S9_F_S_02.png,images\S9_F_S_02_scrambled.png,9,sad,-20,female,2,,113,on,2,0.5,0.75,0.5,0.805,3,112,1,1,1,2,2,32,128,162,,,,,,0,86,86,86,,,,,,,,,,,,,,,,,,,,,,,,,,,,,,,,,,,,,,,,,,,,,,,,,,,,,,,,,700.4088328000007,700.9115682000001,700.9115682000001,701.6640203000006,701.6640203000006,702.1667078,702.1667078,702.9775122000001,702.9775122000001,None,num_4,0.7310091999997894,702.9775122000001,None,happy,1,Sad,703.71339932,None,None,703.71339932,None,,,,,,,,,,,,,,,,,,,,,,,,,,,,,,,,,,,,,,,,,,,,,,,,,,,,,27,001,1,36,500,475,2022_Oct_24_1059,Experiment,2021.1.4,359.8118903394767,
images\S10_M_H_02.png,images\S10_M_H_02_scrambled.png,10,happy,20,male,5,,416,off,1,0.5,0.75,0.5,0.827,3,415,1,1,1,0,0,0,0,5,,,,,,0,87,87,87,,,,,,,,,,,,,,,,,,,,,,,,,,,,,,,,,,,,,,,,,,,,,,,,,,,,,,,,,703.7994541000007,704.3021202,704.3021202,705.0546309000001,705.0546309000001,705.5600489000008,705.5600489000008,706.3931241,706.3931241,None,num_4,0.6832643999996435,706.3931241,None,happy,1,Happy,707.0873443399997,None,None,707.0873443399997,None,,,,,,,,,,,,,,,,,,,,,,,,,,,,,,,,,,,,,,,,,,,,,,,,,,,,,27,001,1,36,500,475,2022_Oct_24_1059,Experiment,2021.1.4,359.8118903394767,
images\S5_F_S_02.png,images\S5_F_S_02_scrambled.png,5,sad,-20,female,2,,389,off,1,0.5,0.75,0.5,0.843,3,388,2,1,1,0,0,0,0,2,,,,,,0,88,88,88,,,,,,,,,,,,,,,,,,,,,,,,,,,,,,,,,,,,,,,,,,,,,,,,,,,,,,,,,707.1345474,707.637205,707.637205,708.3869374000005,708.3869374000005,708.8923783,708.8923783,709.7421191000003,709.7421191000003,None,num_4,0.710363099999995,709.7421191000003,None,happy,1,Sad,710.4612951200002,None,None,710.4612951200002,None,,,,,,,,,,,,,,,,,,,,,,,,,,,,,,,,,,,,,,,,,,,,,,,,,,,,,27,001,1,36,500,475,2022_Oct_24_1059,Experiment,2021.1.4,359.8118903394767,
images\S10_M_H_02.png,images\S10_M_H_02_scrambled.png,10,happy,20,male,5,,596,on,2,0.5,0.75,0.5,0.94,3,595,1,1,1,2,2,32,128,165,,,,,,0,89,89,89,,,,,,,,,,,,,,,,,,,,,,,,,,,,,,,,,,,,,,,,,,,,,,,,,,,,,,,,,710.5085078000002,711.0139098,711.0139098,711.7665825000004,711.7665825000004,712.2718977000004,712.2718977000004,713.2161424000005,713.2161424000005,None,num_4,0.6124570000001768,713.2161424000005,None,happy,1,Happy,713.84362144,None,None,713.84362144,None,,,,,,,,,,,,,,,,,,,,,,,,,,,,,,,,,,,,,,,,,,,,,,,,,,,,,27,001,1,36,500,475,2022_Oct_24_1059,Experiment,2021.1.4,359.8118903394767,
images\blank.jpg,images\blank.jpg,none,none,none,none,0,,634,on,2,0.5,0.75,0.5,0.782,0,633,2,1,1,3,3,48,192,240,,,,,,0,90,90,90,,,,,,,,,,,,,,,,,,,,,,,,,,,,,,,,,,,,,,,,,,,,,,,,,,,,,,,,,713.9271577,714.4267610000006,714.4267610000006,715.1821278000007,715.1821278000007,715.6846959000004,715.6846959000004,716.4733555000003,716.4733555000003,716.4733555000003,None,,716.4733555000003,None,miss,1,,719.47246406,None,None,719.47246406,None,,,,,,,,,,,,,,,,,,,,,,,,,,,,,,,,,,,,,,,,,,,,,,,,,,,,,27,001,1,36,500,475,2022_Oct_24_1059,Experiment,2021.1.4,359.8118903394767,
images\S7_F_S_03.png,images\S7_F_S_03_scrambled.png,7,sad,-30,female,1,,462,on,2,0.5,0.75,0.5,0.853,3,461,3,1,1,2,2,32,128,161,,,,,,0,91,91,91,,,,,,,,,,,,,,,,,,,,,,,,,,,,,,,,,,,,,,,,,,,,,,,,,,,,,,,,,719.5921438000005,720.0972494000007,720.0972494000007,720.8525723000002,720.8525723000002,721.3551647000004,721.3551647000004,722.2076796000001,722.2076796000001,None,num_6,0.6049886000000697,722.2076796000001,719.5921438000005,sad,1,Sad,722.8353435800003,None,None,722.8353435800003,None,,,,,,,,,,,,,,,,,,,,,,,,,,,,,,,,,,,,,,,,,,,,,,,,,,,,,27,001,1,36,500,475,2022_Oct_24_1059,Experiment,2021.1.4,359.8118903394767,
images\S6_M_S_02.png,images\S6_M_S_02_scrambled.png,6,sad,-20,male,2,,95,on,2,0.5,0.75,0.5,0.765,3,94,4,1,1,2,2,32,128,162,,,,,,0,92,92,92,,,,,,,,,,,,,,,,,,,,,,,,,,,,,,,,,,,,,,,,,,,,,,,,,,,,,,,,,722.8880202,723.3906734000002,723.3906734000002,724.1404664000002,724.1404664000002,724.6403089000005,724.6403089000005,725.4122957,725.4122957,None,num_6,0.7762845000006564,725.4122957,None,sad,1,Sad,726.2176262000003,None,None,726.2176262000003,None,,,,,,,,,,,,,,,,,,,,,,,,,,,,,,,,,,,,,,,,,,,,,,,,,,,,,27,001,1,36,500,475,2022_Oct_24_1059,Experiment,2021.1.4,359.8118903394767,
images\S6_M_S_02.png,images\S6_M_S_02_scrambled.png,6,sad,-20,male,2,,275,off,1,0.5,0.75,0.5,0.814,3,274,1,2,2,0,0,0,0,2,,,,,,0,93,93,93,,,,,,,,,,,,,,,,,,,,,,,,,,,,,,,,,,,,,,,,,,,,,,,,,,,,,,,,,726.2703282000002,726.7729763000007,726.7729763000007,727.5254654,727.5254654,728.0253819,728.0253819,728.8418440000005,728.8418440000005,None,num_6,0.7626706999999442,728.8418440000005,None,sad,1,Sad,729.6193306400002,None,None,729.6193306400002,None,,,,,,,,,,,,,,,,,,,,,,,,,,,,,,,,,,,,,,,,,,,,,,,,,,,,,27,001,1,36,500,475,2022_Oct_24_1059,Experiment,2021.1.4,359.8118903394767,
images\S4_M_S_01.png,images\S4_M_S_01_scrambled.png,4,sad,-10,male,3,,82,on,2,0.5,0.75,0.5,0.856,3,81,1,1,1,2,2,32,128,163,,,,,,0,94,94,94,,,,,,,,,,,,,,,,,,,,,,,,,,,,,,,,,,,,,,,,,,,,,,,,,,,,,,,,,729.7026111000005,730.2052259000002,730.2052259000002,730.9578020000008,730.9578020000008,731.4576604000003,731.4576604000003,732.3158237000007,732.3158237000007,None,num_6,0.600643100000525,732.3158237000007,None,sad,1,Sad,732.9377195599998,None,None,732.9377195599998,None,,,,,,,,,,,,,,,,,,,,,,,,,,,,,,,,,,,,,,,,,,,,,,,,,,,,,27,001,1,36,500,475,2022_Oct_24_1059,Experiment,2021.1.4,359.8118903394767,
images\S2_M_S_03.png,images\S2_M_S_03_scrambled.png,2,sad,-30,male,1,,552,on,2,0.5,0.75,0.5,0.782,3,551,2,1,1,2,2,32,128,161,,,,,,0,95,95,95,,,,,,,,,,,,,,,,,,,,,,,,,,,,,,,,,,,,,,,,,,,,,,,,,,,,,,,,,733.0126966000007,733.5181278,733.5181278,734.2706696000005,734.2706696000005,734.7732954000003,734.7732954000003,735.5563636000006,735.5563636000006,None,num_6,1.3201367000001483,735.5563636000006,None,sad,1,Sad,736.8920829400005,None,None,736.8920829400005,None,,,,,,,,,,,,,,,,,,,,,,,,,,,,,,,,,,,,,,,,,,,,,,,,,,,,,27,001,1,36,500,475,2022_Oct_24_1059,Experiment,2021.1.4,359.8118903394767,
images\S7_F_H_02.png,images\S7_F_H_02_scrambled.png,7,happy,20,female,5,,98,on,2,0.5,0.75,0.5,0.868,3,97,3,1,1,2,2,32,128,165,,,,,,0,96,96,96,,,,,,,,,,,,,,,,,,,,,,,,,,,,,,,,,,,,,,,,,,,,,,,,,,,,,,,,,736.9392863000003,737.4419003000003,737.4419003000003,738.1972445000001,738.1972445000001,738.6970687000003,738.6970687000003,739.5690347,739.5690347,None,num_4,0.5796228999997766,739.5690347,None,happy,1,Happy,740.1632889399999,None,None,740.1632889399999,None,,,,,,,,,,,,,,,,,,,,,,,,,,,,,,,,,,,,,,,,,,,,,,,,,,,,,27,001,1,36,500,475,2022_Oct_24_1059,Experiment,2021.1.4,359.8118903394767,
images\S4_M_S_02.png,images\S4_M_S_02_scrambled.png,4,sad,-20,male,2,,503,off,1,0.5,0.75,0.5,0.914,3,502,1,1,1,0,0,0,0,2,,,,,,0,97,97,97,,,,,,,,,,,,,,,,,,,,,,,,,,,,,,,,,,,,,,,,,,,,,,,,,,,,,,,,,740.2104909,740.7103369000006,740.7103369000006,741.4601105000002,741.4601105000002,741.9627522999999,741.9627522999999,742.8819100999999,742.8819100999999,None,num_6,0.5392136000000392,742.8819100999999,None,sad,1,Sad,743.4402035200001,None,None,743.4402035200001,None,,,,,,,,,,,,,,,,,,,,,,,,,,,,,,,,,,,,,,,,,,,,,,,,,,,,,27,001,1,36,500,475,2022_Oct_24_1059,Experiment,2021.1.4,359.8118903394767,
images\S3_F_H_02.png,images\S3_F_H_02_scrambled.png,3,happy,20,female,5,,374,off,1,0.5,0.75,0.5,0.877,3,373,2,1,1,0,0,0,0,5,,,,,,0,98,98,98,,,,,,,,,,,,,,,,,,,,,,,,,,,,,,,,,,,,,,,,,,,,,,,,,,,,,,,,,743.5233545000001,744.0261137000007,744.0261137000007,744.7757773000003,744.7757773000003,745.2756034000004,745.2756034000004,746.1586798000008,746.1586798000008,None,num_4,0.7179710999998861,746.1586798000008,None,happy,1,Happy,746.8890063400005,None,None,746.8890063400005,None,,,,,,,,,,,,,,,,,,,,,,,,,,,,,,,,,,,,,,,,,,,,,,,,,,,,,27,001,1,36,500,475,2022_Oct_24_1059,Experiment,2021.1.4,359.8118903394767,
images\S6_M_S_01.png,images\S6_M_S_01_scrambled.png,6,sad,-10,male,3,,454,on,2,0.5,0.75,0.5,0.874,3,453,1,1,1,2,2,32,128,163,,,,,,0,99,99,99,,,,,,,,,,,,,,,,,,,,,,,,,,,,,,,,,,,,,,,,,,,,,,,,,,,,,,,,,746.9723057000001,747.4749257000003,747.4749257000003,748.2247291000003,748.2247291000003,748.7273751000002,748.7273751000002,749.6076432,749.6076432,None,num_6,0.4367314000000988,749.6076432,None,sad,1,Sad,750.0602576399998,None,None,750.0602576399998,None,,,,,,,,,,,,,,,,,,,,,,,,,,,,,,,,,,,,,,,,,,,,,,,,,,,,,27,001,1,36,500,475,2022_Oct_24_1059,Experiment,2021.1.4,359.8118903394767,
images\S6_M_H_02.png,images\S6_M_H_02_scrambled.png,6,happy,20,male,5,,32,off,1,0.5,0.75,0.5,0.941,3,31,1,2,1,0,0,0,0,5,,,,,,0,100,100,100,,,,,,,,,,,,,,,,,,,,,,,,,,,,,,,,,,,,,,,,,,,,,,,,,,,,,,,,,750.1074525000004,750.6100703000002,750.6100703000002,751.3598305000005,751.3598305000005,751.8624999000003,751.8624999000003,752.8067019,752.8067019,None,num_4,0.3898997000005693,752.8067019,None,happy,1,Happy,753.2204252199999,None,None,753.2204252199999,None,,,,,,,,,,,,,,,,,,,,,,,,,,,,,,,,,,,,,,,,,,,,,,,,,,,,,27,001,1,36,500,475,2022_Oct_24_1059,Experiment,2021.1.4,359.8118903394767,
images\S6_M_S_01.png,images\S6_M_S_01_scrambled.png,6,sad,-10,male,3,,154,off,1,0.5,0.75,0.5,0.85,3,153,2,3,1,0,0,0,0,3,,,,,,0,101,101,101,,,,,,,,,,,,,,,,,,,,,,,,,,,,,,,,,,,,,,,,,,,,,,,,,,,,,,,,,753.2870200000007,753.7896519000005,753.7896519000005,754.5422332000007,754.5422332000007,755.0476353000004,755.0476353000004,755.9001045000005,755.9001045000005,None,num_4,0.8964586000001873,755.9001045000005,None,happy,1,Sad,756.8081612800005,None,None,756.8081612800005,None,,,,,,,,,,,,,,,,,,,,,,,,,,,,,,,,,,,,,,,,,,,,,,,,,,,,,27,001,1,36,500,475,2022_Oct_24_1059,Experiment,2021.1.4,359.8118903394767,
images\S10_M_S_03.png,images\S10_M_S_03_scrambled.png,10,sad,-30,male,1,,180,off,1,0.5,0.75,0.5,0.904,3,179,3,1,1,0,0,0,0,1,,,,,,0,102,102,102,,,,,,,,,,,,,,,,,,,,,,,,,,,,,,,,,,,,,,,,,,,,,,,,,,,,,,,,,756.8720656000005,757.3774707000002,757.3774707000002,758.1327522000001,758.1327522000001,758.6354033000007,758.6354033000007,759.5434615000004,759.5434615000004,None,num_4,1.357108000000153,759.5434615000004,None,happy,1,Sad,760.9096825199999,None,None,760.9096825199999,None,,,,,,,,,,,,,,,,,,,,,,,,,,,,,,,,,,,,,,,,,,,,,,,,,,,,,27,001,1,36,500,475,2022_Oct_24_1059,Experiment,2021.1.4,359.8118903394767,
images\S9_F_S_02.png,images\S9_F_S_02_scrambled.png,9,sad,-20,female,2,,53,off,1,0.5,0.75,0.5,0.871,3,52,4,1,1,0,0,0,0,2,,,,,,0,103,103,103,,,,,,,,,,,,,,,,,,,,,,,,,,,,,,,,,,,,,,,,,,,,,,,,,,,,,,,,,760.9568930000005,761.4622949000004,761.4622949000004,762.2148761000008,762.2148761000008,762.7147242000001,762.7147242000001,763.5922359000006,763.5922359000006,None,num_4,0.7881354000001011,763.5922359000006,None,happy,1,Sad,764.3891647200003,None,None,764.3891647200003,None,,,,,,,,,,,,,,,,,,,,,,,,,,,,,,,,,,,,,,,,,,,,,,,,,,,,,27,001,1,36,500,475,2022_Oct_24_1059,Experiment,2021.1.4,359.8118903394767,
images\S2_M_H_01.png,images\S2_M_H_01_scrambled.png,2,happy,10,male,4,,307,on,2,0.5,0.75,0.5,0.856,3,306,1,1,1,2,2,32,128,164,,,,,,0,104,104,104,,,,,,,,,,,,,,,,,,,,,,,,,,,,,,,,,,,,,,,,,,,,,,,,,,,,,,,,,764.4974698000005,765.0000820000005,765.0000820000005,765.7498519999999,765.7498519999999,766.2525143000003,766.2525143000003,767.1077652000004,767.1077652000004,None,num_4,1.048839200000657,767.1077652000004,None,happy,1,Happy,768.17136064,None,None,768.17136064,None,,,,,,,,,,,,,,,,,,,,,,,,,,,,,,,,,,,,,,,,,,,,,,,,,,,,,27,001,1,36,500,475,2022_Oct_24_1059,Experiment,2021.1.4,359.8118903394767,
images\S9_F_S_03.png,images\S9_F_S_03_scrambled.png,9,sad,-30,female,1,,54,off,1,0.5,0.75,0.5,0.949,3,53,1,1,1,0,0,0,0,1,,,,,,0,105,105,105,,,,,,,,,,,,,,,,,,,,,,,,,,,,,,,,,,,,,,,,,,,,,,,,,,,,,,,,,768.2268176000007,768.7295120000008,768.7295120000008,769.4820883000002,769.4820883000002,769.9874900000004,769.9874900000004,770.9399378000007,770.9399378000007,None,num_6,0.5525180000004184,770.9399378000007,None,sad,1,Sad,771.5177024399997,None,None,771.5177024399997,None,,,,,,,,,,,,,,,,,,,,,,,,,,,,,,,,,,,,,,,,,,,,,,,,,,,,,27,001,1,36,500,475,2022_Oct_24_1059,Experiment,2021.1.4,359.8118903394767,
images\S1_F_S_02.png,images\S1_F_S_02_scrambled.png,1,sad,-20,female,2,,65,on,2,0.5,0.75,0.5,0.922,3,64,1,1,1,2,2,32,128,162,,,,,,0,106,106,106,,,,,,,,,,,,,,,,,,,,,,,,,,,,,,,,,,,,,,,,,,,,,,,,,,,,,,,,,771.5730779000005,772.0757002,772.0757002,772.8311596000003,772.8311596000003,773.3308847000008,773.3308847000008,774.2556031000004,774.2556031000004,None,num_4,0.6530830000001515,774.2556031000004,None,happy,1,Sad,774.9165906800007,None,None,774.9165906800007,None,,,,,,,,,,,,,,,,,,,,,,,,,,,,,,,,,,,,,,,,,,,,,,,,,,,,,27,001,1,36,500,475,2022_Oct_24_1059,Experiment,2021.1.4,359.8118903394767,
images\S1_F_H_01.png,images\S1_F_H_01_scrambled.png,1,happy,10,female,4,,541,on,2,0.5,0.75,0.5,0.919,3,540,2,2,1,2,2,32,128,164,,,,,,0,107,107,107,,,,,,,,,,,,,,,,,,,,,,,,,,,,,,,,,,,,,,,,,,,,,,,,,,,,,,,,,774.9859045000003,775.4885524000001,775.4885524000001,776.2410824000008,776.2410824000008,776.7437247000007,776.7437247000007,777.6684444000002,777.6684444000002,None,num_4,0.9602023999996163,777.6684444000002,None,happy,1,Happy,778.6460118600005,None,None,778.6460118600005,None,,,,,,,,,,,,,,,,,,,,,,,,,,,,,,,,,,,,,,,,,,,,,,,,,,,,,27,001,1,36,500,475,2022_Oct_24_1059,Experiment,2021.1.4,359.8118903394767,
images\S5_F_H_02.png,images\S5_F_H_02_scrambled.png,5,happy,20,female,5,,386,off,1,0.5,0.75,0.5,0.895,3,385,1,1,1,0,0,0,0,5,,,,,,0,108,108,108,,,,,,,,,,,,,,,,,,,,,,,,,,,,,,,,,,,,,,,,,,,,,,,,,,,,,,,,,778.7125446,779.2179781000004,779.2179781000004,779.9705160000003,779.9705160000003,780.4731398000004,780.4731398000004,781.3728754000003,781.3728754000003,None,num_4,0.6874229000004561,781.3728754000003,None,happy,1,Happy,782.0754191400002,None,None,782.0754191400002,None,,,,,,,,,,,,,,,,,,,,,,,,,,,,,,,,,,,,,,,,,,,,,,,,,,,,,27,001,1,36,500,475,2022_Oct_24_1059,Experiment,2021.1.4,359.8118903394767,
images\blank.jpg,images\blank.jpg,none,none,none,none,0,,622,on,2,0.5,0.75,0.5,0.763,0,621,1,1,1,3,3,48,192,240,,,,,,0,109,109,109,,,,,,,,,,,,,,,,,,,,,,,,,,,,,,,,,,,,,,,,,,,,,,,,,,,,,,,,,782.1619921000001,782.6613502,782.6613502,783.4111266,783.4111266,783.9166230999999,783.9166230999999,784.6856418000007,784.6856418000007,784.6856418000007,None,,784.6856418000007,None,miss,1,,787.6876285200001,None,None,787.6876285200001,None,,,,,,,,,,,,,,,,,,,,,,,,,,,,,,,,,,,,,,,,,,,,,,,,,,,,,27,001,1,36,500,475,2022_Oct_24_1059,Experiment,2021.1.4,359.8118903394767,
images\S9_F_H_01.png,images\S9_F_H_01_scrambled.png,9,happy,10,female,4,,169,off,1,0.5,0.75,0.5,0.856,3,168,1,1,1,0,0,0,0,4,,,,,,0,110,110,110,,,,,,,,,,,,,,,,,,,,,,,,,,,,,,,,,,,,,,,,,,,,,,,,,,,,,,,,,787.8071562000005,788.3068305000006,788.3068305000006,789.0593774000008,789.0593774000008,789.5620295000008,789.5620295000008,790.4200963000003,790.4200963000003,None,num_4,0.5682005999997273,790.4200963000003,787.8071562000005,happy,1,Happy,791.0171551000003,None,None,791.0171551000003,None,,,,,,,,,,,,,,,,,,,,,,,,,,,,,,,,,,,,,,,,,,,,,,,,,,,,,27,001,1,36,500,475,2022_Oct_24_1059,Experiment,2021.1.4,359.8118903394767,
images\S10_M_H_02.png,images\S10_M_H_02_scrambled.png,10,happy,20,male,5,,536,off,1,0.5,0.75,0.5,0.893,3,535,2,1,1,0,0,0,0,5,,,,,,0,111,111,111,,,,,,,,,,,,,,,,,,,,,,,,,,,,,,,,,,,,,,,,,,,,,,,,,,,,,,,,,791.0698747000006,791.5697065000004,791.5697065000004,792.3222760000008,792.3222760000008,792.8276764000002,792.8276764000002,793.7246039000001,793.7246039000001,None,num_4,0.45605629999954544,793.7246039000001,None,happy,1,Happy,794.1939076400005,None,None,794.1939076400005,None,,,,,,,,,,,,,,,,,,,,,,,,,,,,,,,,,,,,,,,,,,,,,,,,,,,,,27,001,1,36,500,475,2022_Oct_24_1059,Experiment,2021.1.4,359.8118903394767,
images\S6_M_H_03.png,images\S6_M_H_03_scrambled.png,6,happy,30,male,6,,273,off,1,0.5,0.75,0.5,0.913,3,272,3,1,1,0,0,0,0,6,,,,,,0,112,112,112,,,,,,,,,,,,,,,,,,,,,,,,,,,,,,,,,,,,,,,,,,,,,,,,,,,,,,,,,794.2411025000001,794.7437458000004,794.7437458000004,795.4962963000007,795.4962963000007,796.0017514000001,796.0017514000001,796.9180852,796.9180852,None,num_4,0.4544480000004114,796.9180852,None,happy,1,Happy,797.3873868399997,None,None,797.3873868399997,None,,,,,,,,,,,,,,,,,,,,,,,,,,,,,,,,,,,,,,,,,,,,,,,,,,,,,27,001,1,36,500,475,2022_Oct_24_1059,Experiment,2021.1.4,359.8118903394767,
images\S9_F_H_02.png,images\S9_F_H_02_scrambled.png,9,happy,20,female,5,,290,off,1,0.5,0.75,0.5,0.83,3,289,4,1,1,0,0,0,0,5,,,,,,0,113,113,113,,,,,,,,,,,,,,,,,,,,,,,,,,,,,,,,,,,,,,,,,,,,,,,,,,,,,,,,,797.4345745,797.9372343000005,797.9372343000005,798.6925611000006,798.6925611000006,799.1951669,799.1951669,800.0282496,800.0282496,None,num_4,0.4883875999994416,800.0282496,None,happy,1,Happy,800.5308483400005,None,None,800.5308483400005,None,,,,,,,,,,,,,,,,,,,,,,,,,,,,,,,,,,,,,,,,,,,,,,,,,,,,,27,001,1,36,500,475,2022_Oct_24_1059,Experiment,2021.1.4,359.8118903394767,
images\S5_F_S_02.png,images\S5_F_S_02_scrambled.png,5,sad,-20,female,2,,449,on,2,0.5,0.75,0.5,0.785,3,448,1,1,1,2,2,32,128,162,,,,,,0,114,114,114,,,,,,,,,,,,,,,,,,,,,,,,,,,,,,,,,,,,,,,,,,,,,,,,,,,,,,,,,800.5780435000006,801.0834665000002,801.0834665000002,801.8361201000007,801.8361201000007,802.3358361,802.3358361,803.1272906000004,803.1272906000004,None,num_4,0.5172067999992578,803.1272906000004,None,happy,1,Sad,803.6493473200003,None,None,803.6493473200003,None,,,,,,,,,,,,,,,,,,,,,,,,,,,,,,,,,,,,,,,,,,,,,,,,,,,,,27,001,1,36,500,475,2022_Oct_24_1059,Experiment,2021.1.4,359.8118903394767,
images\S5_F_S_01.png,images\S5_F_S_01_scrambled.png,5,sad,-10,female,3,,268,off,1,0.5,0.75,0.5,0.792,3,267,1,2,1,0,0,0,0,3,,,,,,0,115,115,115,,,,,,,,,,,,,,,,,,,,,,,,,,,,,,,,,,,,,,,,,,,,,,,,,,,,,,,,,803.7270871999999,804.2297087000006,804.2297087000006,804.9794814000006,804.9794814000006,805.4821017000004,805.4821017000004,806.2791647000004,806.2791647000004,None,num_4,0.5172205999997459,806.2791647000004,None,happy,1,Sad,806.8039284199999,None,None,806.8039284199999,None,,,,,,,,,,,,,,,,,,,,,,,,,,,,,,,,,,,,,,,,,,,,,,,,,,,,,27,001,1,36,500,475,2022_Oct_24_1059,Experiment,2021.1.4,359.8118903394767,
images\S1_F_H_01.png,images\S1_F_H_01_scrambled.png,1,happy,10,female,4,,481,off,1,0.5,0.75,0.5,0.855,3,480,2,1,1,0,0,0,0,4,,,,,,0,116,116,116,,,,,,,,,,,,,,,,,,,,,,,,,,,,,,,,,,,,,,,,,,,,,,,,,,,,,,,,,806.8483462000004,807.3537612,807.3537612,808.1063088999999,808.1063088999999,808.6117670000003,808.6117670000003,809.4669767000005,809.4669767000005,None,num_4,0.19381710000016028,809.4669767000005,None,happy,1,Happy,809.68650388,None,None,809.68650388,None,,,,,,,,,,,,,,,,,,,,,,,,,,,,,,,,,,,,,,,,,,,,,,,,,,,,,27,001,1,36,500,475,2022_Oct_24_1059,Experiment,2021.1.4,359.8118903394767,
images\S3_F_H_02.png,images\S3_F_H_02_scrambled.png,3,happy,20,female,5,,314,on,2,0.5,0.75,0.5,0.864,3,313,1,1,1,2,2,32,128,165,,,,,,0,117,117,117,,,,,,,,,,,,,,,,,,,,,,,,,,,,,,,,,,,,,,,,,,,,,,,,,,,,,,,,,809.7391268000001,810.2418360000001,810.2418360000001,810.9971037000005,810.9971037000005,811.5025046000001,811.5025046000001,812.3688863000007,812.3688863000007,None,num_4,0.5879725000004328,812.3688863000007,None,happy,1,Happy,812.9714810400002,None,None,812.9714810400002,None,,,,,,,,,,,,,,,,,,,,,,,,,,,,,,,,,,,,,,,,,,,,,,,,,,,,,27,001,1,36,500,475,2022_Oct_24_1059,Experiment,2021.1.4,359.8118903394767,
images\S8_M_S_01.png,images\S8_M_S_01_scrambled.png,8,sad,-10,male,3,,466,on,2,0.5,0.75,0.5,0.758,3,465,2,1,1,2,2,32,128,163,,,,,,0,118,118,118,,,,,,,,,,,,,,,,,,,,,,,,,,,,,,,,,,,,,,,,,,,,,,,,,,,,,,,,,813.0186691000008,813.5214447000008,813.5214447000008,814.2766963000004,814.2766963000004,814.7820743000002,814.7820743000002,815.5429191000003,815.5429191000003,None,num_6,0.541541500000676,815.5429191000003,None,sad,1,Sad,816.0982938400003,None,None,816.0982938400003,None,,,,,,,,,,,,,,,,,,,,,,,,,,,,,,,,,,,,,,,,,,,,,,,,,,,,,27,001,1,36,500,475,2022_Oct_24_1059,Experiment,2021.1.4,359.8118903394767,
images\S10_M_S_02.png,images\S10_M_S_02_scrambled.png,10,sad,-20,male,2,,59,off,1,0.5,0.75,0.5,0.81,3,58,1,1,1,0,0,0,0,2,,,,,,0,119,119,119,,,,,,,,,,,,,,,,,,,,,,,,,,,,,,,,,,,,,,,,,,,,,,,,,,,,,,,,,816.1815896000007,816.6870236000004,816.6870236000004,817.4423549000003,817.4423549000003,817.9449409000008,817.9449409000008,818.7642157,818.7642157,None,num_6,0.5039944000000105,818.7642157,None,sad,1,Sad,819.2834200400004,None,None,819.2834200400004,None,,,,,,,,,,,,,,,,,,,,,,,,,,,,,,,,,,,,,,,,,,,,,,,,,,,,,27,001,1,36,500,475,2022_Oct_24_1059,Experiment,2021.1.4,359.8118903394767,
images\S7_F_S_02.png,images\S7_F_S_02_scrambled.png,7,sad,-20,female,2,,521,off,1,0.5,0.75,0.5,0.814,3,520,2,1,2,0,0,0,0,2,,,,,,0,120,120,120,,,,,,,,,,,,,,,,,,,,,,,,,,,,,,,,,,,,,,,,,,,,,,,,,,,,,,,,,819.3972665000001,819.9026828000005,819.9026828000005,820.6580153000004,820.6580153000004,821.1578580000005,821.1578580000005,821.9770819000005,821.9770819000005,None,num_4,0.5074460000005274,821.9770819000005,None,happy,1,Sad,822.4936049800007,None,None,822.4936049800007,None,,,,,,,,,,,,,,,,,,,,,,,,,,,,,,,,,,,,,,,,,,,,,,,,,,,,,27,001,1,36,500,475,2022_Oct_24_1059,Experiment,2021.1.4,359.8118903394767,
images\S2_M_S_03.png,images\S2_M_S_03_scrambled.png,2,sad,-30,male,1,,132,off,1,0.5,0.75,0.5,0.817,3,131,3,1,1,0,0,0,0,1,,,,,,0,121,121,121,,,,,,,,,,,,,,,,,,,,,,,,,,,,,,,,,,,,,,,,,,,,,,,,,,,,,,,,,822.5546288000005,823.0572886,823.0572886,823.8126209000002,823.8126209000002,824.3151980000002,824.3151980000002,825.1343973000003,825.1343973000003,None,num_6,0.6379044000004797,825.1343973000003,None,sad,1,Sad,825.7869786399998,None,None,825.7869786399998,None,,,,,,,,,,,,,,,,,,,,,,,,,,,,,,,,,,,,,,,,,,,,,,,,,,,,,27,001,1,36,500,475,2022_Oct_24_1059,Experiment,2021.1.4,359.8118903394767,
images\S5_F_S_03.png,images\S5_F_S_03_scrambled.png,5,sad,-30,female,1,,210,on,2,0.5,0.75,0.5,0.784,3,209,1,1,2,2,2,32,128,161,,,,,,0,122,122,122,,,,,,,,,,,,,,,,,,,,,,,,,,,,,,,,,,,,,,,,,,,,,,,,,,,,,,,,,825.8675000000003,826.3729382000001,826.3729382000001,827.1282504000001,827.1282504000001,827.6309917000008,827.6309917000008,828.4167933000008,828.4167933000008,None,num_4,1.2597068000004583,828.4167933000008,None,happy,1,Sad,829.68301062,None,None,829.68301062,None,,,,,,,,,,,,,,,,,,,,,,,,,,,,,,,,,,,,,,,,,,,,,,,,,,,,,27,001,1,36,500,475,2022_Oct_24_1059,Experiment,2021.1.4,359.8118903394767,
images\S10_M_S_02.png,images\S10_M_S_02_scrambled.png,10,sad,-20,male,2,,299,off,1,0.5,0.75,0.5,0.942,3,298,1,1,1,0,0,0,0,2,,,,,,0,123,123,123,,,,,,,,,,,,,,,,,,,,,,,,,,,,,,,,,,,,,,,,,,,,,,,,,,,,,,,,,829.7302064000005,830.2328525000003,830.2328525000003,830.9855110000008,830.9855110000008,831.4880013000002,831.4880013000002,832.4322032,832.4322032,None,num_4,0.4363655999995899,832.4322032,None,happy,1,Sad,832.8792396799998,None,None,832.8792396799998,None,,,,,,,,,,,,,,,,,,,,,,,,,,,,,,,,,,,,,,,,,,,,,,,,,,,,,27,001,1,36,500,475,2022_Oct_24_1059,Experiment,2021.1.4,359.8118903394767,
images\S4_M_H_02.png,images\S4_M_H_02_scrambled.png,4,happy,20,male,5,,440,on,2,0.5,0.75,0.5,0.851,3,439,1,1,1,2,2,32,128,165,,,,,,0,124,124,124,,,,,,,,,,,,,,,,,,,,,,,,,,,,,,,,,,,,,,,,,,,,,,,,,,,,,,,,,832.9458873000003,833.4457110000003,833.4457110000003,834.1955359000003,834.1955359000003,834.6980881,834.6980881,835.5534323000002,835.5534323000002,None,num_4,0.3791010000004462,835.5534323000002,None,happy,1,Happy,835.9477485400004,None,None,835.9477485400004,None,,,,,,,,,,,,,,,,,,,,,,,,,,,,,,,,,,,,,,,,,,,,,,,,,,,,,27,001,1,36,500,475,2022_Oct_24_1059,Experiment,2021.1.4,359.8118903394767,
images\S1_F_H_02.png,images\S1_F_H_02_scrambled.png,1,happy,20,female,5,,362,off,1,0.5,0.75,0.5,0.888,3,361,1,1,2,0,0,0,0,5,,,,,,0,125,125,125,,,,,,,,,,,,,,,,,,,,,,,,,,,,,,,,,,,,,,,,,,,,,,,,,,,,,,,,,835.9949316000002,836.4976020000004,836.4976020000004,837.2473348000003,837.2473348000003,837.7527632000001,837.7527632000001,838.6469618000001,838.6469618000001,None,num_4,0.4775026000006619,838.6469618000001,None,happy,1,Happy,839.1523416,None,None,839.1523416,None,,,,,,,,,,,,,,,,,,,,,,,,,,,,,,,,,,,,,,,,,,,,,,,,,,,,,27,001,1,36,500,475,2022_Oct_24_1059,Experiment,2021.1.4,359.8118903394767,
images\S6_M_H_03.png,images\S6_M_H_03_scrambled.png,6,happy,30,male,6,,513,off,1,0.5,0.75,0.5,0.845,3,512,2,1,1,0,0,0,0,6,,,,,,0,126,126,126,,,,,,,,,,,,,,,,,,,,,,,,,,,,,,,,,,,,,,,,,,,,,,,,,,,,,,,,,839.2078462,839.7076877,839.7076877,840.4602266000002,840.4602266000002,840.9657895,840.9657895,841.8098100000007,841.8098100000007,None,num_4,0.45872419999977865,841.8098100000007,None,happy,1,Happy,842.2819408,None,None,842.2819408,None,,,,,,,,,,,,,,,,,,,,,,,,,,,,,,,,,,,,,,,,,,,,,,,,,,,,,27,001,1,36,500,475,2022_Oct_24_1059,Experiment,2021.1.4,359.8118903394767,
images\S8_M_S_01.png,images\S8_M_S_01_scrambled.png,8,sad,-10,male,3,,166,off,1,0.5,0.75,0.5,0.872,3,165,3,1,1,0,0,0,0,3,,,,,,0,127,127,127,,,,,,,,,,,,,,,,,,,,,,,,,,,,,,,,,,,,,,,,,,,,,,,,,,,,,,,,,842.3291089000004,842.8345250000002,842.8345250000002,843.5870970000005,843.5870970000005,844.0924921000005,844.0924921000005,844.9672272000007,844.9672272000007,None,num_6,0.3893717999999353,844.9672272000007,None,sad,1,Sad,845.3671155399999,None,None,845.3671155399999,None,,,,,,,,,,,,,,,,,,,,,,,,,,,,,,,,,,,,,,,,,,,,,,,,,,,,,27,001,1,36,500,475,2022_Oct_24_1059,Experiment,2021.1.4,359.8118903394767,
images\S9_F_H_01.png,images\S9_F_H_01_scrambled.png,9,happy,10,female,4,,409,off,1,0.5,0.75,0.5,0.886,3,408,4,1,1,0,0,0,0,4,,,,,,0,128,128,128,,,,,,,,,,,,,,,,,,,,,,,,,,,,,,,,,,,,,,,,,,,,,,,,,,,,,,,,,845.4142694000002,845.9169363999999,845.9169363999999,846.6722625000002,846.6722625000002,847.177627,847.177627,848.0662315,848.0662315,None,num_4,0.4982739999995829,848.0662315,None,happy,1,Happy,848.5855401199997,None,None,848.5855401199997,None,,,,,,,,,,,,,,,,,,,,,,,,,,,,,,,,,,,,,,,,,,,,,,,,,,,,,27,001,1,36,500,475,2022_Oct_24_1059,Experiment,2021.1.4,359.8118903394767,
images\blank.jpg,images\blank.jpg,none,none,none,none,0,,635,on,2,0.5,0.75,0.5,0.766,0,634,1,1,1,3,3,48,192,240,,,,,,0,129,129,129,,,,,,,,,,,,,,,,,,,,,,,,,,,,,,,,,,,,,,,,,,,,,,,,,,,,,,,,,848.6884885,849.1910124000005,849.1910124000005,849.9406521000001,849.9406521000001,850.4433081000006,850.4433081000006,851.2125218000001,851.2125218000001,851.2125218000001,None,,851.2125218000001,None,miss,1,,854.2172035200006,None,None,854.2172035200006,None,,,,,,,,,,,,,,,,,,,,,,,,,,,,,,,,,,,,,,,,,,,,,,,,,,,,,27,001,1,36,500,475,2022_Oct_24_1059,Experiment,2021.1.4,359.8118903394767,
images\S6_M_S_01.png,images\S6_M_S_01_scrambled.png,6,sad,-10,male,3,,94,on,2,0.5,0.75,0.5,0.947,3,93,2,1,1,2,2,32,128,163,,,,,,0,130,130,130,,,,,,,,,,,,,,,,,,,,,,,,,,,,,,,,,,,,,,,,,,,,,,,,,,,,,,,,,854.3395567000007,854.8447129000006,854.8447129000006,855.5972933000003,855.5972933000003,856.1026816000003,856.1026816000003,857.0524058000001,857.0524058000001,None,num_6,0.5279259999997521,857.0524058000001,854.3395567000007,sad,1,Sad,857.6133907000003,None,space,857.6133907000003,None,28.91075340000043,,,,,,,,,,,,,,,,,,,,,,,,,,,,,,,,,,,,,,,,,,,,,,,,,,,,27,001,1,36,500,475,2022_Oct_24_1059,Experiment,2021.1.4,359.8118903394767,
images\S3_F_H_02.png,images\S3_F_H_02_scrambled.png,3,happy,20,female,5,,14,off,1,0.5,0.75,0.5,0.766,3,13,1,1,1,0,0,0,0,5,,,,,,0,131,131,131,,,,,,,,,,,,,,,,,,,,,,,,,,,,,,,,,,,,,,,,,,,,,,,,,,,,,,,,,886.5821138000001,887.0848038000004,887.0848038000004,887.8345767000001,887.8345767000001,888.3344279000003,888.3344279000003,889.1065301000008,889.1065301000008,None,num_4,0.6656511000001046,889.1065301000008,None,happy,1,Happy,889.7867577400003,None,None,889.7867577400003,None,,,,,,,,,,,,,,,,,,,,,,,,,,,,,,,,,,,,,,,,,,,,,,,,,,,,,27,001,1,36,500,475,2022_Oct_24_1059,Experiment,2021.1.4,359.8118903394767,
images\S2_M_H_01.png,images\S2_M_H_01_scrambled.png,2,happy,10,male,4,,547,on,2,0.5,0.75,0.5,0.774,3,546,1,1,1,2,2,32,128,164,,,,,,0,132,132,132,,,,,,,,,,,,,,,,,,,,,,,,,,,,,,,,,,,,,,,,,,,,,,,,,,,,,,,,,889.8339555000002,890.3393691000001,890.3393691000001,891.0919060000006,891.0919060000006,891.5973403000007,891.5973403000007,892.3720687000005,892.3720687000005,None,num_6,0.7280394999997952,892.3720687000005,None,sad,1,Happy,893.1051906200005,None,None,893.1051906200005,None,,,,,,,,,,,,,,,,,,,,,,,,,,,,,,,,,,,,,,,,,,,,,,,,,,,,,27,001,1,36,500,475,2022_Oct_24_1059,Experiment,2021.1.4,359.8118903394767,
images\S10_M_S_01.png,images\S10_M_S_01_scrambled.png,10,sad,-10,male,3,,478,on,2,0.5,0.75,0.5,0.925,3,477,2,1,1,2,2,32,128,163,,,,,,0,133,133,133,,,,,,,,,,,,,,,,,,,,,,,,,,,,,,,,,,,,,,,,,,,,,,,,,,,,,,,,,893.1523761000008,893.6549964000005,893.6549964000005,894.4047792000001,894.4047792000001,894.9074324000003,894.9074324000003,895.8377021000006,895.8377021000006,None,num_4,0.5349482999999964,895.8377021000006,None,happy,1,Sad,896.3847222200006,None,None,896.3847222200006,None,,,,,,,,,,,,,,,,,,,,,,,,,,,,,,,,,,,,,,,,,,,,,,,,,,,,,27,001,1,36,500,475,2022_Oct_24_1059,Experiment,2021.1.4,359.8118903394767,
images\S1_F_H_03.png,images\S1_F_H_03_scrambled.png,1,happy,30,female,6,,123,off,1,0.5,0.75,0.5,0.78,3,122,1,1,1,0,0,0,0,6,,,,,,0,134,134,134,,,,,,,,,,,,,,,,,,,,,,,,,,,,,,,,,,,,,,,,,,,,,,,,,,,,,,,,,896.4347069000005,896.9373682000005,896.9373682000005,897.6898796000005,897.6898796000005,898.1925365000006,898.1925365000006,898.9728032000003,898.9728032000003,None,num_4,0.5280509000003804,898.9728032000003,None,happy,1,Happy,899.5254465800002,None,None,899.5254465800002,None,,,,,,,,,,,,,,,,,,,,,,,,,,,,,,,,,,,,,,,,,,,,,,,,,,,,,27,001,1,36,500,475,2022_Oct_24_1059,Experiment,2021.1.4,359.8118903394767,
images\S8_M_H_03.png,images\S8_M_H_03_scrambled.png,8,happy,30,male,6,,105,on,2,0.5,0.75,0.5,0.948,3,104,1,1,2,2,2,32,128,166,,,,,,0,135,135,135,,,,,,,,,,,,,,,,,,,,,,,,,,,,,,,,,,,,,,,,,,,,,,,,,,,,,,,,,899.5781784000001,900.0836033000005,900.0836033000005,900.8389169000002,900.8389169000002,901.3416099000005,901.3416099000005,902.2968516999999,902.2968516999999,None,num_4,0.8434590999995635,902.2968516999999,None,happy,1,Happy,903.1604768200004,None,None,903.1604768200004,None,,,,,,,,,,,,,,,,,,,,,,,,,,,,,,,,,,,,,,,,,,,,,,,,,,,,,27,001,1,36,500,475,2022_Oct_24_1059,Experiment,2021.1.4,359.8118903394767,
images\S5_F_H_03.png,images\S5_F_H_03_scrambled.png,5,happy,30,female,6,,507,off,1,0.5,0.75,0.5,0.911,3,506,1,1,3,0,0,0,0,6,,,,,,0,136,136,136,,,,,,,,,,,,,,,,,,,,,,,,,,,,,,,,,,,,,,,,,,,,,,,,,,,,,,,,,903.2270591000006,903.7269039000003,903.7269039000003,904.4766944000003,904.4766944000003,904.9821366000006,904.9821366000006,905.8984804000002,905.8984804000002,None,num_4,0.7139799999995375,905.8984804000002,None,happy,1,Happy,906.6260400399998,None,None,906.6260400399998,None,,,,,,,,,,,,,,,,,,,,,,,,,,,,,,,,,,,,,,,,,,,,,,,,,,,,,27,001,1,36,500,475,2022_Oct_24_1059,Experiment,2021.1.4,359.8118903394767,
images\S5_F_H_01.png,images\S5_F_H_01_scrambled.png,5,happy,10,female,4,,205,on,2,0.5,0.75,0.5,0.9,3,204,1,2,1,2,2,32,128,164,,,,,,0,137,137,137,,,,,,,,,,,,,,,,,,,,,,,,,,,,,,,,,,,,,,,,,,,,,,,,,,,,,,,,,906.6732166000002,907.1786526000005,907.1786526000005,907.9313155,907.9313155,908.4310476999999,908.4310476999999,909.3335363000006,909.3335363000006,None,num_4,0.4712415999993027,909.3335363000006,None,happy,1,Happy,909.8250231600002,None,None,909.8250231600002,None,,,,,,,,,,,,,,,,,,,,,,,,,,,,,,,,,,,,,,,,,,,,,,,,,,,,,27,001,1,36,500,475,2022_Oct_24_1059,Experiment,2021.1.4,359.8118903394767,
images\blank.jpg,images\blank.jpg,none,none,none,none,0,,633,on,2,0.5,0.75,0.5,0.918,0,632,2,1,1,3,3,48,192,240,,,,,,0,138,138,138,,,,,,,,,,,,,,,,,,,,,,,,,,,,,,,,,,,,,,,,,,,,,,,,,,,,,,,,,909.9085664000004,910.4110856000007,910.4110856000007,911.1607486000003,911.1607486000003,911.6633830999999,911.6633830999999,912.5825580000001,912.5825580000001,912.5825580000001,None,,912.5825580000001,None,miss,1,,915.5843907600004,None,None,915.5843907600004,None,,,,,,,,,,,,,,,,,,,,,,,,,,,,,,,,,,,,,,,,,,,,,,,,,,,,,27,001,1,36,500,475,2022_Oct_24_1059,Experiment,2021.1.4,359.8118903394767,
images\S10_M_S_03.png,images\S10_M_S_03_scrambled.png,10,sad,-30,male,1,,600,on,2,0.5,0.75,0.5,0.911,3,599,3,1,1,2,2,32,128,161,,,,,,0,139,139,139,,,,,,,,,,,,,,,,,,,,,,,,,,,,,,,,,,,,,,,,,,,,,,,,,,,,,,,,,915.6956397000004,916.1980718000004,916.1980718000004,916.9478356,916.9478356,917.4476934000004,917.4476934000004,918.3614501000002,918.3614501000002,None,num_6,0.6991007000005993,918.3614501000002,915.6956397000004,sad,1,Sad,919.0749865400004,None,None,919.0749865400004,None,,,,,,,,,,,,,,,,,,,,,,,,,,,,,,,,,,,,,,,,,,,,,,,,,,,,,27,001,1,36,500,475,2022_Oct_24_1059,Experiment,2021.1.4,359.8118903394767,
images\S7_F_S_02.png,images\S7_F_S_02_scrambled.png,7,sad,-20,female,2,,401,off,1,0.5,0.75,0.5,0.874,3,400,1,1,1,0,0,0,0,2,,,,,,0,140,140,140,,,,,,,,,,,,,,,,,,,,,,,,,,,,,,,,,,,,,,,,,,,,,,,,,,,,,,,,,919.1221761000006,919.6276162000004,919.6276162000004,920.3829424000005,920.3829424000005,920.8827448000002,920.8827448000002,921.7574774000004,921.7574774000004,None,num_6,0.5349487000003137,921.7574774000004,None,sad,1,Sad,922.3073291399998,None,None,922.3073291399998,None,,,,,,,,,,,,,,,,,,,,,,,,,,,,,,,,,,,,,,,,,,,,,,,,,,,,,27,001,1,36,500,475,2022_Oct_24_1059,Experiment,2021.1.4,359.8118903394767,
images\S5_F_H_03.png,images\S5_F_H_03_scrambled.png,5,happy,30,female,6,,447,on,2,0.5,0.75,0.5,0.787,3,446,1,1,1,2,2,32,128,166,,,,,,0,141,141,141,,,,,,,,,,,,,,,,,,,,,,,,,,,,,,,,,,,,,,,,,,,,,,,,,,,,,,,,,922.3545220000005,922.8571679000006,922.8571679000006,923.6069127000001,923.6069127000001,924.1123666000003,924.1123666000003,924.9037515,924.9037515,None,num_4,0.476295399999799,924.9037515,None,happy,1,Happy,925.3980333400006,None,None,925.3980333400006,None,,,,,,,,,,,,,,,,,,,,,,,,,,,,,,,,,,,,,,,,,,,,,,,,,,,,,27,001,1,36,500,475,2022_Oct_24_1059,Experiment,2021.1.4,359.8118903394767,
