image_face,image_scram,avatar,emo,emotion,sex,trigeeg,dac,trial_no,NMES,stimtime,baseline,iti,face,scr_face,resp_time,index,count_NMES,count_avatar,count_emotion,dac1,dac2,dac1_output,dac2_output,trigs_out,nmes,practice_trials.thisRepN,practice_trials.thisTrialN,practice_trials.thisN,practice_trials.thisIndex,real_trials.thisRepN,real_trials.thisTrialN,real_trials.thisN,real_trials.thisIndex,trials.thisRepN,trials.thisTrialN,trials.thisN,trials.thisIndex,position,Welcome.started,Welcome.stopped,Welcome_resp.keys,Welcome_resp.rt,text_2.started,text_2.stopped,form_2.index,form_2.itemText,form_2.type,form_2.response,form_2.rt,key_resp_4.keys,key_resp_4.rt,key_resp_4.started,key_resp_4.stopped,instructions.started,instructions.stopped,end_instr.keys,end_instr.rt,instructions_2.started,instructions_2.stopped,end_instr_2.keys,end_instr_2.rt,end_instr_2.started,end_instr_2.stopped,instruct_keypress.started,instruct_keypress.stopped,end_instruct_keypress.keys,end_instruct_keypress.rt,start_practice.started,start_practice.stopped,start_practice_resp.keys,start_practice_resp.rt,prac_baseline.started,prac_baseline.stopped,prac_iti.started,prac_iti.stopped,prac_stimulus.started,prac_stimulus.stopped,prac_scram_stim.started,prac_scram_stim.stopped,prac_stimulus_resp.started,prac_stimulus_resp.stopped,prac_resp.keys,prac_resp.rt,prac_resp.started,prac_resp.stopped,transition_to_real.started,transition_to_real.stopped,end_transition_to_real.keys,end_transition_to_real.rt,fixation_cross.started,fixation_cross.stopped,tr_iti.started,tr_iti.stopped,stimulus.started,stimulus.stopped,scram_stim.started,scram_stim.stopped,response_txt.started,response_txt.stopped,response.keys,response.rt,response.started,response.stopped,participant_Resp,grouping,corAnswer,break_msg.started,break_msg.stopped,end_break.keys,end_break.started,end_break.stopped,end_break.rt,text.started,text.stopped,key_resp_3.keys,key_resp_3.rt,key_resp_3.started,key_resp_3.stopped,fix_cross_comf.started,fix_cross_comf.stopped,stimulation_comf.started,stimulation_comf.stopped,rate_instr.started,rate_instr.stopped,comfort_rating.response,comfort_rating.rt,comfort_rating.started,comfort_rating.stopped,resp_form.keys,resp_form.rt,resp_form.started,resp_form.stopped,survey_instructions.started,survey_instructions.stopped,key_resp_2.keys,key_resp_2.rt,key_resp_2.started,key_resp_2.stopped,form.index,form.itemText,form.type,form.response,form.rt,key_resp.keys,key_resp.rt,key_resp.started,key_resp.stopped,text_3.started,text_3.stopped,rate_smile.response,rate_smile.rt,rate_smile.started,rate_smile.stopped,key_resp_5.keys,key_resp_5.rt,key_resp_5.started,key_resp_5.stopped,end_msg.started,end_msg.stopped,end_resp.keys,end_resp.rt,end_resp.started,end_resp.stopped,participant,session,gender,age,LEFT,RIGHT,date,expName,psychopyVersion,frameRate,
,,,,,,,,,,,,,,,,,,,,,,,,,,,,,,,,,,,,,,S-H,57.6360853999995,None,num_add,2.6646080000009533,,,,,,,,,,,,,,,,,,,,,,,,,,,,,,,,,,,,,,,,,,,,,,,,,,,,,,,,,,,,,,,,,,,,,,,,,,,,,,,,,,,,,,,,,,,,,,,,,,,,,,,,,,,,,,,,,,,,,,,,,,28,001,0,27,350,375,2022_Oct_24_1319,Experiment,2021.1.4,360.63717377175476,
,,,,,,,,,,,,,,,,,,,,,,,,,,,,,,,,,,,,,,,,,,,60.31168009999965,62.34993369999938,1,"This scale consistes of a number of words that describe different feelings and emotion. Read each item and then list the number from the scale below each word. Indicate (by clicking) to what extend you feel this way RIGHT NOW, that is, AT THE PRESENT MOMENT.",description,,,,,,,,,,,,,,,,,,,,,,,,,,,,,,,,,,,,,,,,,,,,,,,,,,,,,,,,,,,,,,,,,,,,,,,,,,,,,,,,,,,,,,,,,,,,,,,,,,,,,,,,,,,,,,,,,,,,,28,001,0,27,350,375,2022_Oct_24_1319,Experiment,2021.1.4,360.63717377175476,
,,,,,,,,,,,,,,,,,,,,,,,,,,,,,,,,,,,,,,,,,,,,,2,Interested,rating,4.0,31.515083700000105,,,,,,,,,,,,,,,,,,,,,,,,,,,,,,,,,,,,,,,,,,,,,,,,,,,,,,,,,,,,,,,,,,,,,,,,,,,,,,,,,,,,,,,,,,,,,,,,,,,,,,,,,,,,,,,,,,,28,001,0,27,350,375,2022_Oct_24_1319,Experiment,2021.1.4,360.63717377175476,
,,,,,,,,,,,,,,,,,,,,,,,,,,,,,,,,,,,,,,,,,,,,,3,Distressed,rating,2.0,38.25136939999902,,,,,,,,,,,,,,,,,,,,,,,,,,,,,,,,,,,,,,,,,,,,,,,,,,,,,,,,,,,,,,,,,,,,,,,,,,,,,,,,,,,,,,,,,,,,,,,,,,,,,,,,,,,,,,,,,,,28,001,0,27,350,375,2022_Oct_24_1319,Experiment,2021.1.4,360.63717377175476,
,,,,,,,,,,,,,,,,,,,,,,,,,,,,,,,,,,,,,,,,,,,,,4,Excited,rating,3.0,39.68986769999901,,,,,,,,,,,,,,,,,,,,,,,,,,,,,,,,,,,,,,,,,,,,,,,,,,,,,,,,,,,,,,,,,,,,,,,,,,,,,,,,,,,,,,,,,,,,,,,,,,,,,,,,,,,,,,,,,,,28,001,0,27,350,375,2022_Oct_24_1319,Experiment,2021.1.4,360.63717377175476,
,,,,,,,,,,,,,,,,,,,,,,,,,,,,,,,,,,,,,,,,,,,,,5,Upset,rating,1.0,49.932950999998866,,,,,,,,,,,,,,,,,,,,,,,,,,,,,,,,,,,,,,,,,,,,,,,,,,,,,,,,,,,,,,,,,,,,,,,,,,,,,,,,,,,,,,,,,,,,,,,,,,,,,,,,,,,,,,,,,,,28,001,0,27,350,375,2022_Oct_24_1319,Experiment,2021.1.4,360.63717377175476,
,,,,,,,,,,,,,,,,,,,,,,,,,,,,,,,,,,,,,,,,,,,,,6,Strong,rating,4.0,52.93904669999938,,,,,,,,,,,,,,,,,,,,,,,,,,,,,,,,,,,,,,,,,,,,,,,,,,,,,,,,,,,,,,,,,,,,,,,,,,,,,,,,,,,,,,,,,,,,,,,,,,,,,,,,,,,,,,,,,,,28,001,0,27,350,375,2022_Oct_24_1319,Experiment,2021.1.4,360.63717377175476,
,,,,,,,,,,,,,,,,,,,,,,,,,,,,,,,,,,,,,,,,,,,,,7,Guilty,rating,1.0,9.41708330000074,,,,,,,,,,,,,,,,,,,,,,,,,,,,,,,,,,,,,,,,,,,,,,,,,,,,,,,,,,,,,,,,,,,,,,,,,,,,,,,,,,,,,,,,,,,,,,,,,,,,,,,,,,,,,,,,,,,28,001,0,27,350,375,2022_Oct_24_1319,Experiment,2021.1.4,360.63717377175476,
,,,,,,,,,,,,,,,,,,,,,,,,,,,,,,,,,,,,,,,,,,,,,8,Scared,rating,2.0,12.167712000000392,,,,,,,,,,,,,,,,,,,,,,,,,,,,,,,,,,,,,,,,,,,,,,,,,,,,,,,,,,,,,,,,,,,,,,,,,,,,,,,,,,,,,,,,,,,,,,,,,,,,,,,,,,,,,,,,,,,28,001,0,27,350,375,2022_Oct_24_1319,Experiment,2021.1.4,360.63717377175476,
,,,,,,,,,,,,,,,,,,,,,,,,,,,,,,,,,,,,,,,,,,,,,9,Hostile,rating,1.0,13.65033979999862,,,,,,,,,,,,,,,,,,,,,,,,,,,,,,,,,,,,,,,,,,,,,,,,,,,,,,,,,,,,,,,,,,,,,,,,,,,,,,,,,,,,,,,,,,,,,,,,,,,,,,,,,,,,,,,,,,,28,001,0,27,350,375,2022_Oct_24_1319,Experiment,2021.1.4,360.63717377175476,
,,,,,,,,,,,,,,,,,,,,,,,,,,,,,,,,,,,,,,,,,,,,,10,Enthusiastic,rating,4.0,9.352694999999585,,,,,,,,,,,,,,,,,,,,,,,,,,,,,,,,,,,,,,,,,,,,,,,,,,,,,,,,,,,,,,,,,,,,,,,,,,,,,,,,,,,,,,,,,,,,,,,,,,,,,,,,,,,,,,,,,,,28,001,0,27,350,375,2022_Oct_24_1319,Experiment,2021.1.4,360.63717377175476,
,,,,,,,,,,,,,,,,,,,,,,,,,,,,,,,,,,,,,,,,,,,,,11,Proud,rating,3.0,9.716223000001264,,,,,,,,,,,,,,,,,,,,,,,,,,,,,,,,,,,,,,,,,,,,,,,,,,,,,,,,,,,,,,,,,,,,,,,,,,,,,,,,,,,,,,,,,,,,,,,,,,,,,,,,,,,,,,,,,,,28,001,0,27,350,375,2022_Oct_24_1319,Experiment,2021.1.4,360.63717377175476,
,,,,,,,,,,,,,,,,,,,,,,,,,,,,,,,,,,,,,,,,,,,,,12,Irritable,rating,2.0,9.668787900000098,,,,,,,,,,,,,,,,,,,,,,,,,,,,,,,,,,,,,,,,,,,,,,,,,,,,,,,,,,,,,,,,,,,,,,,,,,,,,,,,,,,,,,,,,,,,,,,,,,,,,,,,,,,,,,,,,,,28,001,0,27,350,375,2022_Oct_24_1319,Experiment,2021.1.4,360.63717377175476,
,,,,,,,,,,,,,,,,,,,,,,,,,,,,,,,,,,,,,,,,,,,,,13,Alert,rating,3.0,9.375100799999927,,,,,,,,,,,,,,,,,,,,,,,,,,,,,,,,,,,,,,,,,,,,,,,,,,,,,,,,,,,,,,,,,,,,,,,,,,,,,,,,,,,,,,,,,,,,,,,,,,,,,,,,,,,,,,,,,,,28,001,0,27,350,375,2022_Oct_24_1319,Experiment,2021.1.4,360.63717377175476,
,,,,,,,,,,,,,,,,,,,,,,,,,,,,,,,,,,,,,,,,,,,,,14,Ashamed,rating,1.0,11.41402349999953,,,,,,,,,,,,,,,,,,,,,,,,,,,,,,,,,,,,,,,,,,,,,,,,,,,,,,,,,,,,,,,,,,,,,,,,,,,,,,,,,,,,,,,,,,,,,,,,,,,,,,,,,,,,,,,,,,,28,001,0,27,350,375,2022_Oct_24_1319,Experiment,2021.1.4,360.63717377175476,
,,,,,,,,,,,,,,,,,,,,,,,,,,,,,,,,,,,,,,,,,,,,,15,Inspired,rating,4.0,12.995616999998674,,,,,,,,,,,,,,,,,,,,,,,,,,,,,,,,,,,,,,,,,,,,,,,,,,,,,,,,,,,,,,,,,,,,,,,,,,,,,,,,,,,,,,,,,,,,,,,,,,,,,,,,,,,,,,,,,,,28,001,0,27,350,375,2022_Oct_24_1319,Experiment,2021.1.4,360.63717377175476,
,,,,,,,,,,,,,,,,,,,,,,,,,,,,,,,,,,,,,,,,,,,,,16,Nervous,rating,3.0,11.984722600000168,,,,,,,,,,,,,,,,,,,,,,,,,,,,,,,,,,,,,,,,,,,,,,,,,,,,,,,,,,,,,,,,,,,,,,,,,,,,,,,,,,,,,,,,,,,,,,,,,,,,,,,,,,,,,,,,,,,28,001,0,27,350,375,2022_Oct_24_1319,Experiment,2021.1.4,360.63717377175476,
,,,,,,,,,,,,,,,,,,,,,,,,,,,,,,,,,,,,,,,,,,,,,17,Determined,rating,3.0,13.279857999999876,,,,,,,,,,,,,,,,,,,,,,,,,,,,,,,,,,,,,,,,,,,,,,,,,,,,,,,,,,,,,,,,,,,,,,,,,,,,,,,,,,,,,,,,,,,,,,,,,,,,,,,,,,,,,,,,,,,28,001,0,27,350,375,2022_Oct_24_1319,Experiment,2021.1.4,360.63717377175476,
,,,,,,,,,,,,,,,,,,,,,,,,,,,,,,,,,,,,,,,,,,,,,18,Attentive,rating,4.0,12.249722900000052,,,,,,,,,,,,,,,,,,,,,,,,,,,,,,,,,,,,,,,,,,,,,,,,,,,,,,,,,,,,,,,,,,,,,,,,,,,,,,,,,,,,,,,,,,,,,,,,,,,,,,,,,,,,,,,,,,,28,001,0,27,350,375,2022_Oct_24_1319,Experiment,2021.1.4,360.63717377175476,
,,,,,,,,,,,,,,,,,,,,,,,,,,,,,,,,,,,,,,,,,,,,,19,Jittery,rating,1.0,26.723946600001,,,,,,,,,,,,,,,,,,,,,,,,,,,,,,,,,,,,,,,,,,,,,,,,,,,,,,,,,,,,,,,,,,,,,,,,,,,,,,,,,,,,,,,,,,,,,,,,,,,,,,,,,,,,,,,,,,,28,001,0,27,350,375,2022_Oct_24_1319,Experiment,2021.1.4,360.63717377175476,
,,,,,,,,,,,,,,,,,,,,,,,,,,,,,,,,,,,,,,,,,,,,,20,Active,rating,4.0,28.644464699998935,,,,,,,,,,,,,,,,,,,,,,,,,,,,,,,,,,,,,,,,,,,,,,,,,,,,,,,,,,,,,,,,,,,,,,,,,,,,,,,,,,,,,,,,,,,,,,,,,,,,,,,,,,,,,,,,,,,28,001,0,27,350,375,2022_Oct_24_1319,Experiment,2021.1.4,360.63717377175476,
,,,,,,,,,,,,,,,,,,,,,,,,,,,,,,,,,,,,,,,,,,,,,21,Afraid,rating,2.0,29.609943599998587,,,,,,,,,,,,,,,,,,,,,,,,,,,,,,,,,,,,,,,,,,,,,,,,,,,,,,,,,,,,,,,,,,,,,,,,,,,,,,,,,,,,,,,,,,,,,,,,,,,,,,,,,,,,,,,,,,,28,001,0,27,350,375,2022_Oct_24_1319,Experiment,2021.1.4,360.63717377175476,
,,,,,,,,,,,,,,,,,,,,,,,,,,,,,,,,,,,,,,,,,,,,,22,Press the + button to submit your answers,description,,,,,,,,,,,,,,,,,,,,,,,,,,,,,,,,,,,,,,,,,,,,,,,,,,,,,,,,,,,,,,,,,,,,,,,,,,,,,,,,,,,,,,,,,,,,,,,,,,,,,,,,,,,,,,,,,,,,,28,001,0,27,350,375,2022_Oct_24_1319,Experiment,2021.1.4,360.63717377175476,
,,,,,,,,,,,,,,,,,,,,,,,,,,,,,,,,,,,,,,,,,,,,,,,,,,num_add,110.62143250000008,70.37524499999927,None,,,,,,,,,,,,,,,,,,,,,,,,,,,,,,,,,,,,,,,,,,,,,,,,,,,,,,,,,,,,,,,,,,,,,,,,,,,,,,,,,,,,,,,,,,,,,,,,,,,,,,,,,,,,,,,28,001,0,27,350,375,2022_Oct_24_1319,Experiment,2021.1.4,360.63717377175476,
,,,,,,,,,,,,,,,,,,,,,,,,,,,,,,,,,,,,,,,,,,,,,,,,,,,,,,181.01917799999865,None,num_add,19.969490100000257,,,,,,,,,,,,,,,,,,,,,,,,,,,,,,,,,,,,,,,,,,,,,,,,,,,,,,,,,,,,,,,,,,,,,,,,,,,,,,,,,,,,,,,,,,,,,,,,,,,,,,,,,,,28,001,0,27,350,375,2022_Oct_24_1319,Experiment,2021.1.4,360.63717377175476,
,,,,,,,,,,,,,,,,,,,,,,,,,,,,,,,,,,,,,,,,,,,,,,,,,,,,,,,,,,200.99902250000014,None,num_add,13.381832099999883,200.99902250000014,None,,,,,,,,,,,,,,,,,,,,,,,,,,,,,,,,,,,,,,,,,,,,,,,,,,,,,,,,,,,,,,,,,,,,,,,,,,,,,,,,,,,,,,,,,,,,,,,,,,,,,28,001,0,27,350,375,2022_Oct_24_1319,Experiment,2021.1.4,360.63717377175476,
,,,,,,,,,,,,,,,,,,,,,,,,,,,,,,,,,,,,,,,,,,,,,,,,,,,,,,,,,,,,,,,,214.40323349999926,None,num_add,19.93740330000037,,,,,,,,,,,,,,,,,,,,,,,,,,,,,,,,,,,,,,,,,,,,,,,,,,,,,,,,,,,,,,,,,,,,,,,,,,,,,,,,,,,,,,,,,,,,,,,,,28,001,0,27,350,375,2022_Oct_24_1319,Experiment,2021.1.4,360.63717377175476,
,,,,,,,,,,,,,,,,,,,,,,,,,,,,,,,,,,,,,,,,,,,,,,,,,,,,,,,,,,,,,,,,,,,,234.35267019999992,None,space,31.396170199999688,,,,,,,,,,,,,,,,,,,,,,,,,,,,,,,,,,,,,,,,,,,,,,,,,,,,,,,,,,,,,,,,,,,,,,,,,,,,,,,,,,,,,,,,,,,,,28,001,0,27,350,375,2022_Oct_24_1319,Experiment,2021.1.4,360.63717377175476,
images\S22_M_S_02.png,images\S22_M_S_02_scrambled.png,22,Sad,0.2,M,0,0,practice,off,1,0.5,0.75,0.5,0.751,3,,,,,,,,,,,0,0,0,3,,,,,,,,,,,,,,,,,,,,,,,,,,,,,,,,,,,,,,,,,,,265.8818711999993,266.387390599999,266.387390599999,267.13706119999915,267.13706119999915,267.6425268999992,267.6425268999992,268.3978154999986,268.3978154999986,None,num_4,2.0074930999999197,268.3978154999986,None,,,,,,,,,,,,,,,,,,,,,,,,,,,,,,,,,,,,,,,,,,,,,,,,,,,,,,,,,,,,,,,,,,,,,,,,,,,,,,,28,001,0,27,350,375,2022_Oct_24_1319,Experiment,2021.1.4,360.63717377175476,
images\S22_M_S_02.png,images\S22_M_S_02_scrambled.png,22,Sad,0.2,M,0,0,practice,on,2,0.5,0.75,0.5,0.783,3,,,,,,,,,,,0,1,1,6,,,,,,,,,,,,,,,,,,,,,,,,,,,,,,,,,,,,,,,,,,,270.4610178999992,270.9608628999995,270.9608628999995,271.710630399999,271.710630399999,272.21325160000015,272.21325160000015,272.999135,272.999135,None,num_6,1.510317500000383,272.999135,None,,,,,,,,,,,,,,,,,,,,,,,,,,,,,,,,,,,,,,,,,,,,,,,,,,,,,,,,,,,,,,,,,,,,,,,,,,,,,,,28,001,0,27,350,375,2022_Oct_24_1319,Experiment,2021.1.4,360.63717377175476,
images\S21_F_H_01.png,images\S21_F_H_01_scrambled.png,21,Happy,-0.1,F,0,0,practice,off,1,0.5,0.75,0.5,0.853,3,,,,,,,,,,,0,2,2,0,,,,,,,,,,,,,,,,,,,,,,,,,,,,,,,,,,,,,,,,,,,274.5736476999991,275.0734756999991,275.0734756999991,275.82603070000005,275.82603070000005,276.3315679999996,276.3315679999996,277.1895244999996,277.1895244999996,None,num_6,0.5122212999995099,277.1895244999996,None,,,,,,,,,,,,,,,,,,,,,,,,,,,,,,,,,,,,,,,,,,,,,,,,,,,,,,,,,,,,,,,,,,,,,,,,,,,,,,,28,001,0,27,350,375,2022_Oct_24_1319,Experiment,2021.1.4,360.63717377175476,
images\S22_M_H_02.png,images\S22_M_H_02_scrambled.png,22,Happy,-0.2,M,0,0,practice,off,1,0.5,0.75,0.5,0.883,3,,,,,,,,,,,0,3,3,2,,,,,,,,,,,,,,,,,,,,,,,,,,,,,,,,,,,,,,,,,,,277.7727087000003,278.2780946999992,278.2780946999992,279.03341699999874,279.03341699999874,279.5360409999994,279.5360409999994,280.4219591000001,280.4219591000001,None,num_6,0.407216999999946,280.4219591000001,None,,,,,,,,,,,,,,,,,,,,,,,,,,,,,,,,,,,,,,,,,,,,,,,,,,,,,,,,,,,,,,,,,,,,,,,,,,,,,,,28,001,0,27,350,375,2022_Oct_24_1319,Experiment,2021.1.4,360.63717377175476,
images\S22_M_S_03.png,images\S22_M_S_03_scrambled.png,22,Sad,0.3,M,0,0,practice,on,2,0.5,0.75,0.5,0.87,3,,,,,,,,,,,0,4,4,4,,,,,,,,,,,,,,,,,,,,,,,,,,,,,,,,,,,,,,,,,,,280.9022463000001,281.40770840000005,281.40770840000005,282.1630263999996,282.1630263999996,282.66559159999997,282.66559159999997,283.53762689999894,283.53762689999894,None,num_4,0.27554390000113926,283.53762689999894,None,,,,,,,,,,,,,,,,,,,,,,,,,,,,,,,,,,,,,,,,,,,,,,,,,,,,,,,,,,,,,,,,,,,,,,,,,,,,,,,28,001,0,27,350,375,2022_Oct_24_1319,Experiment,2021.1.4,360.63717377175476,
images\S22_M_S_03.png,images\S22_M_S_03_scrambled.png,22,Sad,0.3,M,0,0,practice,on,2,0.5,0.75,0.5,0.794,3,,,,,,,,,,,0,5,5,7,,,,,,,,,,,,,,,,,,,,,,,,,,,,,,,,,,,,,,,,,,,283.86802179999904,284.3706368999992,284.3706368999992,285.12039559999903,285.12039559999903,285.62306119999994,285.62306119999994,286.4228033999989,286.4228033999989,None,num_4,0.37486689999968803,286.4228033999989,None,,,,,,,,,,,,,,,,,,,,,,,,,,,,,,,,,,,,,,,,,,,,,,,,,,,,,,,,,,,,,,,,,,,,,,,,,,,,,,,28,001,0,27,350,375,2022_Oct_24_1319,Experiment,2021.1.4,360.63717377175476,
images\S21_F_H_02.png,images\S21_F_H_02_scrambled.png,21,Happy,-0.2,F,0,0,practice,off,1,0.5,0.75,0.5,0.91,3,,,,,,,,,,,0,6,6,1,,,,,,,,,,,,,,,,,,,,,,,,,,,,,,,,,,,,,,,,,,,286.8532908999987,287.35863739999877,287.35863739999877,288.1083688999988,288.1083688999988,288.6110334999994,288.6110334999994,289.527463299999,289.527463299999,None,num_6,0.2776274999996531,289.527463299999,None,,,,,,,,,,,,,,,,,,,,,,,,,,,,,,,,,,,,,,,,,,,,,,,,,,,,,,,,,,,,,,,,,,,,,,,,,,,,,,,28,001,0,27,350,375,2022_Oct_24_1319,Experiment,2021.1.4,360.63717377175476,
images\S22_M_S_01.png,images\S22_M_S_01_scrambled.png,22,Sad,0.1,M,0,0,practice,on,2,0.5,0.75,0.5,0.867,3,,,,,,,,,,,0,7,7,5,,,,,,,,,,,,,,,,,,,,,,,,,,,,,,,,,,,,,,,,,,,289.8661627999991,290.36881639999956,290.36881639999956,291.12412909999875,291.12412909999875,291.6267320999996,291.6267320999996,292.49595129999943,292.49595129999943,None,num_6,0.6611174999998184,292.49595129999943,None,,,,,,,,,,,,,,,,,,,,,,,,,,,,,,,,,,,,,,,,,,,,,,,,,,,,,,,,,,,,,,,,,,,,,,,,,,,,,,,28,001,0,27,350,375,2022_Oct_24_1319,Experiment,2021.1.4,360.63717377175476,
,,,,,,,,,,,,,,,,,,,,,,,,,,,,,,,,,,,,,,,,,,,,,,,,,,,,,,,,,,,,,,,,,,,,,,,,,,,,,,,,,,,,,,293.18458139999893,None,space,141.26020009999957,,,,,,,,,,,,,,,,,,,,,,,,,,,,,,,,,,,,,,,,,,,,,,,,,,,,,,,,,,,,,,,,,,,,,,,,,,,28,001,0,27,350,375,2022_Oct_24_1319,Experiment,2021.1.4,360.63717377175476,
images\S4_M_H_02.png,images\S4_M_H_02_scrambled.png,4,happy,20,male,5,,200,on,2,0.5,0.75,0.5,0.765,3,199,1,1,1,2,2,32,128,165,,,,,,0,0,0,0,,,,,,,,,,,,,,,,,,,,,,,,,,,,,,,,,,,,,,,,,,,,,,,,,,,,,,,,,434.9327119999998,435.4381283999992,435.4381283999992,436.19345129999965,436.19345129999965,436.6988459999993,436.6988459999993,437.4680606999991,437.4680606999991,None,num_6,0.05754770000021381,437.4680606999991,None,happy,0,Happy,437.5403983999986,None,None,437.5403983999986,None,,,,,,,,,,,,,,,,,,,,,,,,,,,,,,,,,,,,,,,,,,,,,,,,,,,,,28,001,0,27,350,375,2022_Oct_24_1319,Experiment,2021.1.4,360.63717377175476,
images\S4_M_S_02.png,images\S4_M_S_02_scrambled.png,4,sad,-20,male,2,,23,off,1,0.5,0.75,0.5,0.753,3,22,1,2,1,0,0,0,0,2,,,,,,0,1,1,1,,,,,,,,,,,,,,,,,,,,,,,,,,,,,,,,,,,,,,,,,,,,,,,,,,,,,,,,,437.58745309999904,438.09287679999943,438.09287679999943,438.84543459999986,438.84543459999986,439.35091809999903,439.35091809999903,440.10610859999906,440.10610859999906,None,num_4,0.44307579999986046,440.10610859999906,None,sad,0,Sad,440.5643112999998,None,None,440.5643112999998,None,,,,,,,,,,,,,,,,,,,,,,,,,,,,,,,,,,,,,,,,,,,,,,,,,,,,,28,001,0,27,350,375,2022_Oct_24_1319,Experiment,2021.1.4,360.63717377175476,
images\blank.jpg,images\blank.jpg,none,none,none,none,0,,632,on,2,0.5,0.75,0.5,0.781,0,631,1,1,1,3,3,48,192,240,,,,,,0,2,2,2,,,,,,,,,,,,,,,,,,,,,,,,,,,,,,,,,,,,,,,,,,,,,,,,,,,,,,,,,440.6480782999988,441.15303929999936,441.15303929999936,441.90570209999896,441.90570209999896,442.40821909999977,442.40821909999977,443.1885270999992,443.1885270999992,443.1885270999992,None,,443.1885270999992,None,miss,0,,446.1876105999989,None,None,446.1876105999989,None,,,,,,,,,,,,,,,,,,,,,,,,,,,,,,,,,,,,,,,,,,,,,,,,,,,,,28,001,0,27,350,375,2022_Oct_24_1319,Experiment,2021.1.4,360.63717377175476,
images\S7_F_H_03.png,images\S7_F_H_03_scrambled.png,7,happy,30,female,6,,579,on,2,0.5,0.75,0.5,0.814,3,578,2,1,1,2,2,32,128,166,,,,,,0,3,3,3,,,,,,,,,,,,,,,,,,,,,,,,,,,,,,,,,,,,,,,,,,,,,,,,,,,,,,,,,446.3016759000002,446.8012719999988,446.8012719999988,447.5538230000002,447.5538230000002,448.05658289999883,448.05658289999883,448.8729284000001,448.8729284000001,None,num_6,0.5246861000014178,448.8729284000001,446.3016759000002,happy,0,Happy,449.41441789999953,None,None,449.41441789999953,None,,,,,,,,,,,,,,,,,,,,,,,,,,,,,,,,,,,,,,,,,,,,,,,,,,,,,28,001,0,27,350,375,2022_Oct_24_1319,Experiment,2021.1.4,360.63717377175476,
images\S4_M_S_01.png,images\S4_M_S_01_scrambled.png,4,sad,-10,male,3,,22,off,1,0.5,0.75,0.5,0.79,3,21,1,1,1,0,0,0,0,3,,,,,,0,4,4,4,,,,,,,,,,,,,,,,,,,,,,,,,,,,,,,,,,,,,,,,,,,,,,,,,,,,,,,,,449.4615759999997,449.96422299999904,449.96422299999904,450.71677929999896,450.71677929999896,451.2222884999992,451.2222884999992,452.01915759999974,452.01915759999974,None,num_4,0.7060970000002271,452.01915759999974,None,sad,0,Sad,452.73562090000013,None,None,452.73562090000013,None,,,,,,,,,,,,,,,,,,,,,,,,,,,,,,,,,,,,,,,,,,,,,,,,,,,,,28,001,0,27,350,375,2022_Oct_24_1319,Experiment,2021.1.4,360.63717377175476,
images\S7_F_S_01.png,images\S7_F_S_01_scrambled.png,7,sad,-10,female,3,,100,on,2,0.5,0.75,0.5,0.86,3,99,1,1,2,2,2,32,128,163,,,,,,0,5,5,5,,,,,,,,,,,,,,,,,,,,,,,,,,,,,,,,,,,,,,,,,,,,,,,,,,,,,,,,,452.7827767999988,453.28263179999885,453.28263179999885,454.0379944999986,454.0379944999986,454.54338909999933,454.54338909999933,455.40698729999895,455.40698729999895,None,num_6,0.5742125000015221,455.40698729999895,None,happy,0,Sad,455.99305459999925,None,None,455.99305459999925,None,,,,,,,,,,,,,,,,,,,,,,,,,,,,,,,,,,,,,,,,,,,,,,,,,,,,,28,001,0,27,350,375,2022_Oct_24_1319,Experiment,2021.1.4,360.63717377175476,
images\S3_F_S_02.png,images\S3_F_S_02_scrambled.png,3,sad,-20,female,2,,257,off,1,0.5,0.75,0.5,0.793,3,256,1,1,1,0,0,0,0,2,,,,,,0,6,6,6,,,,,,,,,,,,,,,,,,,,,,,,,,,,,,,,,,,,,,,,,,,,,,,,,,,,,,,,,456.05122329999904,456.5538722000001,456.5538722000001,457.3091852999987,457.3091852999987,457.814592499999,457.814592499999,458.6116970000003,458.6116970000003,None,num_6,1.0253004999995028,458.6116970000003,None,happy,0,Sad,459.6418133000003,None,None,459.6418133000003,None,,,,,,,,,,,,,,,,,,,,,,,,,,,,,,,,,,,,,,,,,,,,,,,,,,,,,28,001,0,27,350,375,2022_Oct_24_1319,Experiment,2021.1.4,360.63717377175476,
images\S3_F_S_02.png,images\S3_F_S_02_scrambled.png,3,sad,-20,female,2,,557,on,2,0.5,0.75,0.5,0.927,3,556,1,2,2,2,2,32,128,162,,,,,,0,7,7,7,,,,,,,,,,,,,,,,,,,,,,,,,,,,,,,,,,,,,,,,,,,,,,,,,,,,,,,,,459.6889874999997,460.1916177999992,460.1916177999992,460.94419480000033,460.94419480000033,461.4467829999994,461.4467829999994,462.37984510000024,462.37984510000024,None,num_6,0.7933085000004212,462.37984510000024,None,happy,0,Sad,463.1823951999992,None,None,463.1823951999992,None,,,,,,,,,,,,,,,,,,,,,,,,,,,,,,,,,,,,,,,,,,,,,,,,,,,,,28,001,0,27,350,375,2022_Oct_24_1319,Experiment,2021.1.4,360.63717377175476,
images\S10_M_S_03.png,images\S10_M_S_03_scrambled.png,10,sad,-30,male,1,,480,on,2,0.5,0.75,0.5,0.843,3,479,2,1,1,2,2,32,128,161,,,,,,0,8,8,8,,,,,,,,,,,,,,,,,,,,,,,,,,,,,,,,,,,,,,,,,,,,,,,,,,,,,,,,,463.2295749999994,463.73232409999946,463.73232409999946,464.4876002000001,464.4876002000001,464.9929727999988,464.9929727999988,465.83989119999933,465.83989119999933,None,num_6,0.7093776000001526,465.83989119999933,None,happy,0,Sad,466.5535949000001,None,None,466.5535949000001,None,,,,,,,,,,,,,,,,,,,,,,,,,,,,,,,,,,,,,,,,,,,,,,,,,,,,,28,001,0,27,350,375,2022_Oct_24_1319,Experiment,2021.1.4,360.63717377175476,
images\S3_F_S_03.png,images\S3_F_S_03_scrambled.png,3,sad,-30,female,1,,78,on,2,0.5,0.75,0.5,0.878,3,77,3,1,2,2,2,32,128,161,,,,,,0,9,9,9,,,,,,,,,,,,,,,,,,,,,,,,,,,,,,,,,,,,,,,,,,,,,,,,,,,,,,,,,466.6007615999988,467.10061270000006,467.10061270000006,467.85317269999905,467.85317269999905,468.3557729999993,468.3557729999993,469.2388711000003,469.2388711000003,None,num_4,0.558571600000505,469.2388711000003,None,sad,0,Sad,469.81093139999865,None,None,469.81093139999865,None,,,,,,,,,,,,,,,,,,,,,,,,,,,,,,,,,,,,,,,,,,,,,,,,,,,,,28,001,0,27,350,375,2022_Oct_24_1319,Experiment,2021.1.4,360.63717377175476,
images\S6_M_S_01.png,images\S6_M_S_01_scrambled.png,6,sad,-10,male,3,,34,off,1,0.5,0.75,0.5,0.812,3,33,1,1,1,0,0,0,0,3,,,,,,0,10,10,10,,,,,,,,,,,,,,,,,,,,,,,,,,,,,,,,,,,,,,,,,,,,,,,,,,,,,,,,,469.8580919999986,470.3607099000001,470.3607099000001,471.1104839999989,471.1104839999989,471.6131461999994,471.6131461999994,472.4323992999998,472.4323992999998,None,num_4,0.9169529999999213,472.4323992999998,None,sad,0,Sad,473.3793141999995,None,None,473.3793141999995,None,,,,,,,,,,,,,,,,,,,,,,,,,,,,,,,,,,,,,,,,,,,,,,,,,,,,,28,001,0,27,350,375,2022_Oct_24_1319,Experiment,2021.1.4,360.63717377175476,
images\S4_M_S_03.png,images\S4_M_S_03_scrambled.png,4,sad,-30,male,1,,84,on,2,0.5,0.75,0.5,0.9,3,83,1,1,1,2,2,32,128,161,,,,,,0,11,11,11,,,,,,,,,,,,,,,,,,,,,,,,,,,,,,,,,,,,,,,,,,,,,,,,,,,,,,,,,473.4347913999991,473.94018289999985,473.94018289999985,474.6899529000002,474.6899529000002,475.1926227999993,475.1926227999993,476.09789399999863,476.09789399999863,None,num_4,0.5233780999988085,476.09789399999863,None,sad,0,Sad,476.6450331999993,None,None,476.6450331999993,None,,,,,,,,,,,,,,,,,,,,,,,,,,,,,,,,,,,,,,,,,,,,,,,,,,,,,28,001,0,27,350,375,2022_Oct_24_1319,Experiment,2021.1.4,360.63717377175476,
images\blank.jpg,images\blank.jpg,none,none,none,none,0,,631,on,2,0.5,0.75,0.5,0.946,0,630,2,1,1,3,3,48,192,240,,,,,,0,12,12,12,,,,,,,,,,,,,,,,,,,,,,,,,,,,,,,,,,,,,,,,,,,,,,,,,,,,,,,,,476.7311829999999,477.2308327999999,477.2308327999999,477.98341230000005,477.98341230000005,478.48322109999935,478.48322109999935,479.43291750000026,479.43291750000026,479.43291750000026,None,,479.43291750000026,None,miss,0,,482.4376563999991,None,None,482.4376563999991,None,,,,,,,,,,,,,,,,,,,,,,,,,,,,,,,,,,,,,,,,,,,,,,,,,,,,,28,001,0,27,350,375,2022_Oct_24_1319,Experiment,2021.1.4,360.63717377175476,
images\S4_M_H_02.png,images\S4_M_H_02_scrambled.png,4,happy,20,male,5,,380,off,1,0.5,0.75,0.5,0.862,3,379,1,1,1,0,0,0,0,5,,,,,,0,13,13,13,,,,,,,,,,,,,,,,,,,,,,,,,,,,,,,,,,,,,,,,,,,,,,,,,,,,,,,,,482.55997169999864,483.0651698999991,483.0651698999991,483.81492459999936,483.81492459999936,484.3176098999993,484.3176098999993,485.1839670999998,485.1839670999998,None,num_6,0.4691163999996206,485.1839670999998,482.55997169999864,happy,0,Happy,485.66993049999945,None,None,485.66993049999945,None,,,,,,,,,,,,,,,,,,,,,,,,,,,,,,,,,,,,,,,,,,,,,,,,,,,,,28,001,0,27,350,375,2022_Oct_24_1319,Experiment,2021.1.4,360.63717377175476,
images\S6_M_H_01.png,images\S6_M_H_01_scrambled.png,6,happy,10,male,4,,571,on,2,0.5,0.75,0.5,0.849,3,570,1,1,1,2,2,32,128,164,,,,,,0,14,14,14,,,,,,,,,,,,,,,,,,,,,,,,,,,,,,,,,,,,,,,,,,,,,,,,,,,,,,,,,485.71711609999875,486.219742199999,486.219742199999,486.9722884999992,486.9722884999992,487.4777151999988,487.4777151999988,488.33300699999927,488.33300699999927,None,num_6,0.6722489000003407,488.33300699999927,None,happy,0,Happy,489.0189382999997,None,None,489.0189382999997,None,,,,,,,,,,,,,,,,,,,,,,,,,,,,,,,,,,,,,,,,,,,,,,,,,,,,,28,001,0,27,350,375,2022_Oct_24_1319,Experiment,2021.1.4,360.63717377175476,
images\S7_F_S_02.png,images\S7_F_S_02_scrambled.png,7,sad,-20,female,2,,281,off,1,0.5,0.75,0.5,0.797,3,280,1,1,1,0,0,0,0,2,,,,,,0,15,15,15,,,,,,,,,,,,,,,,,,,,,,,,,,,,,,,,,,,,,,,,,,,,,,,,,,,,,,,,,489.0827458999993,489.58817759999874,489.58817759999874,490.3435023999991,490.3435023999991,490.84888879999926,490.84888879999926,491.65152409999973,491.65152409999973,None,num_6,0.36184850000063307,491.65152409999973,None,happy,0,Sad,492.02352009999925,None,None,492.02352009999925,None,,,,,,,,,,,,,,,,,,,,,,,,,,,,,,,,,,,,,,,,,,,,,,,,,,,,,28,001,0,27,350,375,2022_Oct_24_1319,Experiment,2021.1.4,360.63717377175476,
images\S5_F_S_01.png,images\S5_F_S_01_scrambled.png,5,sad,-10,female,3,,88,on,2,0.5,0.75,0.5,0.859,3,87,1,1,1,2,2,32,128,163,,,,,,0,16,16,16,,,,,,,,,,,,,,,,,,,,,,,,,,,,,,,,,,,,,,,,,,,,,,,,,,,,,,,,,492.0735961999999,492.57891599999857,492.57891599999857,493.33423049999874,493.33423049999874,493.83694110000033,493.83694110000033,494.6977406999995,494.6977406999995,None,num_6,0.7874878000002354,494.6977406999995,None,happy,0,Sad,495.49468639999907,None,None,495.49468639999907,None,,,,,,,,,,,,,,,,,,,,,,,,,,,,,,,,,,,,,,,,,,,,,,,,,,,,,28,001,0,27,350,375,2022_Oct_24_1319,Experiment,2021.1.4,360.63717377175476,
images\S4_M_H_01.png,images\S4_M_H_01_scrambled.png,4,happy,10,male,4,,559,on,2,0.5,0.75,0.5,0.95,3,558,2,1,1,2,2,32,128,164,,,,,,0,17,17,17,,,,,,,,,,,,,,,,,,,,,,,,,,,,,,,,,,,,,,,,,,,,,,,,,,,,,,,,,495.54187549999915,496.04734350000035,496.04734350000035,496.802644899999,496.802644899999,497.30802810000023,497.30802810000023,498.2632923000001,498.2632923000001,None,num_6,0.3660598000005848,498.2632923000001,None,happy,0,Happy,498.65215519999987,None,None,498.65215519999987,None,,,,,,,,,,,,,,,,,,,,,,,,,,,,,,,,,,,,,,,,,,,,,,,,,,,,,28,001,0,27,350,375,2022_Oct_24_1319,Experiment,2021.1.4,360.63717377175476,
images\S1_F_S_01.png,images\S1_F_S_01_scrambled.png,1,sad,-10,female,3,,64,on,2,0.5,0.75,0.5,0.879,3,63,3,1,1,2,2,32,128,163,,,,,,0,18,18,18,,,,,,,,,,,,,,,,,,,,,,,,,,,,,,,,,,,,,,,,,,,,,,,,,,,,,,,,,498.7158905999986,499.21854319999875,499.21854319999875,499.9738705,499.9738705,500.4792617999992,500.4792617999992,501.36231210000005,501.36231210000005,None,num_6,0.5229783000013413,501.36231210000005,None,happy,0,Sad,501.8927027999995,None,None,501.8927027999995,None,,,,,,,,,,,,,,,,,,,,,,,,,,,,,,,,,,,,,,,,,,,,,,,,,,,,,28,001,0,27,350,375,2022_Oct_24_1319,Experiment,2021.1.4,360.63717377175476,
images\S1_F_S_02.png,images\S1_F_S_02_scrambled.png,1,sad,-20,female,2,,5,off,1,0.5,0.75,0.5,0.779,3,4,1,2,1,0,0,0,0,2,,,,,,0,19,19,19,,,,,,,,,,,,,,,,,,,,,,,,,,,,,,,,,,,,,,,,,,,,,,,,,,,,,,,,,501.939900899999,502.44530699999996,502.44530699999996,503.19788770000014,503.19788770000014,503.70047989999875,503.70047989999875,504.4807757999988,504.4807757999988,None,num_6,1.0605425000012474,504.4807757999988,None,happy,0,Sad,505.54991539999867,None,None,505.54991539999867,None,,,,,,,,,,,,,,,,,,,,,,,,,,,,,,,,,,,,,,,,,,,,,,,,,,,,,28,001,0,27,350,375,2022_Oct_24_1319,Experiment,2021.1.4,360.63717377175476,
images\S6_M_S_02.png,images\S6_M_S_02_scrambled.png,6,sad,-20,male,2,,395,off,1,0.5,0.75,0.5,0.874,3,394,2,1,2,0,0,0,0,2,,,,,,0,20,20,20,,,,,,,,,,,,,,,,,,,,,,,,,,,,,,,,,,,,,,,,,,,,,,,,,,,,,,,,,505.5971090999992,506.10258729999987,506.10258729999987,506.8578895999999,506.8578895999999,507.35770819999925,507.35770819999925,508.2380054999994,508.2380054999994,None,num_6,0.5515444000011485,508.2380054999994,None,happy,0,Sad,508.8046748000001,None,None,508.8046748000001,None,,,,,,,,,,,,,,,,,,,,,,,,,,,,,,,,,,,,,,,,,,,,,,,,,,,,,28,001,0,27,350,375,2022_Oct_24_1319,Experiment,2021.1.4,360.63717377175476,
images\S1_F_S_01.png,images\S1_F_S_01_scrambled.png,1,sad,-10,female,3,,364,off,1,0.5,0.75,0.5,0.854,3,363,3,1,1,0,0,0,0,3,,,,,,0,21,21,21,,,,,,,,,,,,,,,,,,,,,,,,,,,,,,,,,,,,,,,,,,,,,,,,,,,,,,,,,508.86277399999926,509.3682110999998,509.3682110999998,510.11794839999857,510.11794839999857,510.6205728999994,510.6205728999994,511.4786327999991,511.4786327999991,None,num_6,0.42298379999920144,511.4786327999991,None,happy,0,Sad,511.9147368999988,None,None,511.9147368999988,None,,,,,,,,,,,,,,,,,,,,,,,,,,,,,,,,,,,,,,,,,,,,,,,,,,,,,28,001,0,27,350,375,2022_Oct_24_1319,Experiment,2021.1.4,360.63717377175476,
images\blank.jpg,images\blank.jpg,none,none,none,none,0,,622,on,2,0.5,0.75,0.5,0.763,0,621,1,1,1,3,3,48,192,240,,,,,,0,22,22,22,,,,,,,,,,,,,,,,,,,,,,,,,,,,,,,,,,,,,,,,,,,,,,,,,,,,,,,,,512.0092918999999,512.5117947999988,512.5117947999988,513.267088999999,513.267088999999,513.7668486999992,513.7668486999992,514.5305336000001,514.5305336000001,514.5305336000001,None,,514.5305336000001,None,miss,0,,517.5324226999996,None,None,517.5324226999996,None,,,,,,,,,,,,,,,,,,,,,,,,,,,,,,,,,,,,,,,,,,,,,,,,,,,,,28,001,0,27,350,375,2022_Oct_24_1319,Experiment,2021.1.4,360.63717377175476,
images\S9_F_S_03.png,images\S9_F_S_03_scrambled.png,9,sad,-30,female,1,,294,off,1,0.5,0.75,0.5,0.85,3,293,1,1,1,0,0,0,0,1,,,,,,0,23,23,23,,,,,,,,,,,,,,,,,,,,,,,,,,,,,,,,,,,,,,,,,,,,,,,,,,,,,,,,,517.6547505999988,518.1572672999991,518.1572672999991,518.9069290999996,518.9069290999996,519.4123834000002,519.4123834000002,520.2676592999997,520.2676592999997,None,num_4,0.45756189999883645,520.2676592999997,517.6547505999988,sad,0,Sad,520.748136999999,None,None,520.748136999999,None,,,,,,,,,,,,,,,,,,,,,,,,,,,,,,,,,,,,,,,,,,,,,,,,,,,,,28,001,0,27,350,375,2022_Oct_24_1319,Experiment,2021.1.4,360.63717377175476,
images\S5_F_H_03.png,images\S5_F_H_03_scrambled.png,5,happy,30,female,6,,207,on,2,0.5,0.75,0.5,0.801,3,206,1,1,1,2,2,32,128,166,,,,,,0,24,24,24,,,,,,,,,,,,,,,,,,,,,,,,,,,,,,,,,,,,,,,,,,,,,,,,,,,,,,,,,520.8090422999994,521.3117481999998,521.3117481999998,522.0615087999995,522.0615087999995,522.5670236999995,522.5670236999995,523.3723463999995,523.3723463999995,None,num_6,0.7607787000015378,523.3723463999995,None,happy,0,Happy,524.1442069999986,None,None,524.1442069999986,None,,,,,,,,,,,,,,,,,,,,,,,,,,,,,,,,,,,,,,,,,,,,,,,,,,,,,28,001,0,27,350,375,2022_Oct_24_1319,Experiment,2021.1.4,360.63717377175476,
images\S5_F_S_01.png,images\S5_F_S_01_scrambled.png,5,sad,-10,female,3,,508,off,1,0.5,0.75,0.5,0.818,3,507,1,2,1,0,0,0,0,3,,,,,,0,25,25,25,,,,,,,,,,,,,,,,,,,,,,,,,,,,,,,,,,,,,,,,,,,,,,,,,,,,,,,,,524.1913962999988,524.6940482999998,524.6940482999998,525.4493640000001,525.4493640000001,525.952051799999,525.952051799999,526.7739604999988,526.7739604999988,None,num_6,0.7753283000001829,526.7739604999988,None,happy,0,Sad,527.5570523999999,None,None,527.5570523999999,None,,,,,,,,,,,,,,,,,,,,,,,,,,,,,,,,,,,,,,,,,,,,,,,,,,,,,28,001,0,27,350,375,2022_Oct_24_1319,Experiment,2021.1.4,360.63717377175476,
images\blank.jpg,images\blank.jpg,none,none,none,none,0,,642,on,2,0.5,0.75,0.5,0.919,0,641,1,1,1,3,3,48,192,240,,,,,,0,26,26,26,,,,,,,,,,,,,,,,,,,,,,,,,,,,,,,,,,,,,,,,,,,,,,,,,,,,,,,,,527.6572512000002,528.1624730999993,528.1624730999993,528.9121600999988,528.9121600999988,529.4176594,529.4176594,530.3423849999999,530.3423849999999,530.3423849999999,None,,530.3423849999999,None,miss,0,,533.3442295,None,None,533.3442295,None,,,,,,,,,,,,,,,,,,,,,,,,,,,,,,,,,,,,,,,,,,,,,,,,,,,,,28,001,0,27,350,375,2022_Oct_24_1319,Experiment,2021.1.4,360.63717377175476,
images\S8_M_S_03.png,images\S8_M_S_03_scrambled.png,8,sad,-30,male,1,,468,on,2,0.5,0.75,0.5,0.898,3,467,2,1,1,2,2,32,128,161,,,,,,0,27,27,27,,,,,,,,,,,,,,,,,,,,,,,,,,,,,,,,,,,,,,,,,,,,,,,,,,,,,,,,,533.4666168999993,533.9689792999998,533.9689792999998,534.7215171999997,534.7215171999997,535.2270305000002,535.2270305000002,536.1294158000001,536.1294158000001,None,None,,536.1294158000001,533.4666168999993,miss,0,Sad,539.1284925999996,None,None,539.1284925999996,None,,,,,,,,,,,,,,,,,,,,,,,,,,,,,,,,,,,,,,,,,,,,,,,,,,,,,28,001,0,27,350,375,2022_Oct_24_1319,Experiment,2021.1.4,360.63717377175476,
images\blank.jpg,images\blank.jpg,none,none,none,none,0,,614,on,2,0.5,0.75,0.5,0.881,0,613,3,1,1,3,3,48,192,240,,,,,,0,28,28,28,,,,,,,,,,,,,,,,,,,,,,,,,,,,,,,,,,,,,,,,,,,,,,,,,,,,,,,,,539.2120782000002,539.7116245999987,539.7116245999987,540.4670764000002,540.4670764000002,540.9724800999993,540.9724800999993,541.8554580999989,541.8554580999989,541.8554580999989,None,,541.8554580999989,539.2120782000002,miss,0,,544.8573472999992,None,None,544.8573472999992,None,,,,,,,,,,,,,,,,,,,,,,,,,,,,,,,,,,,,,,,,,,,,,,,,,,,,,28,001,0,27,350,375,2022_Oct_24_1319,Experiment,2021.1.4,360.63717377175476,
images\S2_M_H_01.png,images\S2_M_H_01_scrambled.png,2,happy,10,male,4,,187,on,2,0.5,0.75,0.5,0.927,3,186,4,1,1,2,2,32,128,164,,,,,,0,29,29,29,,,,,,,,,,,,,,,,,,,,,,,,,,,,,,,,,,,,,,,,,,,,,,,,,,,,,,,,,544.9768254999999,545.4793202000001,545.4793202000001,546.2346453999999,546.2346453999999,546.7373365000003,546.7373365000003,547.6675815999988,547.6675815999988,None,num_6,0.36969309999949473,547.6675815999988,544.9768254999999,happy,0,Happy,548.0507658999987,None,None,548.0507658999987,None,,,,,,,,,,,,,,,,,,,,,,,,,,,,,,,,,,,,,,,,,,,,,,,,,,,,,28,001,0,27,350,375,2022_Oct_24_1319,Experiment,2021.1.4,360.63717377175476,
images\S8_M_H_02.png,images\S8_M_H_02_scrambled.png,8,happy,20,male,5,,404,off,1,0.5,0.75,0.5,0.795,3,403,1,1,1,0,0,0,0,5,,,,,,0,30,30,30,,,,,,,,,,,,,,,,,,,,,,,,,,,,,,,,,,,,,,,,,,,,,,,,,,,,,,,,,548.0979427999991,548.6033831999994,548.6033831999994,549.3586920999987,549.3586920999987,549.8640901999988,549.8640901999988,550.6610846999993,550.6610846999993,None,num_6,0.9921391000007134,550.6610846999993,None,happy,0,Happy,551.663558899999,None,None,551.663558899999,None,,,,,,,,,,,,,,,,,,,,,,,,,,,,,,,,,,,,,,,,,,,,,,,,,,,,,28,001,0,27,350,375,2022_Oct_24_1319,Experiment,2021.1.4,360.63717377175476,
images\S6_M_H_02.png,images\S6_M_H_02_scrambled.png,6,happy,20,male,5,,152,off,1,0.5,0.75,0.5,0.832,3,151,2,1,2,0,0,0,0,5,,,,,,0,31,31,31,,,,,,,,,,,,,,,,,,,,,,,,,,,,,,,,,,,,,,,,,,,,,,,,,,,,,,,,,551.7107355999997,552.2134009000001,552.2134009000001,552.9631157999993,552.9631157999993,553.4657147999988,553.4657147999988,554.301719699999,554.301719699999,None,num_6,0.46356200000082026,554.301719699999,None,happy,0,Happy,554.7904100999996,None,None,554.7904100999996,None,,,,,,,,,,,,,,,,,,,,,,,,,,,,,,,,,,,,,,,,,,,,,,,,,,,,,28,001,0,27,350,375,2022_Oct_24_1319,Experiment,2021.1.4,360.63717377175476,
images\S5_F_S_01.png,images\S5_F_S_01_scrambled.png,5,sad,-10,female,3,,208,on,2,0.5,0.75,0.5,0.95,3,207,1,1,1,2,2,32,128,163,,,,,,0,32,32,32,,,,,,,,,,,,,,,,,,,,,,,,,,,,,,,,,,,,,,,,,,,,,,,,,,,,,,,,,554.8430933999989,555.3457153999989,555.3457153999989,556.0982969999986,556.0982969999986,556.6009240000003,556.6009240000003,557.5533739000002,557.5533739000002,None,num_6,0.49979589999929885,557.5533739000002,None,happy,0,Sad,558.0587746999986,None,None,558.0587746999986,None,,,,,,,,,,,,,,,,,,,,,,,,,,,,,,,,,,,,,,,,,,,,,,,,,,,,,28,001,0,27,350,375,2022_Oct_24_1319,Experiment,2021.1.4,360.63717377175476,
images\blank.jpg,images\blank.jpg,none,none,none,none,0,,628,on,2,0.5,0.75,0.5,0.911,0,627,2,1,1,3,3,48,192,240,,,,,,0,33,33,33,,,,,,,,,,,,,,,,,,,,,,,,,,,,,,,,,,,,,,,,,,,,,,,,,,,,,,,,,558.1423195999996,558.6475659999996,558.6475659999996,559.4028504999987,559.4028504999987,559.9054000999986,559.9054000999986,560.8190114999998,560.8190114999998,560.8190114999998,None,,560.8190114999998,None,miss,0,,563.8181414999988,None,None,563.8181414999988,None,,,,,,,,,,,,,,,,,,,,,,,,,,,,,,,,,,,,,,,,,,,,,,,,,,,,,28,001,0,27,350,375,2022_Oct_24_1319,Experiment,2021.1.4,360.63717377175476,
images\S9_F_H_03.png,images\S9_F_H_03_scrambled.png,9,happy,30,female,6,,411,off,1,0.5,0.75,0.5,0.891,3,410,1,1,1,0,0,0,0,6,,,,,,0,34,34,34,,,,,,,,,,,,,,,,,,,,,,,,,,,,,,,,,,,,,,,,,,,,,,,,,,,,,,,,,563.9321150999986,564.4374544999991,564.4374544999991,565.1871539000003,565.1871539000003,565.692595999999,565.692595999999,566.5867039999994,566.5867039999994,None,num_6,0.4745100000000093,566.5867039999994,563.9321150999986,happy,0,Happy,567.0754726999995,None,None,567.0754726999995,None,,,,,,,,,,,,,,,,,,,,,,,,,,,,,,,,,,,,,,,,,,,,,,,,,,,,,28,001,0,27,350,375,2022_Oct_24_1319,Experiment,2021.1.4,360.63717377175476,
images\S5_F_S_03.png,images\S5_F_S_03_scrambled.png,5,sad,-30,female,1,,150,off,1,0.5,0.75,0.5,0.826,3,149,2,1,1,0,0,0,0,1,,,,,,0,35,35,35,,,,,,,,,,,,,,,,,,,,,,,,,,,,,,,,,,,,,,,,,,,,,,,,,,,,,,,,,567.1226569999999,567.6225206999989,567.6225206999989,568.3778781000001,568.3778781000001,568.8832641999998,568.8832641999998,569.7135581999992,569.7135581999992,None,num_4,0.6996856999994634,569.7135581999992,None,sad,0,Sad,570.4272207999994,None,None,570.4272207999994,None,,,,,,,,,,,,,,,,,,,,,,,,,,,,,,,,,,,,,,,,,,,,,,,,,,,,,28,001,0,27,350,375,2022_Oct_24_1319,Experiment,2021.1.4,360.63717377175476,
images\S7_F_S_03.png,images\S7_F_S_03_scrambled.png,7,sad,-30,female,1,,222,on,2,0.5,0.75,0.5,0.813,3,221,1,1,2,2,2,32,128,161,,,,,,0,36,36,36,,,,,,,,,,,,,,,,,,,,,,,,,,,,,,,,,,,,,,,,,,,,,,,,,,,,,,,,,570.4771893999987,570.9826434999995,570.9826434999995,571.7379614000001,571.7379614000001,572.2433416000003,572.2433416000003,573.0597435999989,573.0597435999989,None,num_4,0.46565860000009707,573.0597435999989,None,sad,0,Sad,573.5401858999986,None,None,573.5401858999986,None,,,,,,,,,,,,,,,,,,,,,,,,,,,,,,,,,,,,,,,,,,,,,,,,,,,,,28,001,0,27,350,375,2022_Oct_24_1319,Experiment,2021.1.4,360.63717377175476,
images\blank.jpg,images\blank.jpg,none,none,none,none,0,,603,on,2,0.5,0.75,0.5,0.94,0,602,2,1,1,3,3,48,192,240,,,,,,0,37,37,37,,,,,,,,,,,,,,,,,,,,,,,,,,,,,,,,,,,,,,,,,,,,,,,,,,,,,,,,,573.623626999999,574.1288609999992,574.1288609999992,574.8786043,574.8786043,575.378451999999,575.378451999999,576.3226524000002,576.3226524000002,576.3226524000002,None,,576.3226524000002,None,miss,0,,579.3273155000002,None,None,579.3273155000002,None,,,,,,,,,,,,,,,,,,,,,,,,,,,,,,,,,,,,,,,,,,,,,,,,,,,,,28,001,0,27,350,375,2022_Oct_24_1319,Experiment,2021.1.4,360.63717377175476,
images\S7_F_S_03.png,images\S7_F_S_03_scrambled.png,7,sad,-30,female,1,,402,off,1,0.5,0.75,0.5,0.918,3,401,1,1,1,0,0,0,0,1,,,,,,0,38,38,38,,,,,,,,,,,,,,,,,,,,,,,,,,,,,,,,,,,,,,,,,,,,,,,,,,,,,,,,,579.4469021999994,579.9464892999986,579.9464892999986,580.6990580999991,580.6990580999991,581.2016855000002,581.2016855000002,582.1236314999987,582.1236314999987,None,num_4,0.24157019999984186,582.1236314999987,579.4469021999994,sad,0,Sad,582.3791238999994,None,None,582.3791238999994,None,,,,,,,,,,,,,,,,,,,,,,,,,,,,,,,,,,,,,,,,,,,,,,,,,,,,,28,001,0,27,350,375,2022_Oct_24_1319,Experiment,2021.1.4,360.63717377175476,
images\S5_F_S_02.png,images\S5_F_S_02_scrambled.png,5,sad,-20,female,2,,149,off,1,0.5,0.75,0.5,0.924,3,148,2,1,1,0,0,0,0,2,,,,,,0,39,39,39,,,,,,,,,,,,,,,,,,,,,,,,,,,,,,,,,,,,,,,,,,,,,,,,,,,,,,,,,582.4262894000003,582.9289377999994,582.9289377999994,583.6815939999997,583.6815939999997,584.1840983999991,584.1840983999991,585.1116947999999,585.1116947999999,None,num_4,0.36555869999938295,585.1116947999999,None,sad,0,Sad,585.4920428999986,None,None,585.4920428999986,None,,,,,,,,,,,,,,,,,,,,,,,,,,,,,,,,,,,,,,,,,,,,,,,,,,,,,28,001,0,27,350,375,2022_Oct_24_1319,Experiment,2021.1.4,360.63717377175476,
images\S10_M_S_02.png,images\S10_M_S_02_scrambled.png,10,sad,-20,male,2,,419,off,1,0.5,0.75,0.5,0.885,3,418,3,1,2,0,0,0,0,2,,,,,,0,40,40,40,,,,,,,,,,,,,,,,,,,,,,,,,,,,,,,,,,,,,,,,,,,,,,,,,,,,,,,,,585.5392253999999,586.0446376999989,586.0446376999989,586.7972598999986,586.7972598999986,587.2997887999991,587.2997887999991,588.1884396999994,588.1884396999994,None,num_6,0.696764100001019,588.1884396999994,None,happy,0,Sad,588.8937524999997,None,None,588.8937524999997,None,,,,,,,,,,,,,,,,,,,,,,,,,,,,,,,,,,,,,,,,,,,,,,,,,,,,,28,001,0,27,350,375,2022_Oct_24_1319,Experiment,2021.1.4,360.63717377175476,
images\S1_F_S_03.png,images\S1_F_S_03_scrambled.png,1,sad,-30,female,1,,306,on,2,0.5,0.75,0.5,0.785,3,305,1,1,1,2,2,32,128,161,,,,,,0,41,41,41,,,,,,,,,,,,,,,,,,,,,,,,,,,,,,,,,,,,,,,,,,,,,,,,,,,,,,,,,588.9409505999993,589.4436072999997,589.4436072999997,590.1933517999987,590.1933517999987,590.6932278999993,590.6932278999993,591.4819596999987,591.4819596999987,None,num_6,0.45178329999907874,591.4819596999987,None,happy,0,Sad,591.9457545999998,None,None,591.9457545999998,None,,,,,,,,,,,,,,,,,,,,,,,,,,,,,,,,,,,,,,,,,,,,,,,,,,,,,28,001,0,27,350,375,2022_Oct_24_1319,Experiment,2021.1.4,360.63717377175476,
images\blank.jpg,images\blank.jpg,none,none,none,none,0,,647,on,2,0.5,0.75,0.5,0.796,0,646,2,1,1,3,3,48,192,240,,,,,,0,42,42,42,,,,,,,,,,,,,,,,,,,,,,,,,,,,,,,,,,,,,,,,,,,,,,,,,,,,,,,,,592.0377275999999,592.542668,592.542668,593.2979856999991,593.2979856999991,593.8033854999994,593.8033854999994,594.6003886999988,594.6003886999988,594.6003886999988,None,,594.6003886999988,None,miss,0,,597.6022567999985,None,None,597.6022567999985,None,,,,,,,,,,,,,,,,,,,,,,,,,,,,,,,,,,,,,,,,,,,,,,,,,,,,,28,001,0,27,350,375,2022_Oct_24_1319,Experiment,2021.1.4,360.63717377175476,
images\S9_F_H_01.png,images\S9_F_H_01_scrambled.png,9,happy,10,female,4,,49,off,1,0.5,0.75,0.5,0.879,3,48,1,1,1,0,0,0,0,4,,,,,,0,43,43,43,,,,,,,,,,,,,,,,,,,,,,,,,,,,,,,,,,,,,,,,,,,,,,,,,,,,,,,,,597.7217628999988,598.2242325999996,598.2242325999996,598.9768899999999,598.9768899999999,599.4822770999999,599.4822770999999,600.3680332000004,600.3680332000004,None,num_6,0.2934187999999267,600.3680332000004,597.7217628999988,happy,0,Happy,600.6736226999993,None,None,600.6736226999993,None,,,,,,,,,,,,,,,,,,,,,,,,,,,,,,,,,,,,,,,,,,,,,,,,,,,,,28,001,0,27,350,375,2022_Oct_24_1319,Experiment,2021.1.4,360.63717377175476,
images\S10_M_S_03.png,images\S10_M_S_03_scrambled.png,10,sad,-30,male,1,,540,off,1,0.5,0.75,0.5,0.867,3,539,2,1,1,0,0,0,0,1,,,,,,0,44,44,44,,,,,,,,,,,,,,,,,,,,,,,,,,,,,,,,,,,,,,,,,,,,,,,,,,,,,,,,,600.7206636999999,601.2233314999994,601.2233314999994,601.9758308,601.9758308,602.4813582999996,602.4813582999996,603.3531980999996,603.3531980999996,None,num_4,0.3079521999989083,603.3531980999996,None,sad,0,Sad,603.6725612000001,None,None,603.6725612000001,None,,,,,,,,,,,,,,,,,,,,,,,,,,,,,,,,,,,,,,,,,,,,,,,,,,,,,28,001,0,27,350,375,2022_Oct_24_1319,Experiment,2021.1.4,360.63717377175476,
images\S3_F_H_02.png,images\S3_F_H_02_scrambled.png,3,happy,20,female,5,,194,on,2,0.5,0.75,0.5,0.879,3,193,1,1,1,2,2,32,128,165,,,,,,0,45,45,45,,,,,,,,,,,,,,,,,,,,,,,,,,,,,,,,,,,,,,,,,,,,,,,,,,,,,,,,,603.7364058000003,604.2390483999989,604.2390483999989,604.9917078999988,604.9917078999988,605.4971327000003,605.4971327000003,606.3828579000001,606.3828579000001,None,num_6,0.4863086999994266,606.3828579000001,None,happy,0,Happy,606.896708799999,None,None,606.896708799999,None,,,,,,,,,,,,,,,,,,,,,,,,,,,,,,,,,,,,,,,,,,,,,,,,,,,,,28,001,0,27,350,375,2022_Oct_24_1319,Experiment,2021.1.4,360.63717377175476,
images\S4_M_H_03.png,images\S4_M_H_03_scrambled.png,4,happy,30,male,6,,261,off,1,0.5,0.75,0.5,0.819,3,260,1,1,1,0,0,0,0,6,,,,,,0,46,46,46,,,,,,,,,,,,,,,,,,,,,,,,,,,,,,,,,,,,,,,,,,,,,,,,,,,,,,,,,606.9520842999991,607.4575688999994,607.4575688999994,608.2128240999991,608.2128240999991,608.7182671999999,608.7182671999999,609.5429798999994,609.5429798999994,None,num_6,0.7661545999999362,609.5429798999994,None,happy,0,Happy,610.3232977999988,None,None,610.3232977999988,None,,,,,,,,,,,,,,,,,,,,,,,,,,,,,,,,,,,,,,,,,,,,,,,,,,,,,28,001,0,27,350,375,2022_Oct_24_1319,Experiment,2021.1.4,360.63717377175476,
images\S4_M_H_03.png,images\S4_M_H_03_scrambled.png,4,happy,30,male,6,,441,on,2,0.5,0.75,0.5,0.835,3,440,1,2,2,2,2,32,128,166,,,,,,0,47,47,47,,,,,,,,,,,,,,,,,,,,,,,,,,,,,,,,,,,,,,,,,,,,,,,,,,,,,,,,,610.3704769999986,610.8759983999989,610.8759983999989,611.6256746999989,611.6256746999989,612.1283000999993,612.1283000999993,612.9668991999988,612.9668991999988,None,num_6,0.44655840000086755,612.9668991999988,None,happy,0,Happy,613.4391829999996,None,None,613.4391829999996,None,,,,,,,,,,,,,,,,,,,,,,,,,,,,,,,,,,,,,,,,,,,,,,,,,,,,,28,001,0,27,350,375,2022_Oct_24_1319,Experiment,2021.1.4,360.63717377175476,
images\S10_M_H_03.png,images\S10_M_H_03_scrambled.png,10,happy,30,male,6,,597,on,2,0.5,0.75,0.5,0.855,3,596,2,1,3,2,2,32,128,166,,,,,,0,48,48,48,,,,,,,,,,,,,,,,,,,,,,,,,,,,,,,,,,,,,,,,,,,,,,,,,,,,,,,,,613.4889657999993,613.9917139999998,613.9917139999998,614.7413822999988,614.7413822999988,615.2412446999988,615.2412446999988,616.1049126999987,616.1049126999987,None,num_6,0.2919600999994145,616.1049126999987,None,happy,0,Happy,616.4075681999994,None,None,616.4075681999994,None,,,,,,,,,,,,,,,,,,,,,,,,,,,,,,,,,,,,,,,,,,,,,,,,,,,,,28,001,0,27,350,375,2022_Oct_24_1319,Experiment,2021.1.4,360.63717377175476,
images\S8_M_H_02.png,images\S8_M_H_02_scrambled.png,8,happy,20,male,5,,464,on,2,0.5,0.75,0.5,0.805,3,463,3,1,1,2,2,32,128,165,,,,,,0,49,49,49,,,,,,,,,,,,,,,,,,,,,,,,,,,,,,,,,,,,,,,,,,,,,,,,,,,,,,,,,616.4547196000003,616.9574338999992,616.9574338999992,617.7127119999986,617.7127119999986,618.2181268999993,618.2181268999993,619.0289589999993,619.0289589999993,None,num_4,0.31224570000085805,619.0289589999993,None,sad,0,Happy,619.3510650999992,None,None,619.3510650999992,None,,,,,,,,,,,,,,,,,,,,,,,,,,,,,,,,,,,,,,,,,,,,,,,,,,,,,28,001,0,27,350,375,2022_Oct_24_1319,Experiment,2021.1.4,360.63717377175476,
images\S1_F_H_01.png,images\S1_F_H_01_scrambled.png,1,happy,10,female,4,,241,off,1,0.5,0.75,0.5,0.882,3,240,1,1,1,0,0,0,0,4,,,,,,0,50,50,50,,,,,,,,,,,,,,,,,,,,,,,,,,,,,,,,,,,,,,,,,,,,,,,,,,,,,,,,,619.3982547999985,619.9008919999997,619.9008919999997,620.6534691999987,620.6534691999987,621.1560952999989,621.1560952999989,622.0420178999993,622.0420178999993,None,num_6,0.4033729000002495,622.0420178999993,None,happy,0,Happy,622.4584342999998,None,None,622.4584342999998,None,,,,,,,,,,,,,,,,,,,,,,,,,,,,,,,,,,,,,,,,,,,,,,,,,,,,,28,001,0,27,350,375,2022_Oct_24_1319,Experiment,2021.1.4,360.63717377175476,
images\S6_M_H_02.png,images\S6_M_H_02_scrambled.png,6,happy,20,male,5,,92,on,2,0.5,0.75,0.5,0.808,3,91,1,1,1,2,2,32,128,165,,,,,,0,51,51,51,,,,,,,,,,,,,,,,,,,,,,,,,,,,,,,,,,,,,,,,,,,,,,,,,,,,,,,,,622.5056687999986,623.0054925999993,623.0054925999993,623.7608136999988,623.7608136999988,624.2634670999996,624.2634670999996,625.0743028999987,625.0743028999987,None,num_6,0.49887739999940095,625.0743028999987,None,happy,0,Happy,625.5880647999994,None,None,625.5880647999994,None,,,,,,,,,,,,,,,,,,,,,,,,,,,,,,,,,,,,,,,,,,,,,,,,,,,,,28,001,0,27,350,375,2022_Oct_24_1319,Experiment,2021.1.4,360.63717377175476,
images\blank.jpg,images\blank.jpg,none,none,none,none,0,,604,on,2,0.5,0.75,0.5,0.878,0,603,2,1,1,3,3,48,192,240,,,,,,0,52,52,52,,,,,,,,,,,,,,,,,,,,,,,,,,,,,,,,,,,,,,,,,,,,,,,,,,,,,,,,,625.6715844999999,626.1739899999993,626.1739899999993,626.9265306999987,626.9265306999987,627.4263544999994,627.4263544999994,628.3039864999992,628.3039864999992,628.3039864999992,None,,628.3039864999992,None,miss,0,,631.3030045000003,None,None,631.3030045000003,None,,,,,,,,,,,,,,,,,,,,,,,,,,,,,,,,,,,,,,,,,,,,,,,,,,,,,28,001,0,27,350,375,2022_Oct_24_1319,Experiment,2021.1.4,360.63717377175476,
images\S10_M_S_02.png,images\S10_M_S_02_scrambled.png,10,sad,-20,male,2,,299,off,1,0.5,0.75,0.5,0.942,3,298,1,1,1,0,0,0,0,2,,,,,,0,53,53,53,,,,,,,,,,,,,,,,,,,,,,,,,,,,,,,,,,,,,,,,,,,,,,,,,,,,,,,,,631.4253716999992,631.9277523000001,631.9277523000001,632.6831070999997,632.6831070999997,633.1884976000001,633.1884976000001,634.1326759000003,634.1326759000003,None,num_6,0.2644535999988875,634.1326759000003,631.4253716999992,happy,0,Sad,634.4020391999998,None,None,634.4020391999998,None,,,,,,,,,,,,,,,,,,,,,,,,,,,,,,,,,,,,,,,,,,,,,,,,,,,,,28,001,0,27,350,375,2022_Oct_24_1319,Experiment,2021.1.4,360.63717377175476,
images\S9_F_S_02.png,images\S9_F_S_02_scrambled.png,9,sad,-20,female,2,,593,on,2,0.5,0.75,0.5,0.773,3,592,1,1,2,2,2,32,128,162,,,,,,0,54,54,54,,,,,,,,,,,,,,,,,,,,,,,,,,,,,,,,,,,,,,,,,,,,,,,,,,,,,,,,,634.4658545999991,634.9685090999992,634.9685090999992,635.7238261000002,635.7238261000002,636.2265637,636.2265637,637.0039700999987,637.0039700999987,None,num_4,0.32129879999956756,637.0039700999987,None,sad,0,Sad,637.3427832999997,None,None,637.3427832999997,None,,,,,,,,,,,,,,,,,,,,,,,,,,,,,,,,,,,,,,,,,,,,,,,,,,,,,28,001,0,27,350,375,2022_Oct_24_1319,Experiment,2021.1.4,360.63717377175476,
images\S7_F_S_01.png,images\S7_F_S_01_scrambled.png,7,sad,-10,female,3,,280,off,1,0.5,0.75,0.5,0.918,3,279,1,1,1,0,0,0,0,3,,,,,,0,55,55,55,,,,,,,,,,,,,,,,,,,,,,,,,,,,,,,,,,,,,,,,,,,,,,,,,,,,,,,,,637.3899567999997,637.8898135999989,637.8898135999989,638.6423717999987,638.6423717999987,639.1477873999993,639.1477873999993,640.0696927999998,640.0696927999998,None,num_4,0.9915750000000116,640.0696927999998,None,sad,0,Sad,641.0723382999996,None,None,641.0723382999996,None,,,,,,,,,,,,,,,,,,,,,,,,,,,,,,,,,,,,,,,,,,,,,,,,,,,,,28,001,0,27,350,375,2022_Oct_24_1319,Experiment,2021.1.4,360.63717377175476,
images\S10_M_H_02.png,images\S10_M_H_02_scrambled.png,10,happy,20,male,5,,476,on,2,0.5,0.75,0.5,0.935,3,475,1,1,1,2,2,32,128,165,,,,,,0,56,56,56,,,,,,,,,,,,,,,,,,,,,,,,,,,,,,,,,,,,,,,,,,,,,,,,,,,,,,,,,641.1193674999995,641.6247764999989,641.6247764999989,642.3773292999995,642.3773292999995,642.8827478999992,642.8827478999992,643.8241167999986,643.8241167999986,None,num_6,0.4450667000000976,643.8241167999986,None,happy,0,Happy,644.2823829,None,None,644.2823829,None,,,,,,,,,,,,,,,,,,,,,,,,,,,,,,,,,,,,,,,,,,,,,,,,,,,,,28,001,0,27,350,375,2022_Oct_24_1319,Experiment,2021.1.4,360.63717377175476,
images\S2_M_H_02.png,images\S2_M_H_02_scrambled.png,2,happy,20,male,5,,308,on,2,0.5,0.75,0.5,0.847,3,307,2,1,2,2,2,32,128,165,,,,,,0,57,57,57,,,,,,,,,,,,,,,,,,,,,,,,,,,,,,,,,,,,,,,,,,,,,,,,,,,,,,,,,644.3294893000002,644.8349089000003,644.8349089000003,645.5874747999987,645.5874747999987,646.0928817999993,646.0928817999993,646.9398098999991,646.9398098999991,None,num_4,0.27373739999893587,646.9398098999991,None,sad,0,Happy,647.2230560999992,None,None,647.2230560999992,None,,,,,,,,,,,,,,,,,,,,,,,,,,,,,,,,,,,,,,,,,,,,,,,,,,,,,28,001,0,27,350,375,2022_Oct_24_1319,Experiment,2021.1.4,360.63717377175476,
images\S1_F_H_03.png,images\S1_F_H_03_scrambled.png,1,happy,30,female,6,,303,on,2,0.5,0.75,0.5,0.883,3,302,3,1,1,2,2,32,128,166,,,,,,0,58,58,58,,,,,,,,,,,,,,,,,,,,,,,,,,,,,,,,,,,,,,,,,,,,,,,,,,,,,,,,,647.273113199999,647.7784503999992,647.7784503999992,648.5281992,648.5281992,649.0308018999986,649.0308018999986,649.9167957999998,649.9167957999998,None,num_6,0.42441000000144413,649.9167957999998,None,happy,0,Happy,650.3554445000001,None,None,650.3554445000001,None,,,,,,,,,,,,,,,,,,,,,,,,,,,,,,,,,,,,,,,,,,,,,,,,,,,,,28,001,0,27,350,375,2022_Oct_24_1319,Experiment,2021.1.4,360.63717377175476,
images\S4_M_S_01.png,images\S4_M_S_01_scrambled.png,4,sad,-10,male,3,,502,off,1,0.5,0.75,0.5,0.854,3,501,1,1,1,0,0,0,0,3,,,,,,0,59,59,59,,,,,,,,,,,,,,,,,,,,,,,,,,,,,,,,,,,,,,,,,,,,,,,,,,,,,,,,,650.4026224999998,650.9080493000001,650.9080493000001,651.6577995999996,651.6577995999996,652.1632286999993,652.1632286999993,653.0240304999988,653.0240304999988,None,num_4,0.3652417000012065,653.0240304999988,None,sad,0,Sad,653.4045195999998,None,None,653.4045195999998,None,,,,,,,,,,,,,,,,,,,,,,,,,,,,,,,,,,,,,,,,,,,,,,,,,,,,,28,001,0,27,350,375,2022_Oct_24_1319,Experiment,2021.1.4,360.63717377175476,
images\S9_F_S_02.png,images\S9_F_S_02_scrambled.png,9,sad,-20,female,2,,53,off,1,0.5,0.75,0.5,0.871,3,52,2,1,1,0,0,0,0,2,,,,,,0,60,60,60,,,,,,,,,,,,,,,,,,,,,,,,,,,,,,,,,,,,,,,,,,,,,,,,,,,,,,,,,653.4517042999996,653.9572088999994,653.9572088999994,654.7124888999988,654.7124888999988,655.2178573000001,655.2178573000001,656.0926189000002,656.0926189000002,None,num_4,0.22491120000086084,656.0926189000002,None,sad,0,Sad,656.3370934999998,None,None,656.3370934999998,None,,,,,,,,,,,,,,,,,,,,,,,,,,,,,,,,,,,,,,,,,,,,,,,,,,,,,28,001,0,27,350,375,2022_Oct_24_1319,Experiment,2021.1.4,360.63717377175476,
images\S2_M_S_02.png,images\S2_M_S_02_scrambled.png,2,sad,-20,male,2,,551,on,2,0.5,0.75,0.5,0.773,3,550,1,1,2,2,2,32,128,162,,,,,,0,61,61,61,,,,,,,,,,,,,,,,,,,,,,,,,,,,,,,,,,,,,,,,,,,,,,,,,,,,,,,,,656.3868891000002,656.8895384999996,656.8895384999996,657.6422043999992,657.6422043999992,658.1475519999985,658.1475519999985,658.9223160000001,658.9223160000001,None,num_4,0.1949279000000388,658.9223160000001,None,sad,0,Sad,659.1305236999989,None,None,659.1305236999989,None,,,,,,,,,,,,,,,,,,,,,,,,,,,,,,,,,,,,,,,,,,,,,,,,,,,,,28,001,0,27,350,375,2022_Oct_24_1319,Experiment,2021.1.4,360.63717377175476,
images\S9_F_S_01.png,images\S9_F_S_01_scrambled.png,9,sad,-10,female,3,,292,off,1,0.5,0.75,0.5,0.821,3,291,1,1,1,0,0,0,0,3,,,,,,0,62,62,62,,,,,,,,,,,,,,,,,,,,,,,,,,,,,,,,,,,,,,,,,,,,,,,,,,,,,,,,,659.1776988999991,659.6831444999989,659.6831444999989,660.4384704999993,660.4384704999993,660.9382446,660.9382446,661.763030099999,661.763030099999,None,num_6,0.234585899999729,661.763030099999,None,happy,0,Sad,662.0101927999989,None,None,662.0101927999989,None,,,,,,,,,,,,,,,,,,,,,,,,,,,,,,,,,,,,,,,,,,,,,,,,,,,,,28,001,0,27,350,375,2022_Oct_24_1319,Experiment,2021.1.4,360.63717377175476,
images\S5_F_S_03.png,images\S5_F_S_03_scrambled.png,5,sad,-30,female,1,,330,on,2,0.5,0.75,0.5,0.788,3,329,1,1,1,2,2,32,128,161,,,,,,0,63,63,63,,,,,,,,,,,,,,,,,,,,,,,,,,,,,,,,,,,,,,,,,,,,,,,,,,,,,,,,,662.0684872000002,662.571230399999,662.571230399999,663.3236809999999,663.3236809999999,663.8290799999995,663.8290799999995,664.6204848999987,664.6204848999987,None,num_6,1.2407731000002968,664.6204848999987,None,happy,0,Sad,665.8700998999989,None,None,665.8700998999989,None,,,,,,,,,,,,,,,,,,,,,,,,,,,,,,,,,,,,,,,,,,,,,,,,,,,,,28,001,0,27,350,375,2022_Oct_24_1319,Experiment,2021.1.4,360.63717377175476,
images\S4_M_S_03.png,images\S4_M_S_03_scrambled.png,4,sad,-30,male,1,,324,on,2,0.5,0.75,0.5,0.865,3,323,2,1,2,2,2,32,128,161,,,,,,0,64,64,64,,,,,,,,,,,,,,,,,,,,,,,,,,,,,,,,,,,,,,,,,,,,,,,,,,,,,,,,,665.9200854999999,666.4226987999991,666.4226987999991,667.1724955999998,667.1724955999998,667.6779157000001,667.6779157000001,668.5470618999989,668.5470618999989,None,num_4,0.5621953000008943,668.5470618999989,None,sad,0,Sad,669.1330421999995,None,None,669.1330421999995,None,,,,,,,,,,,,,,,,,,,,,,,,,,,,,,,,,,,,,,,,,,,,,,,,,,,,,28,001,0,27,350,375,2022_Oct_24_1319,Experiment,2021.1.4,360.63717377175476,
images\S10_M_H_01.png,images\S10_M_H_01_scrambled.png,10,happy,10,male,4,,55,off,1,0.5,0.75,0.5,0.833,3,54,1,1,1,0,0,0,0,4,,,,,,0,65,65,65,,,,,,,,,,,,,,,,,,,,,,,,,,,,,,,,,,,,,,,,,,,,,,,,,,,,,,,,,669.1968442999987,669.6994902999995,669.6994902999995,670.4521377000001,670.4521377000001,670.9546656000002,670.9546656000002,671.7933130000001,671.7933130000001,None,num_6,0.3638492000009137,671.7933130000001,None,happy,0,Happy,672.1681898999988,None,None,672.1681898999988,None,,,,,,,,,,,,,,,,,,,,,,,,,,,,,,,,,,,,,,,,,,,,,,,,,,,,,28,001,0,27,350,375,2022_Oct_24_1319,Experiment,2021.1.4,360.63717377175476,
images\S2_M_H_01.png,images\S2_M_H_01_scrambled.png,2,happy,10,male,4,,127,off,1,0.5,0.75,0.5,0.751,3,126,2,1,2,0,0,0,0,4,,,,,,0,66,66,66,,,,,,,,,,,,,,,,,,,,,,,,,,,,,,,,,,,,,,,,,,,,,,,,,,,,,,,,,672.2153714999986,672.7208936999996,672.7208936999996,673.4733149999993,673.4733149999993,673.9787309000003,673.9787309000003,674.7340611,674.7340611,None,num_4,0.607508200000666,674.7340611,None,sad,0,Happy,675.3505271999998,None,None,675.3505271999998,None,,,,,,,,,,,,,,,,,,,,,,,,,,,,,,,,,,,,,,,,,,,,,,,,,,,,,28,001,0,27,350,375,2022_Oct_24_1319,Experiment,2021.1.4,360.63717377175476,
images\blank.jpg,images\blank.jpg,none,none,none,none,0,,605,on,2,0.5,0.75,0.5,0.94,0,604,1,1,1,3,3,48,192,240,,,,,,0,67,67,67,,,,,,,,,,,,,,,,,,,,,,,,,,,,,,,,,,,,,,,,,,,,,,,,,,,,,,,,,675.4340694000002,675.933657399999,675.933657399999,676.6863582999995,676.6863582999995,677.188834999999,677.188834999999,678.1302135999995,678.1302135999995,678.1302135999995,None,,678.1302135999995,None,miss,0,,681.1321251999987,None,None,681.1321251999987,None,,,,,,,,,,,,,,,,,,,,,,,,,,,,,,,,,,,,,,,,,,,,,,,,,,,,,28,001,0,27,350,375,2022_Oct_24_1319,Experiment,2021.1.4,360.63717377175476,
images\S5_F_S_02.png,images\S5_F_S_02_scrambled.png,5,sad,-20,female,2,,569,on,2,0.5,0.75,0.5,0.903,3,568,2,1,1,2,2,32,128,162,,,,,,0,68,68,68,,,,,,,,,,,,,,,,,,,,,,,,,,,,,,,,,,,,,,,,,,,,,,,,,,,,,,,,,681.2516622999992,681.7541275999993,681.7541275999993,682.5094479999989,682.5094479999989,683.0092619999996,683.0092619999996,683.9145665999986,683.9145665999986,None,num_6,0.2109650000002148,683.9145665999986,681.2516622999992,happy,0,Sad,684.1339126999987,None,None,684.1339126999987,None,,,,,,,,,,,,,,,,,,,,,,,,,,,,,,,,,,,,,,,,,,,,,,,,,,,,,28,001,0,27,350,375,2022_Oct_24_1319,Experiment,2021.1.4,360.63717377175476,
images\S8_M_S_02.png,images\S8_M_S_02_scrambled.png,8,sad,-20,male,2,,167,off,1,0.5,0.75,0.5,0.855,3,166,1,1,2,0,0,0,0,2,,,,,,0,69,69,69,,,,,,,,,,,,,,,,,,,,,,,,,,,,,,,,,,,,,,,,,,,,,,,,,,,,,,,,,684.1811347000003,684.6809825,684.6809825,685.430767599999,685.430767599999,685.9362824999989,685.9362824999989,686.7971269999998,686.7971269999998,None,num_4,1.0320055000011052,686.7971269999998,None,sad,0,Sad,687.8439386000001,None,None,687.8439386000001,None,,,,,,,,,,,,,,,,,,,,,,,,,,,,,,,,,,,,,,,,,,,,,,,,,,,,,28,001,0,27,350,375,2022_Oct_24_1319,Experiment,2021.1.4,360.63717377175476,
images\S10_M_S_02.png,images\S10_M_S_02_scrambled.png,10,sad,-20,male,2,,59,off,1,0.5,0.75,0.5,0.81,3,58,2,1,3,0,0,0,0,2,,,,,,0,70,70,70,,,,,,,,,,,,,,,,,,,,,,,,,,,,,,,,,,,,,,,,,,,,,,,,,,,,,,,,,687.8911103999999,688.3909540999994,688.3909540999994,689.1407791000001,689.1407791000001,689.6433848999986,689.6433848999986,690.4597613999995,690.4597613999995,None,num_6,0.23349640000014915,690.4597613999995,None,happy,0,Sad,690.6986319999992,None,None,690.6986319999992,None,,,,,,,,,,,,,,,,,,,,,,,,,,,,,,,,,,,,,,,,,,,,,,,,,,,,,28,001,0,27,350,375,2022_Oct_24_1319,Experiment,2021.1.4,360.63717377175476,
images\S3_F_H_03.png,images\S3_F_H_03_scrambled.png,3,happy,30,female,6,,315,on,2,0.5,0.75,0.5,0.752,3,314,1,1,1,2,2,32,128,166,,,,,,0,71,71,71,,,,,,,,,,,,,,,,,,,,,,,,,,,,,,,,,,,,,,,,,,,,,,,,,,,,,,,,,690.7485691999991,691.2539899000003,691.2539899000003,692.0065385999987,692.0065385999987,692.5091604999998,692.5091604999998,693.2616754999999,693.2616754999999,None,num_6,0.5994624999984808,693.2616754999999,None,happy,0,Happy,693.8727023999992,None,None,693.8727023999992,None,,,,,,,,,,,,,,,,,,,,,,,,,,,,,,,,,,,,,,,,,,,,,,,,,,,,,28,001,0,27,350,375,2022_Oct_24_1319,Experiment,2021.1.4,360.63717377175476,
images\S10_M_S_03.png,images\S10_M_S_03_scrambled.png,10,sad,-30,male,1,,180,off,1,0.5,0.75,0.5,0.904,3,179,1,1,1,0,0,0,0,1,,,,,,0,72,72,72,,,,,,,,,,,,,,,,,,,,,,,,,,,,,,,,,,,,,,,,,,,,,,,,,,,,,,,,,693.9198099999994,694.4225233999987,694.4225233999987,695.1722221999989,695.1722221999989,695.6776504999998,695.6776504999998,696.5856647,696.5856647,None,num_4,0.5077184999991005,696.5856647,None,sad,0,Sad,697.107752699999,None,None,697.107752699999,None,,,,,,,,,,,,,,,,,,,,,,,,,,,,,,,,,,,,,,,,,,,,,,,,,,,,,28,001,0,27,350,375,2022_Oct_24_1319,Experiment,2021.1.4,360.63717377175476,
images\S3_F_S_02.png,images\S3_F_S_02_scrambled.png,3,sad,-20,female,2,,437,on,2,0.5,0.75,0.5,0.816,3,436,1,1,1,2,2,32,128,162,,,,,,0,73,73,73,,,,,,,,,,,,,,,,,,,,,,,,,,,,,,,,,,,,,,,,,,,,,,,,,,,,,,,,,697.1549414000001,697.6576114,697.6576114,698.4129173000001,698.4129173000001,698.9183131999998,698.9183131999998,699.7375930999988,699.7375930999988,None,num_4,0.41982549999920593,699.7375930999988,None,sad,0,Sad,700.1706963999997,None,None,700.1706963999997,None,,,,,,,,,,,,,,,,,,,,,,,,,,,,,,,,,,,,,,,,,,,,,,,,,,,,,28,001,0,27,350,375,2022_Oct_24_1319,Experiment,2021.1.4,360.63717377175476,
images\S1_F_H_01.png,images\S1_F_H_01_scrambled.png,1,happy,10,female,4,,301,on,2,0.5,0.75,0.5,0.925,3,300,2,1,1,2,2,32,128,164,,,,,,0,74,74,74,,,,,,,,,,,,,,,,,,,,,,,,,,,,,,,,,,,,,,,,,,,,,,,,,,,,,,,,,700.2178793000003,700.7205077999988,700.7205077999988,701.4730843999987,701.4730843999987,701.9784749999999,701.9784749999999,702.9059765000002,702.9059765000002,None,num_6,0.31518599999981234,702.9059765000002,None,happy,0,Happy,703.2337528999989,None,None,703.2337528999989,None,,,,,,,,,,,,,,,,,,,,,,,,,,,,,,,,,,,,,,,,,,,,,,,,,,,,,28,001,0,27,350,375,2022_Oct_24_1319,Experiment,2021.1.4,360.63717377175476,
images\S5_F_S_03.png,images\S5_F_S_03_scrambled.png,5,sad,-30,female,1,,390,off,1,0.5,0.75,0.5,0.927,3,389,1,1,1,0,0,0,0,1,,,,,,0,75,75,75,,,,,,,,,,,,,,,,,,,,,,,,,,,,,,,,,,,,,,,,,,,,,,,,,,,,,,,,,703.280815099999,703.7806574999995,703.7806574999995,704.5332182000002,704.5332182000002,705.0358343999997,705.0358343999997,705.9661289999985,705.9661289999985,None,num_4,0.3832280000005994,705.9661289999985,None,sad,0,Sad,706.3632345999987,None,None,706.3632345999987,None,,,,,,,,,,,,,,,,,,,,,,,,,,,,,,,,,,,,,,,,,,,,,,,,,,,,,28,001,0,27,350,375,2022_Oct_24_1319,Experiment,2021.1.4,360.63717377175476,
images\S10_M_H_02.png,images\S10_M_H_02_scrambled.png,10,happy,20,male,5,,176,off,1,0.5,0.75,0.5,0.765,3,175,2,1,1,0,0,0,0,5,,,,,,0,76,76,76,,,,,,,,,,,,,,,,,,,,,,,,,,,,,,,,,,,,,,,,,,,,,,,,,,,,,,,,,706.4104248999993,706.9130772999997,706.9130772999997,707.6683682000003,707.6683682000003,708.1737885000002,708.1737885000002,708.9430154999991,708.9430154999991,None,num_6,0.57417390000046,708.9430154999991,None,happy,0,Happy,709.5317065999999,None,None,709.5317065999999,None,,,,,,,,,,,,,,,,,,,,,,,,,,,,,,,,,,,,,,,,,,,,,,,,,,,,,28,001,0,27,350,375,2022_Oct_24_1319,Experiment,2021.1.4,360.63717377175476,
images\S2_M_S_03.png,images\S2_M_S_03_scrambled.png,2,sad,-30,male,1,,492,off,1,0.5,0.75,0.5,0.886,3,491,3,1,1,0,0,0,0,1,,,,,,0,77,77,77,,,,,,,,,,,,,,,,,,,,,,,,,,,,,,,,,,,,,,,,,,,,,,,,,,,,,,,,,709.5788861000001,710.0843107000001,710.0843107000001,710.836853499999,710.836853499999,711.3423291999989,711.3423291999989,712.2336691,712.2336691,None,num_4,0.21225889999914216,712.2336691,None,sad,0,Sad,712.4725153999992,None,None,712.4725153999992,None,,,,,,,,,,,,,,,,,,,,,,,,,,,,,,,,,,,,,,,,,,,,,,,,,,,,,28,001,0,27,350,375,2022_Oct_24_1319,Experiment,2021.1.4,360.63717377175476,
images\S8_M_H_03.png,images\S8_M_H_03_scrambled.png,8,happy,30,male,6,,105,on,2,0.5,0.75,0.5,0.948,3,104,1,1,1,2,2,32,128,166,,,,,,0,78,78,78,,,,,,,,,,,,,,,,,,,,,,,,,,,,,,,,,,,,,,,,,,,,,,,,,,,,,,,,,712.5334708999999,713.0389620999995,713.0389620999995,713.7942480000002,713.7942480000002,714.2970019999993,714.2970019999993,715.2493801,715.2493801,None,num_6,0.4038841000001412,715.2493801,None,happy,0,Happy,715.6659355000003,None,None,715.6659355000003,None,,,,,,,,,,,,,,,,,,,,,,,,,,,,,,,,,,,,,,,,,,,,,,,,,,,,,28,001,0,27,350,375,2022_Oct_24_1319,Experiment,2021.1.4,360.63717377175476,
images\S6_M_S_01.png,images\S6_M_S_01_scrambled.png,6,sad,-10,male,3,,574,on,2,0.5,0.75,0.5,0.943,3,573,2,1,1,2,2,32,128,163,,,,,,0,79,79,79,,,,,,,,,,,,,,,,,,,,,,,,,,,,,,,,,,,,,,,,,,,,,,,,,,,,,,,,,715.713115999999,716.2185439999994,716.2185439999994,716.9711850999993,716.9711850999993,717.4709461999992,717.4709461999992,718.4178971999991,718.4178971999991,None,num_4,0.4678292999997211,718.4178971999991,None,sad,0,Sad,718.9121961999994,None,None,718.9121961999994,None,,,,,,,,,,,,,,,,,,,,,,,,,,,,,,,,,,,,,,,,,,,,,,,,,,,,,28,001,0,27,350,375,2022_Oct_24_1319,Experiment,2021.1.4,360.63717377175476,
images\S3_F_H_01.png,images\S3_F_H_01_scrambled.png,3,happy,10,female,4,,313,on,2,0.5,0.75,0.5,0.757,3,312,3,1,1,2,2,32,128,164,,,,,,0,80,80,80,,,,,,,,,,,,,,,,,,,,,,,,,,,,,,,,,,,,,,,,,,,,,,,,,,,,,,,,,718.9648940999996,719.4675398999989,719.4675398999989,720.2172750999998,720.2172750999998,720.722714399999,720.722714399999,721.4864374999997,721.4864374999997,None,num_6,0.42290890000003856,721.4864374999997,None,happy,0,Happy,721.9362702000002,None,None,721.9362702000002,None,,,,,,,,,,,,,,,,,,,,,,,,,,,,,,,,,,,,,,,,,,,,,,,,,,,,,28,001,0,27,350,375,2022_Oct_24_1319,Experiment,2021.1.4,360.63717377175476,
images\S2_M_S_03.png,images\S2_M_S_03_scrambled.png,2,sad,-30,male,1,,312,on,2,0.5,0.75,0.5,0.95,3,311,4,1,1,2,2,32,128,161,,,,,,0,81,81,81,,,,,,,,,,,,,,,,,,,,,,,,,,,,,,,,,,,,,,,,,,,,,,,,,,,,,,,,,721.9889578000002,722.4917151999998,722.4917151999998,723.2413483,723.2413483,723.7412127999996,723.7412127999996,724.6937178999997,724.6937178999997,None,num_4,0.21538809999947262,724.6937178999997,None,sad,0,Sad,724.9242067999995,None,None,724.9242067999995,None,,,,,,,,,,,,,,,,,,,,,,,,,,,,,,,,,,,,,,,,,,,,,,,,,,,,,28,001,0,27,350,375,2022_Oct_24_1319,Experiment,2021.1.4,360.63717377175476,
images\S8_M_H_03.png,images\S8_M_H_03_scrambled.png,8,happy,30,male,6,,585,on,2,0.5,0.75,0.5,0.869,3,584,5,1,1,2,2,32,128,166,,,,,,0,82,82,82,,,,,,,,,,,,,,,,,,,,,,,,,,,,,,,,,,,,,,,,,,,,,,,,,,,,,,,,,724.9713812999998,725.4740242999997,725.4740242999997,726.2266989999989,726.2266989999989,726.7320825999996,726.7320825999996,727.603941899999,727.603941899999,None,num_6,0.20934369999849878,727.603941899999,None,happy,0,Happy,727.826069599999,None,None,727.826069599999,None,,,,,,,,,,,,,,,,,,,,,,,,,,,,,,,,,,,,,,,,,,,,,,,,,,,,,28,001,0,27,350,375,2022_Oct_24_1319,Experiment,2021.1.4,360.63717377175476,
images\S2_M_H_03.png,images\S2_M_H_03_scrambled.png,2,happy,30,male,6,,309,on,2,0.5,0.75,0.5,0.933,3,308,6,1,2,2,2,32,128,166,,,,,,0,83,83,83,,,,,,,,,,,,,,,,,,,,,,,,,,,,,,,,,,,,,,,,,,,,,,,,,,,,,,,,,727.8732676,728.3731209999987,728.3731209999987,729.1228914000003,729.1228914000003,729.6283210000001,729.6283210000001,730.5613321000001,730.5613321000001,None,num_6,0.260375899999417,730.5613321000001,None,happy,0,Happy,730.8420124999989,None,None,730.8420124999989,None,,,,,,,,,,,,,,,,,,,,,,,,,,,,,,,,,,,,,,,,,,,,,,,,,,,,,28,001,0,27,350,375,2022_Oct_24_1319,Experiment,2021.1.4,360.63717377175476,
images\S3_F_S_01.png,images\S3_F_S_01_scrambled.png,3,sad,-10,female,3,,436,on,2,0.5,0.75,0.5,0.845,3,435,7,1,1,2,2,32,128,163,,,,,,0,84,84,84,,,,,,,,,,,,,,,,,,,,,,,,,,,,,,,,,,,,,,,,,,,,,,,,,,,,,,,,,730.891776299999,731.3944300999992,731.3944300999992,732.1470970999999,732.1470970999999,732.6495725999994,732.6495725999994,733.4966864999988,733.4966864999988,None,num_4,0.22900830000071437,733.4966864999988,None,sad,0,Sad,733.7521865000002,None,None,733.7521865000002,None,,,,,,,,,,,,,,,,,,,,,,,,,,,,,,,,,,,,,,,,,,,,,,,,,,,,,28,001,0,27,350,375,2022_Oct_24_1319,Experiment,2021.1.4,360.63717377175476,
images\S6_M_S_02.png,images\S6_M_S_02_scrambled.png,6,sad,-20,male,2,,155,off,1,0.5,0.75,0.5,0.773,3,154,1,1,1,0,0,0,0,2,,,,,,0,85,85,85,,,,,,,,,,,,,,,,,,,,,,,,,,,,,,,,,,,,,,,,,,,,,,,,,,,,,,,,,733.8047817999995,734.3074412999995,734.3074412999995,735.057200199999,735.057200199999,735.5626214999993,735.5626214999993,736.3429347000001,736.3429347000001,None,num_4,0.2861818999990646,736.3429347000001,None,sad,0,Sad,736.6567737999994,None,None,736.6567737999994,None,,,,,,,,,,,,,,,,,,,,,,,,,,,,,,,,,,,,,,,,,,,,,,,,,,,,,28,001,0,27,350,375,2022_Oct_24_1319,Experiment,2021.1.4,360.63717377175476,
images\S6_M_H_02.png,images\S6_M_H_02_scrambled.png,6,happy,20,male,5,,212,on,2,0.5,0.75,0.5,0.752,3,211,1,2,1,2,2,32,128,165,,,,,,0,86,86,86,,,,,,,,,,,,,,,,,,,,,,,,,,,,,,,,,,,,,,,,,,,,,,,,,,,,,,,,,736.7122256999992,737.2176615999997,737.2176615999997,737.9729824999995,737.9729824999995,738.4727978999999,738.4727978999999,739.2281208999993,739.2281208999993,None,num_6,0.9532924000013736,739.2281208999993,None,happy,0,Happy,740.1945157999991,None,None,740.1945157999991,None,,,,,,,,,,,,,,,,,,,,,,,,,,,,,,,,,,,,,,,,,,,,,,,,,,,,,28,001,0,27,350,375,2022_Oct_24_1319,Experiment,2021.1.4,360.63717377175476,
images\S7_F_S_03.png,images\S7_F_S_03_scrambled.png,7,sad,-30,female,1,,42,off,1,0.5,0.75,0.5,0.789,3,41,1,1,1,0,0,0,0,1,,,,,,0,87,87,87,,,,,,,,,,,,,,,,,,,,,,,,,,,,,,,,,,,,,,,,,,,,,,,,,,,,,,,,,740.2416972999999,740.7443332999992,740.7443332999992,741.4969900999986,741.4969900999986,742.0023490999993,742.0023490999993,742.7937165999992,742.7937165999992,None,num_4,0.22772409999925003,742.7937165999992,None,sad,0,Sad,743.0464534999995,None,None,743.0464534999995,None,,,,,,,,,,,,,,,,,,,,,,,,,,,,,,,,,,,,,,,,,,,,,,,,,,,,,28,001,0,27,350,375,2022_Oct_24_1319,Experiment,2021.1.4,360.63717377175476,
images\S10_M_H_02.png,images\S10_M_H_02_scrambled.png,10,happy,20,male,5,,116,on,2,0.5,0.75,0.5,0.778,3,115,1,1,1,2,2,32,128,165,,,,,,0,88,88,88,,,,,,,,,,,,,,,,,,,,,,,,,,,,,,,,,,,,,,,,,,,,,,,,,,,,,,,,,743.0991426,743.6017916000001,743.6017916000001,744.3543393,744.3543393,744.8569588999999,744.8569588999999,745.6373509999994,745.6373509999994,None,num_6,0.45578150000073947,745.6373509999994,None,happy,0,Happy,746.1065859000001,None,None,746.1065859000001,None,,,,,,,,,,,,,,,,,,,,,,,,,,,,,,,,,,,,,,,,,,,,,,,,,,,,,28,001,0,27,350,375,2022_Oct_24_1319,Experiment,2021.1.4,360.63717377175476,
images\S8_M_S_01.png,images\S8_M_S_01_scrambled.png,8,sad,-10,male,3,,346,on,2,0.5,0.75,0.5,0.773,3,345,2,1,1,2,2,32,128,163,,,,,,0,89,89,89,,,,,,,,,,,,,,,,,,,,,,,,,,,,,,,,,,,,,,,,,,,,,,,,,,,,,,,,,746.1537673999992,746.659158299999,746.659158299999,747.4117071000001,747.4117071000001,747.9171925999999,747.9171925999999,748.6946666999993,748.6946666999993,None,num_4,0.19842709999829822,748.6946666999993,None,sad,0,Sad,748.9085337999996,None,None,748.9085337999996,None,,,,,,,,,,,,,,,,,,,,,,,,,,,,,,,,,,,,,,,,,,,,,,,,,,,,,28,001,0,27,350,375,2022_Oct_24_1319,Experiment,2021.1.4,360.63717377175476,
images\S7_F_S_02.png,images\S7_F_S_02_scrambled.png,7,sad,-20,female,2,,521,off,1,0.5,0.75,0.5,0.814,3,520,1,1,1,0,0,0,0,2,,,,,,0,90,90,90,,,,,,,,,,,,,,,,,,,,,,,,,,,,,,,,,,,,,,,,,,,,,,,,,,,,,,,,,748.9556811000002,749.4583430000002,749.4583430000002,750.2136535999998,750.2136535999998,750.7190572999989,750.7190572999989,751.5382563999992,751.5382563999992,None,num_4,0.1948948000008386,751.5382563999992,None,sad,0,Sad,751.7465299999996,None,None,751.7465299999996,None,,,,,,,,,,,,,,,,,,,,,,,,,,,,,,,,,,,,,,,,,,,,,,,,,,,,,28,001,0,27,350,375,2022_Oct_24_1319,Experiment,2021.1.4,360.63717377175476,
images\S6_M_H_01.png,images\S6_M_H_01_scrambled.png,6,happy,10,male,4,,31,off,1,0.5,0.75,0.5,0.773,3,30,2,1,1,0,0,0,0,4,,,,,,0,91,91,91,,,,,,,,,,,,,,,,,,,,,,,,,,,,,,,,,,,,,,,,,,,,,,,,,,,,,,,,,751.7964677999989,752.2963162999986,752.2963162999986,753.0488950999988,753.0488950999988,753.5542840999988,753.5542840999988,754.3290486999995,754.3290486999995,None,num_4,0.22821050000129617,754.3290486999995,None,sad,0,Happy,754.5651053999986,None,None,754.5651053999986,None,,,,,,,,,,,,,,,,,,,,,,,,,,,,,,,,,,,,,,,,,,,,,,,,,,,,,28,001,0,27,350,375,2022_Oct_24_1319,Experiment,2021.1.4,360.63717377175476,
images\S3_F_H_02.png,images\S3_F_H_02_scrambled.png,3,happy,20,female,5,,14,off,1,0.5,0.75,0.5,0.766,3,13,3,1,1,0,0,0,0,5,,,,,,0,92,92,92,,,,,,,,,,,,,,,,,,,,,,,,,,,,,,,,,,,,,,,,,,,,,,,,,,,,,,,,,754.6150839000002,755.1177271999986,755.1177271999986,755.8730259999993,755.8730259999993,756.3756586999989,756.3756586999989,757.1476538999996,757.1476538999996,None,num_6,0.8654083000001265,757.1476538999996,None,happy,0,Happy,758.0251339999987,None,None,758.0251339999987,None,,,,,,,,,,,,,,,,,,,,,,,,,,,,,,,,,,,,,,,,,,,,,,,,,,,,,28,001,0,27,350,375,2022_Oct_24_1319,Experiment,2021.1.4,360.63717377175476,
images\S10_M_H_03.png,images\S10_M_H_03_scrambled.png,10,happy,30,male,6,,177,off,1,0.5,0.75,0.5,0.833,3,176,4,1,1,0,0,0,0,6,,,,,,0,93,93,93,,,,,,,,,,,,,,,,,,,,,,,,,,,,,,,,,,,,,,,,,,,,,,,,,,,,,,,,,758.0723183999999,758.5777687999998,758.5777687999998,759.3330859999987,759.3330859999987,759.8357120000001,759.8357120000001,760.6715253000002,760.6715253000002,None,num_6,0.5101573000010831,760.6715253000002,None,happy,0,Happy,761.1937160999997,None,None,761.1937160999997,None,,,,,,,,,,,,,,,,,,,,,,,,,,,,,,,,,,,,,,,,,,,,,,,,,,,,,28,001,0,27,350,375,2022_Oct_24_1319,Experiment,2021.1.4,360.63717377175476,
images\S4_M_H_02.png,images\S4_M_H_02_scrambled.png,4,happy,20,male,5,,440,on,2,0.5,0.75,0.5,0.851,3,439,1,1,1,2,2,32,128,165,,,,,,0,94,94,94,,,,,,,,,,,,,,,,,,,,,,,,,,,,,,,,,,,,,,,,,,,,,,,,,,,,,,,,,761.2407951999994,761.7406474999989,761.7406474999989,762.4904050999994,762.4904050999994,762.9958432000003,762.9958432000003,763.8511440999991,763.8511440999991,None,num_4,0.19399199999861594,763.8511440999991,None,sad,0,Happy,764.0538656999993,None,None,764.0538656999993,None,,,,,,,,,,,,,,,,,,,,,,,,,,,,,,,,,,,,,,,,,,,,,,,,,,,,,28,001,0,27,350,375,2022_Oct_24_1319,Experiment,2021.1.4,360.63717377175476,
images\S10_M_H_02.png,images\S10_M_H_02_scrambled.png,10,happy,20,male,5,,416,off,1,0.5,0.75,0.5,0.827,3,415,1,1,2,0,0,0,0,5,,,,,,0,95,95,95,,,,,,,,,,,,,,,,,,,,,,,,,,,,,,,,,,,,,,,,,,,,,,,,,,,,,,,,,764.1038074999997,764.6065636000003,764.6065636000003,765.3589689,765.3589689,765.8617250999996,765.8617250999996,766.6920195999992,766.6920195999992,None,num_6,0.19322960000135936,766.6920195999992,None,happy,0,Happy,766.9001921999999,None,None,766.9001921999999,None,,,,,,,,,,,,,,,,,,,,,,,,,,,,,,,,,,,,,,,,,,,,,,,,,,,,,28,001,0,27,350,375,2022_Oct_24_1319,Experiment,2021.1.4,360.63717377175476,
images\S10_M_S_03.png,images\S10_M_S_03_scrambled.png,10,sad,-30,male,1,,300,off,1,0.5,0.75,0.5,0.874,3,299,2,2,1,0,0,0,0,1,,,,,,0,96,96,96,,,,,,,,,,,,,,,,,,,,,,,,,,,,,,,,,,,,,,,,,,,,,,,,,,,,,,,,,766.9473749999997,767.4528360999993,767.4528360999993,768.205329299999,768.205329299999,768.7079383,768.7079383,769.5854579999996,769.5854579999996,None,num_4,0.2433987000003981,769.5854579999996,None,sad,0,Sad,769.8437381999985,None,None,769.8437381999985,None,,,,,,,,,,,,,,,,,,,,,,,,,,,,,,,,,,,,,,,,,,,,,,,,,,,,,28,001,0,27,350,375,2022_Oct_24_1319,Experiment,2021.1.4,360.63717377175476,
images\S4_M_H_03.png,images\S4_M_H_03_scrambled.png,4,happy,30,male,6,,201,on,2,0.5,0.75,0.5,0.903,3,200,1,1,1,2,2,32,128,166,,,,,,0,97,97,97,,,,,,,,,,,,,,,,,,,,,,,,,,,,,,,,,,,,,,,,,,,,,,,,,,,,,,,,,769.8909218999997,770.3935382999989,770.3935382999989,771.146087699999,771.146087699999,771.6487359999992,771.6487359999992,772.5540099999998,772.5540099999998,None,num_6,0.25903289999951085,772.5540099999998,None,happy,0,Happy,772.8261697999998,None,None,772.8261697999998,None,,,,,,,,,,,,,,,,,,,,,,,,,,,,,,,,,,,,,,,,,,,,,,,,,,,,,28,001,0,27,350,375,2022_Oct_24_1319,Experiment,2021.1.4,360.63717377175476,
images\S3_F_S_01.png,images\S3_F_S_01_scrambled.png,3,sad,-10,female,3,,76,on,2,0.5,0.75,0.5,0.912,3,75,2,1,1,2,2,32,128,163,,,,,,0,98,98,98,,,,,,,,,,,,,,,,,,,,,,,,,,,,,,,,,,,,,,,,,,,,,,,,,,,,,,,,,772.876105899999,773.3787205999997,773.3787205999997,774.1284903999986,774.1284903999986,774.6311651999986,774.6311651999986,775.5475840999989,775.5475840999989,None,num_4,0.20982880000156,775.5475840999989,None,sad,0,Sad,775.7753142999998,None,None,775.7753142999998,None,,,,,,,,,,,,,,,,,,,,,,,,,,,,,,,,,,,,,,,,,,,,,,,,,,,,,28,001,0,27,350,375,2022_Oct_24_1319,Experiment,2021.1.4,360.63717377175476,
images\S1_F_S_03.png,images\S1_F_S_03_scrambled.png,1,sad,-30,female,1,,546,on,2,0.5,0.75,0.5,0.825,3,545,3,1,1,2,2,32,128,161,,,,,,0,99,99,99,,,,,,,,,,,,,,,,,,,,,,,,,,,,,,,,,,,,,,,,,,,,,,,,,,,,,,,,,775.8252051999989,776.3278633999998,776.3278633999998,777.0775980999988,777.0775980999988,777.5774698999994,777.5774698999994,778.4077891999987,778.4077891999987,None,num_4,0.26987069999995583,778.4077891999987,None,sad,0,Sad,778.7021521999999,None,None,778.7021521999999,None,,,,,,,,,,,,,,,,,,,,,,,,,,,,,,,,,,,,,,,,,,,,,,,,,,,,,28,001,0,27,350,375,2022_Oct_24_1319,Experiment,2021.1.4,360.63717377175476,
images\S4_M_S_01.png,images\S4_M_S_01_scrambled.png,4,sad,-10,male,3,,382,off,1,0.5,0.75,0.5,0.809,3,381,1,1,1,0,0,0,0,3,,,,,,0,100,100,100,,,,,,,,,,,,,,,,,,,,,,,,,,,,,,,,,,,,,,,,,,,,,,,,,,,,,,,,,778.7548608999987,779.2602743999996,779.2602743999996,780.0128520999988,780.0128520999988,780.5154337000004,780.5154337000004,781.3264185999997,781.3264185999997,None,num_4,0.318797199999608,781.3264185999997,None,sad,0,Sad,781.6679439999992,None,None,781.6679439999992,None,,,,,,,,,,,,,,,,,,,,,,,,,,,,,,,,,,,,,,,,,,,,,,,,,,,,,28,001,0,27,350,375,2022_Oct_24_1319,Experiment,2021.1.4,360.63717377175476,
images\blank.jpg,images\blank.jpg,none,none,none,none,0,,633,on,2,0.5,0.75,0.5,0.918,0,632,1,1,1,3,3,48,192,240,,,,,,0,101,101,101,,,,,,,,,,,,,,,,,,,,,,,,,,,,,,,,,,,,,,,,,,,,,,,,,,,,,,,,,781.7680119999986,782.2676641999988,782.2676641999988,783.0202312000001,783.0202312000001,783.5228478999998,783.5228478999998,784.4476044999992,784.4476044999992,784.4476044999992,None,,784.4476044999992,None,miss,0,,787.4494840999992,None,None,787.4494840999992,None,,,,,,,,,,,,,,,,,,,,,,,,,,,,,,,,,,,,,,,,,,,,,,,,,,,,,28,001,0,27,350,375,2022_Oct_24_1319,Experiment,2021.1.4,360.63717377175476,
images\S8_M_S_03.png,images\S8_M_S_03_scrambled.png,8,sad,-30,male,1,,528,off,1,0.5,0.75,0.5,0.804,3,527,1,1,1,0,0,0,0,1,,,,,,0,102,102,102,,,,,,,,,,,,,,,,,,,,,,,,,,,,,,,,,,,,,,,,,,,,,,,,,,,,,,,,,787.5691248000003,788.0714556999992,788.0714556999992,788.8240081000004,788.8240081000004,789.3267200999999,789.3267200999999,790.1375404999999,790.1375404999999,None,num_4,0.18792340000072727,790.1375404999999,787.5691248000003,sad,0,Sad,790.345801799999,None,None,790.345801799999,None,,,,,,,,,,,,,,,,,,,,,,,,,,,,,,,,,,,,,,,,,,,,,,,,,,,,,28,001,0,27,350,375,2022_Oct_24_1319,Experiment,2021.1.4,360.63717377175476,
images\S1_F_H_03.png,images\S1_F_H_03_scrambled.png,1,happy,30,female,6,,543,on,2,0.5,0.75,0.5,0.848,3,542,1,1,1,2,2,32,128,166,,,,,,0,103,103,103,,,,,,,,,,,,,,,,,,,,,,,,,,,,,,,,,,,,,,,,,,,,,,,,,,,,,,,,,790.392945399999,790.8955810999996,790.8955810999996,791.6481122999994,791.6481122999994,792.1535588999996,792.1535588999996,793.0088404999988,793.0088404999988,None,num_6,1.2283384000002115,793.0088404999988,None,happy,0,Happy,794.2529041999998,None,None,794.2529041999998,None,,,,,,,,,,,,,,,,,,,,,,,,,,,,,,,,,,,,,,,,,,,,,,,,,,,,,28,001,0,27,350,375,2022_Oct_24_1319,Experiment,2021.1.4,360.63717377175476,
images\S1_F_H_02.png,images\S1_F_H_02_scrambled.png,1,happy,20,female,5,,302,on,2,0.5,0.75,0.5,0.946,3,301,2,2,1,2,2,32,128,165,,,,,,0,104,104,104,,,,,,,,,,,,,,,,,,,,,,,,,,,,,,,,,,,,,,,,,,,,,,,,,,,,,,,,,794.3000862999997,794.8054928999991,794.8054928999991,795.5552663999988,795.5552663999988,796.0578741999998,796.0578741999998,797.0076253999996,797.0076253999996,None,num_6,0.5416212999989511,797.0076253999996,None,happy,0,Happy,797.5797351000001,None,None,797.5797351000001,None,,,,,,,,,,,,,,,,,,,,,,,,,,,,,,,,,,,,,,,,,,,,,,,,,,,,,28,001,0,27,350,375,2022_Oct_24_1319,Experiment,2021.1.4,360.63717377175476,
images\S7_F_S_03.png,images\S7_F_S_03_scrambled.png,7,sad,-30,female,1,,342,on,2,0.5,0.75,0.5,0.867,3,341,3,1,1,2,2,32,128,161,,,,,,0,105,105,105,,,,,,,,,,,,,,,,,,,,,,,,,,,,,,,,,,,,,,,,,,,,,,,,,,,,,,,,,797.6323950999995,798.1350124,798.1350124,798.8875706999988,798.8875706999988,799.3930160999989,799.3930160999989,800.2622663000002,800.2622663000002,None,num_4,0.24724170000081358,800.2622663000002,None,sad,0,Sad,800.5231529999993,None,None,800.5231529999993,None,,,,,,,,,,,,,,,,,,,,,,,,,,,,,,,,,,,,,,,,,,,,,,,,,,,,,28,001,0,27,350,375,2022_Oct_24_1319,Experiment,2021.1.4,360.63717377175476,
images\S8_M_H_03.png,images\S8_M_H_03_scrambled.png,8,happy,30,male,6,,285,off,1,0.5,0.75,0.5,0.905,3,284,1,1,1,0,0,0,0,6,,,,,,0,106,106,106,,,,,,,,,,,,,,,,,,,,,,,,,,,,,,,,,,,,,,,,,,,,,,,,,,,,,,,,,800.5703801999989,801.0757826999998,801.0757826999998,801.8255926999991,801.8255926999991,802.3282113999994,802.3282113999994,803.2390326999994,803.2390326999994,None,num_6,0.21408490000067104,803.2390326999994,None,happy,0,Happy,803.4639753000002,None,None,803.4639753000002,None,,,,,,,,,,,,,,,,,,,,,,,,,,,,,,,,,,,,,,,,,,,,,,,,,,,,,28,001,0,27,350,375,2022_Oct_24_1319,Experiment,2021.1.4,360.63717377175476,
images\S9_F_H_01.png,images\S9_F_H_01_scrambled.png,9,happy,10,female,4,,109,on,2,0.5,0.75,0.5,0.916,3,108,1,1,1,2,2,32,128,164,,,,,,0,107,107,107,,,,,,,,,,,,,,,,,,,,,,,,,,,,,,,,,,,,,,,,,,,,,,,,,,,,,,,,,803.5111436999996,804.0109878999992,804.0109878999992,804.7635591999988,804.7635591999988,805.2689647999996,805.2689647999996,806.1881371999989,806.1881371999989,None,num_6,0.5370874000000185,806.1881371999989,None,happy,0,Happy,806.7520264999998,None,None,806.7520264999998,None,,,,,,,,,,,,,,,,,,,,,,,,,,,,,,,,,,,,,,,,,,,,,,,,,,,,,28,001,0,27,350,375,2022_Oct_24_1319,Experiment,2021.1.4,360.63717377175476,
images\S1_F_S_03.png,images\S1_F_S_03_scrambled.png,1,sad,-30,female,1,,126,off,1,0.5,0.75,0.5,0.766,3,125,1,1,1,0,0,0,0,1,,,,,,0,108,108,108,,,,,,,,,,,,,,,,,,,,,,,,,,,,,,,,,,,,,,,,,,,,,,,,,,,,,,,,,806.8018008999989,807.3044145999993,807.3044145999993,808.0570313999997,808.0570313999997,808.5624520000001,808.5624520000001,809.3315727999998,809.3315727999998,None,num_6,0.40184969999972964,809.3315727999998,None,happy,0,Sad,809.7426769999987,None,None,809.7426769999987,None,,,,,,,,,,,,,,,,,,,,,,,,,,,,,,,,,,,,,,,,,,,,,,,,,,,,,28,001,0,27,350,375,2022_Oct_24_1319,Experiment,2021.1.4,360.63717377175476,
images\S2_M_S_01.png,images\S2_M_S_01_scrambled.png,2,sad,-10,male,3,,550,on,2,0.5,0.75,0.5,0.765,3,549,1,1,1,2,2,32,128,163,,,,,,0,109,109,109,,,,,,,,,,,,,,,,,,,,,,,,,,,,,,,,,,,,,,,,,,,,,,,,,,,,,,,,,809.8036525999996,810.3090756000001,810.3090756000001,811.0616293000003,811.0616293000003,811.5671387000002,811.5671387000002,812.3334307999994,812.3334307999994,None,num_6,0.5277937000009842,812.3334307999994,None,happy,0,Sad,812.8693928999996,None,None,812.8693928999996,None,,,,,,,,,,,,,,,,,,,,,,,,,,,,,,,,,,,,,,,,,,,,,,,,,,,,,28,001,0,27,350,375,2022_Oct_24_1319,Experiment,2021.1.4,360.63717377175476,
images\S3_F_H_02.png,images\S3_F_H_02_scrambled.png,3,happy,20,female,5,,434,on,2,0.5,0.75,0.5,0.897,3,433,2,1,1,2,2,32,128,165,,,,,,0,110,110,110,,,,,,,,,,,,,,,,,,,,,,,,,,,,,,,,,,,,,,,,,,,,,,,,,,,,,,,,,812.9165881999998,813.4192281999985,813.4192281999985,814.1717829999998,814.1717829999998,814.6772829999991,814.6772829999991,815.5796773999991,815.5796773999991,None,num_6,0.3454113000007055,815.5796773999991,None,happy,0,Happy,815.9351615999996,None,None,815.9351615999996,None,,,,,,,,,,,,,,,,,,,,,,,,,,,,,,,,,,,,,,,,,,,,,,,,,,,,,28,001,0,27,350,375,2022_Oct_24_1319,Experiment,2021.1.4,360.63717377175476,
images\S4_M_H_01.png,images\S4_M_H_01_scrambled.png,4,happy,10,male,4,,139,off,1,0.5,0.75,0.5,0.91,3,138,1,1,1,0,0,0,0,4,,,,,,0,111,111,111,,,,,,,,,,,,,,,,,,,,,,,,,,,,,,,,,,,,,,,,,,,,,,,,,,,,,,,,,815.982306599999,816.4877711999998,816.4877711999998,817.2430795,817.2430795,817.7456566000001,817.7456566000001,818.6564882000002,818.6564882000002,None,num_6,0.173380599999291,818.6564882000002,None,happy,0,Happy,818.8565810999993,None,None,818.8565810999993,None,,,,,,,,,,,,,,,,,,,,,,,,,,,,,,,,,,,,,,,,,,,,,,,,,,,,,28,001,0,27,350,375,2022_Oct_24_1319,Experiment,2021.1.4,360.63717377175476,
images\blank.jpg,images\blank.jpg,none,none,none,none,0,,619,on,2,0.5,0.75,0.5,0.922,0,618,1,1,1,3,3,48,192,240,,,,,,0,112,112,112,,,,,,,,,,,,,,,,,,,,,,,,,,,,,,,,,,,,,,,,,,,,,,,,,,,,,,,,,818.9427371000002,819.4451487999995,819.4451487999995,820.1977447999998,820.1977447999998,820.7031225999999,820.7031225999999,821.6278409999995,821.6278409999995,821.6278409999995,None,,821.6278409999995,None,miss,0,,824.6325118,None,None,824.6325118,None,,,,,,,,,,,,,,,,,,,,,,,,,,,,,,,,,,,,,,,,,,,,,,,,,,,,,28,001,0,27,350,375,2022_Oct_24_1319,Experiment,2021.1.4,360.63717377175476,
images\S5_F_S_01.png,images\S5_F_S_01_scrambled.png,5,sad,-10,female,3,,448,on,2,0.5,0.75,0.5,0.817,3,447,2,1,1,2,2,32,128,163,,,,,,0,113,113,113,,,,,,,,,,,,,,,,,,,,,,,,,,,,,,,,,,,,,,,,,,,,,,,,,,,,,,,,,824.7520728,825.2573273999988,825.2573273999988,826.0125736999998,826.0125736999998,826.5180008999996,826.5180008999996,827.3399444999995,827.3399444999995,None,num_6,2.729402499999196,827.3399444999995,824.7520728,happy,0,Sad,830.0779906999992,None,None,830.0779906999992,None,,,,,,,,,,,,,,,,,,,,,,,,,,,,,,,,,,,,,,,,,,,,,,,,,,,,,28,001,0,27,350,375,2022_Oct_24_1319,Experiment,2021.1.4,360.63717377175476,
images\S9_F_S_02.png,images\S9_F_S_02_scrambled.png,9,sad,-20,female,2,,473,on,2,0.5,0.75,0.5,0.932,3,472,3,1,1,2,2,32,128,162,,,,,,0,114,114,114,,,,,,,,,,,,,,,,,,,,,,,,,,,,,,,,,,,,,,,,,,,,,,,,,,,,,,,,,830.1251919999995,830.6278520999986,830.6278520999986,831.3775838000001,831.3775838000001,831.8830258999988,831.8830258999988,832.8188327999997,832.8188327999997,None,num_6,0.8823057999998127,832.8188327999997,None,happy,0,Sad,833.7102121000003,None,None,833.7102121000003,None,,,,,,,,,,,,,,,,,,,,,,,,,,,,,,,,,,,,,,,,,,,,,,,,,,,,,28,001,0,27,350,375,2022_Oct_24_1319,Experiment,2021.1.4,360.63717377175476,
images\S2_M_H_01.png,images\S2_M_H_01_scrambled.png,2,happy,10,male,4,,547,on,2,0.5,0.75,0.5,0.774,3,546,4,1,1,2,2,32,128,164,,,,,,0,115,115,115,,,,,,,,,,,,,,,,,,,,,,,,,,,,,,,,,,,,,,,,,,,,,,,,,,,,,,,,,833.7601894999989,834.2628122999995,834.2628122999995,835.0125687,835.0125687,835.5180252999999,835.5180252999999,836.2983313999994,836.2983313999994,None,num_6,0.8588407000006555,836.2983313999994,None,happy,0,Happy,837.1730506999985,None,None,837.1730506999985,None,,,,,,,,,,,,,,,,,,,,,,,,,,,,,,,,,,,,,,,,,,,,,,,,,,,,,28,001,0,27,350,375,2022_Oct_24_1319,Experiment,2021.1.4,360.63717377175476,
images\S8_M_S_01.png,images\S8_M_S_01_scrambled.png,8,sad,-10,male,3,,286,off,1,0.5,0.75,0.5,0.851,3,285,1,1,1,0,0,0,0,3,,,,,,0,116,116,116,,,,,,,,,,,,,,,,,,,,,,,,,,,,,,,,,,,,,,,,,,,,,,,,,,,,,,,,,837.2202316999992,837.7229005999998,837.7229005999998,838.4726106999988,838.4726106999988,838.9780621999998,838.9780621999998,839.8333634999999,839.8333634999999,None,num_4,0.3958447000004526,839.8333634999999,None,sad,0,Sad,840.2443037999993,None,None,840.2443037999993,None,,,,,,,,,,,,,,,,,,,,,,,,,,,,,,,,,,,,,,,,,,,,,,,,,,,,,28,001,0,27,350,375,2022_Oct_24_1319,Experiment,2021.1.4,360.63717377175476,
images\S3_F_H_03.png,images\S3_F_H_03_scrambled.png,3,happy,30,female,6,,495,off,1,0.5,0.75,0.5,0.792,3,494,2,1,1,0,0,0,0,6,,,,,,0,117,117,117,,,,,,,,,,,,,,,,,,,,,,,,,,,,,,,,,,,,,,,,,,,,,,,,,,,,,,,,,840.2915120999987,840.7970514999997,840.7970514999997,841.5467066000001,841.5467066000001,842.0522079000002,842.0522079000002,842.8490770999997,842.8490770999997,None,num_6,0.2600951999993413,842.8490770999997,None,happy,0,Happy,843.1240025999988,None,None,843.1240025999988,None,,,,,,,,,,,,,,,,,,,,,,,,,,,,,,,,,,,,,,,,,,,,,,,,,,,,,28,001,0,27,350,375,2022_Oct_24_1319,Experiment,2021.1.4,360.63717377175476,
images\S6_M_S_01.png,images\S6_M_S_01_scrambled.png,6,sad,-10,male,3,,94,on,2,0.5,0.75,0.5,0.947,3,93,1,1,1,2,2,32,128,163,,,,,,0,118,118,118,,,,,,,,,,,,,,,,,,,,,,,,,,,,,,,,,,,,,,,,,,,,,,,,,,,,,,,,,843.1711802999998,843.6738292999999,843.6738292999999,844.4291549999998,844.4291549999998,844.9318901999995,844.9318901999995,845.8814547999991,845.8814547999991,None,num_6,0.5798498000003747,845.8814547999991,None,happy,0,Sad,846.4729514999995,None,None,846.4729514999995,None,,,,,,,,,,,,,,,,,,,,,,,,,,,,,,,,,,,,,,,,,,,,,,,,,,,,,28,001,0,27,350,375,2022_Oct_24_1319,Experiment,2021.1.4,360.63717377175476,
images\S8_M_H_01.png,images\S8_M_H_01_scrambled.png,8,happy,10,male,4,,103,on,2,0.5,0.75,0.5,0.78,3,102,2,1,1,2,2,32,128,164,,,,,,0,119,119,119,,,,,,,,,,,,,,,,,,,,,,,,,,,,,,,,,,,,,,,,,,,,,,,,,,,,,,,,,846.5368106999995,847.036659899999,847.036659899999,847.7864553,847.7864553,848.2919567999998,848.2919567999998,849.0749371999991,849.0749371999991,None,num_6,0.17041099999914877,849.0749371999991,None,happy,0,Happy,849.2666748999989,None,None,849.2666748999989,None,,,,,,,,,,,,,,,,,,,,,,,,,,,,,,,,,,,,,,,,,,,,,,,,,,,,,28,001,0,27,350,375,2022_Oct_24_1319,Experiment,2021.1.4,360.63717377175476,
images\blank.jpg,images\blank.jpg,none,none,none,none,0,,609,on,2,0.5,0.75,0.5,0.786,0,608,3,1,1,3,3,48,192,240,,,,,,0,120,120,120,,,,,,,,,,,,,,,,,,,,,,,,,,,,,,,,,,,,,,,,,,,,,,,,,,,,,,,,,849.3695105999996,849.8720436000003,849.8720436000003,850.6216675999985,850.6216675999985,851.1271982999988,851.1271982999988,851.9157727000002,851.9157727000002,851.9157727000002,None,,851.9157727000002,None,miss,0,,854.9175944999995,None,None,854.9175944999995,None,,,,,,,,,,,,,,,,,,,,,,,,,,,,,,,,,,,,,,,,,,,,,,,,,,,,,28,001,0,27,350,375,2022_Oct_24_1319,Experiment,2021.1.4,360.63717377175476,
images\S10_M_S_01.png,images\S10_M_S_01_scrambled.png,10,sad,-10,male,3,,118,on,2,0.5,0.75,0.5,0.832,3,117,4,1,1,2,2,32,128,163,,,,,,0,121,121,121,,,,,,,,,,,,,,,,,,,,,,,,,,,,,,,,,,,,,,,,,,,,,,,,,,,,,,,,,855.0288850999987,855.5340723999998,855.5340723999998,856.2893934000003,856.2893934000003,856.792078299999,856.792078299999,857.6278563999986,857.6278563999986,None,num_6,0.6255628999988403,857.6278563999986,855.0288850999987,happy,0,Sad,858.2637790999993,None,None,858.2637790999993,None,,,,,,,,,,,,,,,,,,,,,,,,,,,,,,,,,,,,,,,,,,,,,,,,,,,,,28,001,0,27,350,375,2022_Oct_24_1319,Experiment,2021.1.4,360.63717377175476,
images\S8_M_H_02.png,images\S8_M_H_02_scrambled.png,8,happy,20,male,5,,104,on,2,0.5,0.75,0.5,0.949,3,103,5,1,1,2,2,32,128,165,,,,,,0,122,122,122,,,,,,,,,,,,,,,,,,,,,,,,,,,,,,,,,,,,,,,,,,,,,,,,,,,,,,,,,858.3109796999997,858.8108247,858.8108247,859.5662682000002,859.5662682000002,860.0660267999992,860.0660267999992,861.0185021999987,861.0185021999987,None,num_6,0.018654900000910857,861.0185021999987,None,happy,0,Happy,861.0629753999987,None,None,861.0629753999987,None,,,,,,,,,,,,,,,,,,,,,,,,,,,,,,,,,,,,,,,,,,,,,,,,,,,,,28,001,0,27,350,375,2022_Oct_24_1319,Experiment,2021.1.4,360.63717377175476,
images\S7_F_H_03.png,images\S7_F_H_03_scrambled.png,7,happy,30,female,6,,399,off,1,0.5,0.75,0.5,0.875,3,398,1,1,1,0,0,0,0,6,,,,,,0,123,123,123,,,,,,,,,,,,,,,,,,,,,,,,,,,,,,,,,,,,,,,,,,,,,,,,,,,,,,,,,861.1156656999992,861.6155199999994,861.6155199999994,862.365303999999,862.365303999999,862.8678995999999,862.8678995999999,863.7426513999999,863.7426513999999,None,num_6,0.19081509999887203,863.7426513999999,None,happy,0,Happy,863.9481616999993,None,None,863.9481616999993,None,,,,,,,,,,,,,,,,,,,,,,,,,,,,,,,,,,,,,,,,,,,,,,,,,,,,,28,001,0,27,350,375,2022_Oct_24_1319,Experiment,2021.1.4,360.63717377175476,
images\S9_F_S_03.png,images\S9_F_S_03_scrambled.png,9,sad,-30,female,1,,594,on,2,0.5,0.75,0.5,0.814,3,593,1,1,1,2,2,32,128,161,,,,,,0,124,124,124,,,,,,,,,,,,,,,,,,,,,,,,,,,,,,,,,,,,,,,,,,,,,,,,,,,,,,,,,863.9953403,864.4979635,864.4979635,865.2477077999993,865.2477077999993,865.7531588999991,865.7531588999991,866.5723997999994,866.5723997999994,None,num_6,0.5526785000001837,866.5723997999994,None,happy,0,Sad,867.1305032999985,None,None,867.1305032999985,None,,,,,,,,,,,,,,,,,,,,,,,,,,,,,,,,,,,,,,,,,,,,,,,,,,,,,28,001,0,27,350,375,2022_Oct_24_1319,Experiment,2021.1.4,360.63717377175476,
images\S3_F_H_01.png,images\S3_F_H_01_scrambled.png,3,happy,10,female,4,,73,on,2,0.5,0.75,0.5,0.768,3,72,2,1,1,2,2,32,128,164,,,,,,0,125,125,125,,,,,,,,,,,,,,,,,,,,,,,,,,,,,,,,,,,,,,,,,,,,,,,,,,,,,,,,,867.1804623999997,867.6860099999994,867.6860099999994,868.4356498999987,868.4356498999987,868.9383065999991,868.9383065999991,869.7102599999998,869.7102599999998,None,num_6,0.214996800001245,869.7102599999998,None,happy,0,Happy,869.9520573999994,None,None,869.9520573999994,None,,,,,,,,,,,,,,,,,,,,,,,,,,,,,,,,,,,,,,,,,,,,,,,,,,,,,28,001,0,27,350,375,2022_Oct_24_1319,Experiment,2021.1.4,360.63717377175476,
images\S5_F_H_03.png,images\S5_F_H_03_scrambled.png,5,happy,30,female,6,,327,on,2,0.5,0.75,0.5,0.789,3,326,3,1,1,2,2,32,128,166,,,,,,0,126,126,126,,,,,,,,,,,,,,,,,,,,,,,,,,,,,,,,,,,,,,,,,,,,,,,,,,,,,,,,,870.001827,870.5044720999995,870.5044720999995,871.2571169999992,871.2571169999992,871.7624889999988,871.7624889999988,872.5538462999993,872.5538462999993,None,num_6,0.21137590000034834,872.5538462999993,None,happy,0,Happy,872.7760262000003,None,None,872.7760262000003,None,,,,,,,,,,,,,,,,,,,,,,,,,,,,,,,,,,,,,,,,,,,,,,,,,,,,,28,001,0,27,350,375,2022_Oct_24_1319,Experiment,2021.1.4,360.63717377175476,
images\S1_F_H_02.png,images\S1_F_H_02_scrambled.png,1,happy,20,female,5,,422,on,2,0.5,0.75,0.5,0.879,3,421,4,1,1,2,2,32,128,165,,,,,,0,127,127,127,,,,,,,,,,,,,,,,,,,,,,,,,,,,,,,,,,,,,,,,,,,,,,,,,,,,,,,,,872.8231868999992,873.3258188,873.3258188,874.0755749,874.0755749,874.578238,874.578238,875.4613826999994,875.4613826999994,None,num_6,0.24833080000098562,875.4613826999994,None,happy,0,Happy,875.7308286999992,None,None,875.7308286999992,None,,,,,,,,,,,,,,,,,,,,,,,,,,,,,,,,,,,,,,,,,,,,,,,,,,,,,28,001,0,27,350,375,2022_Oct_24_1319,Experiment,2021.1.4,360.63717377175476,
images\S7_F_H_01.png,images\S7_F_H_01_scrambled.png,7,happy,10,female,4,,157,off,1,0.5,0.75,0.5,0.938,3,156,1,1,1,0,0,0,0,4,,,,,,0,128,128,128,,,,,,,,,,,,,,,,,,,,,,,,,,,,,,,,,,,,,,,,,,,,,,,,,,,,,,,,,875.786161,876.2888110000004,876.2888110000004,877.0414652,877.0414652,877.5439796999999,877.5439796999999,878.4881502999997,878.4881502999997,None,num_6,0.413015500000256,878.4881502999997,None,happy,0,Happy,878.9158007999987,None,None,878.9158007999987,None,,,,,,,,,,,,,,,,,,,,,,,,,,,,,,,,,,,,,,,,,,,,,,,,,,,,,28,001,0,27,350,375,2022_Oct_24_1319,Experiment,2021.1.4,360.63717377175476,
images\S7_F_H_03.png,images\S7_F_H_03_scrambled.png,7,happy,30,female,6,,219,on,2,0.5,0.75,0.5,0.931,3,218,1,2,1,2,2,32,128,166,,,,,,0,129,129,129,,,,,,,,,,,,,,,,,,,,,,,,,,,,,,,,,,,,,,,,,,,,,,,,,,,,,,,,,878.9657430999996,879.4684132000002,879.4684132000002,880.2237188999989,880.2237188999989,880.7264399999985,880.7264399999985,881.6593764999998,881.6593764999998,None,num_6,0.4578985999996803,881.6593764999998,None,happy,0,Happy,882.1342502999996,None,None,882.1342502999996,None,,,,,,,,,,,,,,,,,,,,,,,,,,,,,,,,,,,,,,,,,,,,,,,,,,,,,28,001,0,27,350,375,2022_Oct_24_1319,Experiment,2021.1.4,360.63717377175476,
images\blank.jpg,images\blank.jpg,none,none,none,none,0,,643,on,2,0.5,0.75,0.5,0.929,0,642,2,1,1,3,3,48,192,240,,,,,,0,130,130,130,,,,,,,,,,,,,,,,,,,,,,,,,,,,,,,,,,,,,,,,,,,,,,,,,,,,,,,,,882.2177630999995,882.7229564999998,882.7229564999998,883.4726988000002,883.4726988000002,883.9753523999989,883.9753523999989,884.9083966999988,884.9083966999988,884.9083966999988,None,,884.9083966999988,None,miss,0,,887.9130261999999,None,space,887.9130261999999,None,65.30752500000017,,,,,,,,,,,,,,,,,,,,,,,,,,,,,,,,,,,,,,,,,,,,,,,,,,,,28,001,0,27,350,375,2022_Oct_24_1319,Experiment,2021.1.4,360.63717377175476,
images\S9_F_S_03.png,images\S9_F_S_03_scrambled.png,9,sad,-30,female,1,,234,on,2,0.5,0.75,0.5,0.822,3,233,3,1,1,2,2,32,128,161,,,,,,0,131,131,131,,,,,,,,,,,,,,,,,,,,,,,,,,,,,,,,,,,,,,,,,,,,,,,,,,,,,,,,,953.3375706999996,953.8400918999996,953.8400918999996,954.5953938999992,954.5953938999992,955.0978983999994,955.0978983999994,955.9255150999998,955.9255150999998,None,num_4,0.20005110000056447,955.9255150999998,None,sad,0,Sad,956.1450092999999,None,None,956.1450092999999,None,,,,,,,,,,,,,,,,,,,,,,,,,,,,,,,,,,,,,,,,,,,,,,,,,,,,,28,001,0,27,350,375,2022_Oct_24_1319,Experiment,2021.1.4,360.63717377175476,
images\S5_F_H_02.png,images\S5_F_H_02_scrambled.png,5,happy,20,female,5,,446,on,2,0.5,0.75,0.5,0.843,3,445,4,1,1,2,2,32,128,165,,,,,,0,132,132,132,,,,,,,,,,,,,,,,,,,,,,,,,,,,,,,,,,,,,,,,,,,,,,,,,,,,,,,,,956.1947823999999,956.7002744999991,956.7002744999991,957.4555954999996,957.4555954999996,957.960955999999,957.960955999999,958.8107101999994,958.8107101999994,None,num_6,0.25837570000112464,958.8107101999994,None,happy,0,Happy,959.0800718000002,None,None,959.0800718000002,None,,,,,,,,,,,,,,,,,,,,,,,,,,,,,,,,,,,,,,,,,,,,,,,,,,,,,28,001,0,27,350,375,2022_Oct_24_1319,Experiment,2021.1.4,360.63717377175476,
images\S6_M_H_01.png,images\S6_M_H_01_scrambled.png,6,happy,10,male,4,,331,on,2,0.5,0.75,0.5,0.791,3,330,5,1,1,2,2,32,128,164,,,,,,0,133,133,133,,,,,,,,,,,,,,,,,,,,,,,,,,,,,,,,,,,,,,,,,,,,,,,,,,,,,,,,,959.1272258999998,959.6326442999998,959.6326442999998,960.3853084000002,960.3853084000002,960.8906253999994,960.8906253999994,961.6848928,961.6848928,None,num_6,0.20825060000061058,961.6848928,None,happy,0,Happy,961.9069274999994,None,None,961.9069274999994,None,,,,,,,,,,,,,,,,,,,,,,,,,,,,,,,,,,,,,,,,,,,,,,,,,,,,,28,001,0,27,350,375,2022_Oct_24_1319,Experiment,2021.1.4,360.63717377175476,
images\S1_F_H_01.png,images\S1_F_H_01_scrambled.png,1,happy,10,female,4,,61,on,2,0.5,0.75,0.5,0.779,3,60,6,1,2,2,2,32,128,164,,,,,,0,134,134,134,,,,,,,,,,,,,,,,,,,,,,,,,,,,,,,,,,,,,,,,,,,,,,,,,,,,,,,,,961.9541391000002,962.4567557999999,962.4567557999999,963.2065187999997,963.2065187999997,963.7091898999988,963.7091898999988,964.4951142999998,964.4951142999998,None,num_6,0.2140521000001172,964.4951142999998,None,happy,0,Happy,964.719968999999,None,None,964.719968999999,None,,,,,,,,,,,,,,,,,,,,,,,,,,,,,,,,,,,,,,,,,,,,,,,,,,,,,28,001,0,27,350,375,2022_Oct_24_1319,Experiment,2021.1.4,360.63717377175476,
images\S6_M_S_01.png,images\S6_M_S_01_scrambled.png,6,sad,-10,male,3,,334,on,2,0.5,0.75,0.5,0.922,3,333,7,1,1,2,2,32,128,163,,,,,,0,135,135,135,,,,,,,,,,,,,,,,,,,,,,,,,,,,,,,,,,,,,,,,,,,,,,,,,,,,,,,,,964.7671584,965.2698910999989,965.2698910999989,966.0252246,966.0252246,966.5277823999986,966.5277823999986,967.4553056999994,967.4553056999994,None,num_4,0.07791189999989001,967.4553056999994,None,sad,0,Sad,967.5608161999993,None,None,967.5608161999993,None,,,,,,,,,,,,,,,,,,,,,,,,,,,,,,,,,,,,,,,,,,,,,,,,,,,,,28,001,0,27,350,375,2022_Oct_24_1319,Experiment,2021.1.4,360.63717377175476,
images\S8_M_S_03.png,images\S8_M_S_03_scrambled.png,8,sad,-30,male,1,,288,off,1,0.5,0.75,0.5,0.884,3,287,1,1,1,0,0,0,0,1,,,,,,0,136,136,136,,,,,,,,,,,,,,,,,,,,,,,,,,,,,,,,,,,,,,,,,,,,,,,,,,,,,,,,,967.6246155999997,968.1272575999992,968.1272575999992,968.8825710000001,968.8825710000001,969.3824502999996,969.3824502999996,970.271066199999,970.271066199999,None,num_4,0.23030480000124953,970.271066199999,None,sad,0,Sad,970.5238810999988,None,None,970.5238810999988,None,,,,,,,,,,,,,,,,,,,,,,,,,,,,,,,,,,,,,,,,,,,,,,,,,,,,,28,001,0,27,350,375,2022_Oct_24_1319,Experiment,2021.1.4,360.63717377175476,
images\S3_F_S_03.png,images\S3_F_S_03_scrambled.png,3,sad,-30,female,1,,498,off,1,0.5,0.75,0.5,0.798,3,497,2,1,2,0,0,0,0,1,,,,,,0,137,137,137,,,,,,,,,,,,,,,,,,,,,,,,,,,,,,,,,,,,,,,,,,,,,,,,,,,,,,,,,970.5764853000001,971.0819018999991,971.0819018999991,971.8345522,971.8345522,972.3342756999991,972.3342756999991,973.1368387999992,973.1368387999992,None,num_4,0.34851460000027146,973.1368387999992,None,sad,0,Sad,973.4978454999992,None,None,973.4978454999992,None,,,,,,,,,,,,,,,,,,,,,,,,,,,,,,,,,,,,,,,,,,,,,,,,,,,,,28,001,0,27,350,375,2022_Oct_24_1319,Experiment,2021.1.4,360.63717377175476,
images\blank.jpg,images\blank.jpg,none,none,none,none,0,,630,on,2,0.5,0.75,0.5,0.891,0,629,1,1,1,3,3,48,192,240,,,,,,0,138,138,138,,,,,,,,,,,,,,,,,,,,,,,,,,,,,,,,,,,,,,,,,,,,,,,,,,,,,,,,,973.5813564,974.0865472999994,974.0865472999994,974.8418678999988,974.8418678999988,975.3445969999993,975.3445969999993,976.2358958999994,976.2358958999994,976.2358958999994,None,,976.2358958999994,None,miss,0,,979.2377408999989,None,None,979.2377408999989,None,,,,,,,,,,,,,,,,,,,,,,,,,,,,,,,,,,,,,,,,,,,,,,,,,,,,,28,001,0,27,350,375,2022_Oct_24_1319,Experiment,2021.1.4,360.63717377175476,
images\S9_F_H_01.png,images\S9_F_H_01_scrambled.png,9,happy,10,female,4,,409,off,1,0.5,0.75,0.5,0.886,3,408,1,1,1,0,0,0,0,4,,,,,,0,139,139,139,,,,,,,,,,,,,,,,,,,,,,,,,,,,,,,,,,,,,,,,,,,,,,,,,,,,,,,,,979.3518379999987,979.8569979999993,979.8569979999993,980.6067274999987,980.6067274999987,981.109495499999,981.109495499999,981.9979869999988,981.9979869999988,None,num_6,0.23138339999968593,981.9979869999988,979.3518379999987,happy,0,Happy,982.2396724000001,None,None,982.2396724000001,None,,,,,,,,,,,,,,,,,,,,,,,,,,,,,,,,,,,,,,,,,,,,,,,,,,,,,28,001,0,27,350,375,2022_Oct_24_1319,Experiment,2021.1.4,360.63717377175476,
