image_face,image_scram,avatar,emo,emotion,sex,trigeeg,dac,trial_no,NMES,stimtime,baseline,iti,face,scr_face,resp_time,index,count_NMES,count_avatar,count_emotion,dac1,dac2,dac1_output,dac2_output,trigs_out,nmes,practice_trials.thisRepN,practice_trials.thisTrialN,practice_trials.thisN,practice_trials.thisIndex,real_trials.thisRepN,real_trials.thisTrialN,real_trials.thisN,real_trials.thisIndex,trials.thisRepN,trials.thisTrialN,trials.thisN,trials.thisIndex,position,Welcome.started,Welcome.stopped,Welcome_resp.keys,Welcome_resp.rt,text_2.started,text_2.stopped,form_2.index,form_2.itemText,form_2.type,form_2.response,form_2.rt,key_resp_4.keys,key_resp_4.rt,key_resp_4.started,key_resp_4.stopped,instructions.started,instructions.stopped,end_instr.keys,end_instr.rt,instructions_2.started,instructions_2.stopped,end_instr_2.keys,end_instr_2.rt,end_instr_2.started,end_instr_2.stopped,instruct_keypress.started,instruct_keypress.stopped,end_instruct_keypress.keys,end_instruct_keypress.rt,start_practice.started,start_practice.stopped,start_practice_resp.keys,start_practice_resp.rt,prac_baseline.started,prac_baseline.stopped,prac_iti.started,prac_iti.stopped,prac_stimulus.started,prac_stimulus.stopped,prac_scram_stim.started,prac_scram_stim.stopped,prac_stimulus_resp.started,prac_stimulus_resp.stopped,prac_resp.keys,prac_resp.rt,prac_resp.started,prac_resp.stopped,transition_to_real.started,transition_to_real.stopped,end_transition_to_real.keys,end_transition_to_real.rt,fixation_cross.started,fixation_cross.stopped,tr_iti.started,tr_iti.stopped,stimulus.started,stimulus.stopped,scram_stim.started,scram_stim.stopped,response_txt.started,response_txt.stopped,response.keys,response.started,response.stopped,participant_Resp,grouping,corAnswer,break_msg.started,break_msg.stopped,end_break.keys,end_break.started,end_break.stopped,response.rt,end_break.rt,text.started,text.stopped,key_resp_3.keys,key_resp_3.rt,key_resp_3.started,key_resp_3.stopped,fix_cross_comf.started,fix_cross_comf.stopped,stimulation_comf.started,stimulation_comf.stopped,rate_instr.started,rate_instr.stopped,comfort_rating.response,comfort_rating.rt,comfort_rating.started,comfort_rating.stopped,resp_form.keys,resp_form.rt,resp_form.started,resp_form.stopped,survey_instructions.started,survey_instructions.stopped,key_resp_2.keys,key_resp_2.rt,key_resp_2.started,key_resp_2.stopped,form.index,form.itemText,form.type,form.response,form.rt,key_resp.keys,key_resp.rt,key_resp.started,key_resp.stopped,text_3.started,text_3.stopped,rate_smile.response,rate_smile.rt,rate_smile.started,rate_smile.stopped,key_resp_5.keys,key_resp_5.rt,key_resp_5.started,key_resp_5.stopped,end_msg.started,end_msg.stopped,end_resp.keys,end_resp.rt,end_resp.started,end_resp.stopped,participant,session,gender,age,LEFT,RIGHT,date,expName,psychopyVersion,frameRate,
,,,,,,,,,,,,,,,,,,,,,,,,,,,,,,,,,,,,,,H-S,78.01941349999834,None,num_add,3.319373299997096,,,,,,,,,,,,,,,,,,,,,,,,,,,,,,,,,,,,,,,,,,,,,,,,,,,,,,,,,,,,,,,,,,,,,,,,,,,,,,,,,,,,,,,,,,,,,,,,,,,,,,,,,,,,,,,,,,,,,,,,,,29,001,0,21,350,400,2022_Oct_24_1601,Experiment,2021.1.4,360.6748948324101,
,,,,,,,,,,,,,,,,,,,,,,,,,,,,,,,,,,,,,,,,,,,81.34752769999977,83.38302389999808,1,"This scale consistes of a number of words that describe different feelings and emotion. Read each item and then list the number from the scale below each word. Indicate (by clicking) to what extend you feel this way RIGHT NOW, that is, AT THE PRESENT MOMENT.",description,,,,,,,,,,,,,,,,,,,,,,,,,,,,,,,,,,,,,,,,,,,,,,,,,,,,,,,,,,,,,,,,,,,,,,,,,,,,,,,,,,,,,,,,,,,,,,,,,,,,,,,,,,,,,,,,,,,,,29,001,0,21,350,400,2022_Oct_24_1601,Experiment,2021.1.4,360.6748948324101,
,,,,,,,,,,,,,,,,,,,,,,,,,,,,,,,,,,,,,,,,,,,,,2,Interested,rating,5.0,8.065110100000311,,,,,,,,,,,,,,,,,,,,,,,,,,,,,,,,,,,,,,,,,,,,,,,,,,,,,,,,,,,,,,,,,,,,,,,,,,,,,,,,,,,,,,,,,,,,,,,,,,,,,,,,,,,,,,,,,,,29,001,0,21,350,400,2022_Oct_24_1601,Experiment,2021.1.4,360.6748948324101,
,,,,,,,,,,,,,,,,,,,,,,,,,,,,,,,,,,,,,,,,,,,,,3,Distressed,rating,1.0,11.756358999999065,,,,,,,,,,,,,,,,,,,,,,,,,,,,,,,,,,,,,,,,,,,,,,,,,,,,,,,,,,,,,,,,,,,,,,,,,,,,,,,,,,,,,,,,,,,,,,,,,,,,,,,,,,,,,,,,,,,29,001,0,21,350,400,2022_Oct_24_1601,Experiment,2021.1.4,360.6748948324101,
,,,,,,,,,,,,,,,,,,,,,,,,,,,,,,,,,,,,,,,,,,,,,4,Excited,rating,3.0,14.048667600000044,,,,,,,,,,,,,,,,,,,,,,,,,,,,,,,,,,,,,,,,,,,,,,,,,,,,,,,,,,,,,,,,,,,,,,,,,,,,,,,,,,,,,,,,,,,,,,,,,,,,,,,,,,,,,,,,,,,29,001,0,21,350,400,2022_Oct_24_1601,Experiment,2021.1.4,360.6748948324101,
,,,,,,,,,,,,,,,,,,,,,,,,,,,,,,,,,,,,,,,,,,,,,5,Upset,rating,1.0,18.271508199999516,,,,,,,,,,,,,,,,,,,,,,,,,,,,,,,,,,,,,,,,,,,,,,,,,,,,,,,,,,,,,,,,,,,,,,,,,,,,,,,,,,,,,,,,,,,,,,,,,,,,,,,,,,,,,,,,,,,29,001,0,21,350,400,2022_Oct_24_1601,Experiment,2021.1.4,360.6748948324101,
,,,,,,,,,,,,,,,,,,,,,,,,,,,,,,,,,,,,,,,,,,,,,6,Strong,rating,4.0,23.480057599997963,,,,,,,,,,,,,,,,,,,,,,,,,,,,,,,,,,,,,,,,,,,,,,,,,,,,,,,,,,,,,,,,,,,,,,,,,,,,,,,,,,,,,,,,,,,,,,,,,,,,,,,,,,,,,,,,,,,29,001,0,21,350,400,2022_Oct_24_1601,Experiment,2021.1.4,360.6748948324101,
,,,,,,,,,,,,,,,,,,,,,,,,,,,,,,,,,,,,,,,,,,,,,7,Guilty,rating,1.0,9.636031699999876,,,,,,,,,,,,,,,,,,,,,,,,,,,,,,,,,,,,,,,,,,,,,,,,,,,,,,,,,,,,,,,,,,,,,,,,,,,,,,,,,,,,,,,,,,,,,,,,,,,,,,,,,,,,,,,,,,,29,001,0,21,350,400,2022_Oct_24_1601,Experiment,2021.1.4,360.6748948324101,
,,,,,,,,,,,,,,,,,,,,,,,,,,,,,,,,,,,,,,,,,,,,,8,Scared,rating,1.0,12.787118699998246,,,,,,,,,,,,,,,,,,,,,,,,,,,,,,,,,,,,,,,,,,,,,,,,,,,,,,,,,,,,,,,,,,,,,,,,,,,,,,,,,,,,,,,,,,,,,,,,,,,,,,,,,,,,,,,,,,,29,001,0,21,350,400,2022_Oct_24_1601,Experiment,2021.1.4,360.6748948324101,
,,,,,,,,,,,,,,,,,,,,,,,,,,,,,,,,,,,,,,,,,,,,,9,Hostile,rating,1.0,15.048315000000002,,,,,,,,,,,,,,,,,,,,,,,,,,,,,,,,,,,,,,,,,,,,,,,,,,,,,,,,,,,,,,,,,,,,,,,,,,,,,,,,,,,,,,,,,,,,,,,,,,,,,,,,,,,,,,,,,,,29,001,0,21,350,400,2022_Oct_24_1601,Experiment,2021.1.4,360.6748948324101,
,,,,,,,,,,,,,,,,,,,,,,,,,,,,,,,,,,,,,,,,,,,,,10,Enthusiastic,rating,3.0,12.62031289999868,,,,,,,,,,,,,,,,,,,,,,,,,,,,,,,,,,,,,,,,,,,,,,,,,,,,,,,,,,,,,,,,,,,,,,,,,,,,,,,,,,,,,,,,,,,,,,,,,,,,,,,,,,,,,,,,,,,29,001,0,21,350,400,2022_Oct_24_1601,Experiment,2021.1.4,360.6748948324101,
,,,,,,,,,,,,,,,,,,,,,,,,,,,,,,,,,,,,,,,,,,,,,11,Proud,rating,4.0,12.594799099999364,,,,,,,,,,,,,,,,,,,,,,,,,,,,,,,,,,,,,,,,,,,,,,,,,,,,,,,,,,,,,,,,,,,,,,,,,,,,,,,,,,,,,,,,,,,,,,,,,,,,,,,,,,,,,,,,,,,29,001,0,21,350,400,2022_Oct_24_1601,Experiment,2021.1.4,360.6748948324101,
,,,,,,,,,,,,,,,,,,,,,,,,,,,,,,,,,,,,,,,,,,,,,12,Irritable,rating,1.0,9.940164700001333,,,,,,,,,,,,,,,,,,,,,,,,,,,,,,,,,,,,,,,,,,,,,,,,,,,,,,,,,,,,,,,,,,,,,,,,,,,,,,,,,,,,,,,,,,,,,,,,,,,,,,,,,,,,,,,,,,,29,001,0,21,350,400,2022_Oct_24_1601,Experiment,2021.1.4,360.6748948324101,
,,,,,,,,,,,,,,,,,,,,,,,,,,,,,,,,,,,,,,,,,,,,,13,Alert,rating,5.0,8.974721399998089,,,,,,,,,,,,,,,,,,,,,,,,,,,,,,,,,,,,,,,,,,,,,,,,,,,,,,,,,,,,,,,,,,,,,,,,,,,,,,,,,,,,,,,,,,,,,,,,,,,,,,,,,,,,,,,,,,,29,001,0,21,350,400,2022_Oct_24_1601,Experiment,2021.1.4,360.6748948324101,
,,,,,,,,,,,,,,,,,,,,,,,,,,,,,,,,,,,,,,,,,,,,,14,Ashamed,rating,1.0,8.802334600000904,,,,,,,,,,,,,,,,,,,,,,,,,,,,,,,,,,,,,,,,,,,,,,,,,,,,,,,,,,,,,,,,,,,,,,,,,,,,,,,,,,,,,,,,,,,,,,,,,,,,,,,,,,,,,,,,,,,29,001,0,21,350,400,2022_Oct_24_1601,Experiment,2021.1.4,360.6748948324101,
,,,,,,,,,,,,,,,,,,,,,,,,,,,,,,,,,,,,,,,,,,,,,15,Inspired,rating,4.0,8.223499400002765,,,,,,,,,,,,,,,,,,,,,,,,,,,,,,,,,,,,,,,,,,,,,,,,,,,,,,,,,,,,,,,,,,,,,,,,,,,,,,,,,,,,,,,,,,,,,,,,,,,,,,,,,,,,,,,,,,,29,001,0,21,350,400,2022_Oct_24_1601,Experiment,2021.1.4,360.6748948324101,
,,,,,,,,,,,,,,,,,,,,,,,,,,,,,,,,,,,,,,,,,,,,,16,Nervous,rating,2.0,9.26895400000285,,,,,,,,,,,,,,,,,,,,,,,,,,,,,,,,,,,,,,,,,,,,,,,,,,,,,,,,,,,,,,,,,,,,,,,,,,,,,,,,,,,,,,,,,,,,,,,,,,,,,,,,,,,,,,,,,,,29,001,0,21,350,400,2022_Oct_24_1601,Experiment,2021.1.4,360.6748948324101,
,,,,,,,,,,,,,,,,,,,,,,,,,,,,,,,,,,,,,,,,,,,,,17,Determined,rating,4.0,9.452899399999296,,,,,,,,,,,,,,,,,,,,,,,,,,,,,,,,,,,,,,,,,,,,,,,,,,,,,,,,,,,,,,,,,,,,,,,,,,,,,,,,,,,,,,,,,,,,,,,,,,,,,,,,,,,,,,,,,,,29,001,0,21,350,400,2022_Oct_24_1601,Experiment,2021.1.4,360.6748948324101,
,,,,,,,,,,,,,,,,,,,,,,,,,,,,,,,,,,,,,,,,,,,,,18,Attentive,rating,5.0,9.63219140000001,,,,,,,,,,,,,,,,,,,,,,,,,,,,,,,,,,,,,,,,,,,,,,,,,,,,,,,,,,,,,,,,,,,,,,,,,,,,,,,,,,,,,,,,,,,,,,,,,,,,,,,,,,,,,,,,,,,29,001,0,21,350,400,2022_Oct_24_1601,Experiment,2021.1.4,360.6748948324101,
,,,,,,,,,,,,,,,,,,,,,,,,,,,,,,,,,,,,,,,,,,,,,19,Jittery,rating,1.0,9.056941999999253,,,,,,,,,,,,,,,,,,,,,,,,,,,,,,,,,,,,,,,,,,,,,,,,,,,,,,,,,,,,,,,,,,,,,,,,,,,,,,,,,,,,,,,,,,,,,,,,,,,,,,,,,,,,,,,,,,,29,001,0,21,350,400,2022_Oct_24_1601,Experiment,2021.1.4,360.6748948324101,
,,,,,,,,,,,,,,,,,,,,,,,,,,,,,,,,,,,,,,,,,,,,,20,Active,rating,4.0,6.7503546999978425,,,,,,,,,,,,,,,,,,,,,,,,,,,,,,,,,,,,,,,,,,,,,,,,,,,,,,,,,,,,,,,,,,,,,,,,,,,,,,,,,,,,,,,,,,,,,,,,,,,,,,,,,,,,,,,,,,,29,001,0,21,350,400,2022_Oct_24_1601,Experiment,2021.1.4,360.6748948324101,
,,,,,,,,,,,,,,,,,,,,,,,,,,,,,,,,,,,,,,,,,,,,,21,Afraid,rating,1.0,6.522510099999636,,,,,,,,,,,,,,,,,,,,,,,,,,,,,,,,,,,,,,,,,,,,,,,,,,,,,,,,,,,,,,,,,,,,,,,,,,,,,,,,,,,,,,,,,,,,,,,,,,,,,,,,,,,,,,,,,,,29,001,0,21,350,400,2022_Oct_24_1601,Experiment,2021.1.4,360.6748948324101,
,,,,,,,,,,,,,,,,,,,,,,,,,,,,,,,,,,,,,,,,,,,,,22,Press the + button to submit your answers,description,,,,,,,,,,,,,,,,,,,,,,,,,,,,,,,,,,,,,,,,,,,,,,,,,,,,,,,,,,,,,,,,,,,,,,,,,,,,,,,,,,,,,,,,,,,,,,,,,,,,,,,,,,,,,,,,,,,,,29,001,0,21,350,400,2022_Oct_24_1601,Experiment,2021.1.4,360.6748948324101,
,,,,,,,,,,,,,,,,,,,,,,,,,,,,,,,,,,,,,,,,,,,,,,,,,,num_add,66.29049949999899,91.40832849999788,None,,,,,,,,,,,,,,,,,,,,,,,,,,,,,,,,,,,,,,,,,,,,,,,,,,,,,,,,,,,,,,,,,,,,,,,,,,,,,,,,,,,,,,,,,,,,,,,,,,,,,,,,,,,,,,,29,001,0,21,350,400,2022_Oct_24_1601,Experiment,2021.1.4,360.6748948324101,
,,,,,,,,,,,,,,,,,,,,,,,,,,,,,,,,,,,,,,,,,,,,,,,,,,,,,,157.72684619999927,None,num_add,9.772252700000536,,,,,,,,,,,,,,,,,,,,,,,,,,,,,,,,,,,,,,,,,,,,,,,,,,,,,,,,,,,,,,,,,,,,,,,,,,,,,,,,,,,,,,,,,,,,,,,,,,,,,,,,,,,29,001,0,21,350,400,2022_Oct_24_1601,Experiment,2021.1.4,360.6748948324101,
,,,,,,,,,,,,,,,,,,,,,,,,,,,,,,,,,,,,,,,,,,,,,,,,,,,,,,,,,,167.509965199999,None,num_add,18.22907550000309,167.509965199999,None,,,,,,,,,,,,,,,,,,,,,,,,,,,,,,,,,,,,,,,,,,,,,,,,,,,,,,,,,,,,,,,,,,,,,,,,,,,,,,,,,,,,,,,,,,,,,,,,,,,,,29,001,0,21,350,400,2022_Oct_24_1601,Experiment,2021.1.4,360.6748948324101,
,,,,,,,,,,,,,,,,,,,,,,,,,,,,,,,,,,,,,,,,,,,,,,,,,,,,,,,,,,,,,,,,185.76546929999677,None,num_add,22.38147399999798,,,,,,,,,,,,,,,,,,,,,,,,,,,,,,,,,,,,,,,,,,,,,,,,,,,,,,,,,,,,,,,,,,,,,,,,,,,,,,,,,,,,,,,,,,,,,,,,,29,001,0,21,350,400,2022_Oct_24_1601,Experiment,2021.1.4,360.6748948324101,
,,,,,,,,,,,,,,,,,,,,,,,,,,,,,,,,,,,,,,,,,,,,,,,,,,,,,,,,,,,,,,,,,,,,208.15860039999825,None,space,84.98815770000147,,,,,,,,,,,,,,,,,,,,,,,,,,,,,,,,,,,,,,,,,,,,,,,,,,,,,,,,,,,,,,,,,,,,,,,,,,,,,,,,,,,,,,,,,,,,,29,001,0,21,350,400,2022_Oct_24_1601,Experiment,2021.1.4,360.6748948324101,
images\S22_M_H_02.png,images\S22_M_H_02_scrambled.png,22,Happy,-0.2,M,0,0,practice,off,1,0.5,0.75,0.5,0.883,3,,,,,,,,,,,0,0,0,2,,,,,,,,,,,,,,,,,,,,,,,,,,,,,,,,,,,,,,,,,,,293.2823901999982,293.7879049999974,293.7879049999974,294.5431789999966,294.5431789999966,295.04862109999885,295.04862109999885,295.93163809999896,295.93163809999896,None,num_6,2.6797327999993286,295.93163809999896,None,,,,,,,,,,,,,,,,,,,,,,,,,,,,,,,,,,,,,,,,,,,,,,,,,,,,,,,,,,,,,,,,,,,,,,,,,,,,,,,29,001,0,21,350,400,2022_Oct_24_1601,Experiment,2021.1.4,360.6748948324101,
images\S21_F_H_02.png,images\S21_F_H_02_scrambled.png,21,Happy,-0.2,F,0,0,practice,off,1,0.5,0.75,0.5,0.91,3,,,,,,,,,,,0,1,1,1,,,,,,,,,,,,,,,,,,,,,,,,,,,,,,,,,,,,,,,,,,,298.6641271999979,299.16954789999727,299.16954789999727,299.92219999999725,299.92219999999725,300.4219538999969,300.4219538999969,301.33835219999673,301.33835219999673,None,num_4,0.5688775000016904,301.33835219999673,None,,,,,,,,,,,,,,,,,,,,,,,,,,,,,,,,,,,,,,,,,,,,,,,,,,,,,,,,,,,,,,,,,,,,,,,,,,,,,,,29,001,0,21,350,400,2022_Oct_24_1601,Experiment,2021.1.4,360.6748948324101,
images\S22_M_S_03.png,images\S22_M_S_03_scrambled.png,22,Sad,0.3,M,0,0,practice,on,2,0.5,0.75,0.5,0.794,3,,,,,,,,,,,0,2,2,7,,,,,,,,,,,,,,,,,,,,,,,,,,,,,,,,,,,,,,,,,,,301.9631273999985,302.46574979999787,302.46574979999787,303.218327999999,303.218327999999,303.7209544999969,303.7209544999969,304.5178758999973,304.5178758999973,None,num_6,0.8214516000007279,304.5178758999973,None,,,,,,,,,,,,,,,,,,,,,,,,,,,,,,,,,,,,,,,,,,,,,,,,,,,,,,,,,,,,,,,,,,,,,,,,,,,,,,,29,001,0,21,350,400,2022_Oct_24_1601,Experiment,2021.1.4,360.6748948324101,
images\S22_M_S_03.png,images\S22_M_S_03_scrambled.png,22,Sad,0.3,M,0,0,practice,on,2,0.5,0.75,0.5,0.87,3,,,,,,,,,,,0,3,3,4,,,,,,,,,,,,,,,,,,,,,,,,,,,,,,,,,,,,,,,,,,,305.39540879999913,305.89807539999674,305.89807539999674,306.6533692999983,306.6533692999983,307.15877249999903,307.15877249999903,308.0335132,308.0335132,None,num_6,0.5379276000021491,308.0335132,None,,,,,,,,,,,,,,,,,,,,,,,,,,,,,,,,,,,,,,,,,,,,,,,,,,,,,,,,,,,,,,,,,,,,,,,,,,,,,,,29,001,0,21,350,400,2022_Oct_24_1601,Experiment,2021.1.4,360.6748948324101,
images\S22_M_S_02.png,images\S22_M_S_02_scrambled.png,22,Sad,0.2,M,0,0,practice,off,1,0.5,0.75,0.5,0.751,3,,,,,,,,,,,0,4,4,3,,,,,,,,,,,,,,,,,,,,,,,,,,,,,,,,,,,,,,,,,,,308.6249646999968,309.1276723999981,309.1276723999981,309.8801360999969,309.8801360999969,310.3828090999996,310.3828090999996,311.1381322999987,311.1381322999987,None,num_4,0.785299600000144,311.1381322999987,None,,,,,,,,,,,,,,,,,,,,,,,,,,,,,,,,,,,,,,,,,,,,,,,,,,,,,,,,,,,,,,,,,,,,,,,,,,,,,,,29,001,0,21,350,400,2022_Oct_24_1601,Experiment,2021.1.4,360.6748948324101,
images\S21_F_H_01.png,images\S21_F_H_01_scrambled.png,21,Happy,-0.1,F,0,0,practice,off,1,0.5,0.75,0.5,0.853,3,,,,,,,,,,,0,5,5,0,,,,,,,,,,,,,,,,,,,,,,,,,,,,,,,,,,,,,,,,,,,311.97672749999765,312.4793501999993,312.4793501999993,313.2318747999998,313.2318747999998,313.73173159999715,313.73173159999715,314.587120199998,314.587120199998,None,num_4,0.4242247000001953,314.587120199998,None,,,,,,,,,,,,,,,,,,,,,,,,,,,,,,,,,,,,,,,,,,,,,,,,,,,,,,,,,,,,,,,,,,,,,,,,,,,,,,,29,001,0,21,350,400,2022_Oct_24_1601,Experiment,2021.1.4,360.6748948324101,
images\S22_M_S_01.png,images\S22_M_S_01_scrambled.png,22,Sad,0.1,M,0,0,practice,on,2,0.5,0.75,0.5,0.867,3,,,,,,,,,,,0,6,6,5,,,,,,,,,,,,,,,,,,,,,,,,,,,,,,,,,,,,,,,,,,,315.0646487999984,315.5700575999981,315.5700575999981,316.3226091999968,316.3226091999968,316.8280588999987,316.8280588999987,317.6972724999978,317.6972724999978,None,num_4,0.41828460000033374,317.6972724999978,None,,,,,,,,,,,,,,,,,,,,,,,,,,,,,,,,,,,,,,,,,,,,,,,,,,,,,,,,,,,,,,,,,,,,,,,,,,,,,,,29,001,0,21,350,400,2022_Oct_24_1601,Experiment,2021.1.4,360.6748948324101,
images\S22_M_S_02.png,images\S22_M_S_02_scrambled.png,22,Sad,0.2,M,0,0,practice,on,2,0.5,0.75,0.5,0.783,3,,,,,,,,,,,0,7,7,6,,,,,,,,,,,,,,,,,,,,,,,,,,,,,,,,,,,,,,,,,,,318.1720261999981,318.6746665999999,318.6746665999999,319.4272110999991,319.4272110999991,319.9298089999975,319.9298089999975,320.7156780999976,320.7156780999976,None,num_4,0.42374090000157594,320.7156780999976,None,,,,,,,,,,,,,,,,,,,,,,,,,,,,,,,,,,,,,,,,,,,,,,,,,,,,,,,,,,,,,,,,,,,,,,,,,,,,,,,29,001,0,21,350,400,2022_Oct_24_1601,Experiment,2021.1.4,360.6748948324101,
,,,,,,,,,,,,,,,,,,,,,,,,,,,,,,,,,,,,,,,,,,,,,,,,,,,,,,,,,,,,,,,,,,,,,,,,,,,,,,,,,,,,,,321.17111119999754,None,space,65.40776600000027,,,,,,,,,,,,,,,,,,,,,,,,,,,,,,,,,,,,,,,,,,,,,,,,,,,,,,,,,,,,,,,,,,,,,,,,,,,29,001,0,21,350,400,2022_Oct_24_1601,Experiment,2021.1.4,360.6748948324101,
images\blank.jpg,images\blank.jpg,none,none,none,none,0,,626,on,2,0.5,0.75,0.5,0.879,0,625,1,1,1,3,3,48,192,240,,,,,,0,0,0,0,,,,,,,,,,,,,,,,,,,,,,,,,,,,,,,,,,,,,,,,,,,,,,,,,,,,,,,,,387.0425316000001,387.54518019999887,387.54518019999887,388.2978145999987,388.2978145999987,388.80035829999906,388.80035829999906,389.6835499999979,389.6835499999979,389.6835499999979,None,389.6835499999979,None,miss,1,,392.6992520399952,None,None,392.6992520399952,None,,,,,,,,,,,,,,,,,,,,,,,,,,,,,,,,,,,,,,,,,,,,,,,,,,,,,,29,001,0,21,350,400,2022_Oct_24_1601,Experiment,2021.1.4,360.6748948324101,
images\S10_M_S_02.png,images\S10_M_S_02_scrambled.png,10,sad,-20,male,2,,599,on,2,0.5,0.75,0.5,0.822,3,598,2,1,1,2,2,32,128,162,,,,,,0,1,1,1,,,,,,,,,,,,,,,,,,,,,,,,,,,,,,,,,,,,,,,,,,,,,,,,,,,,,,,,,392.8161373999974,393.3185040999997,393.3185040999997,394.0737618999992,394.0737618999992,394.57917189999716,394.57917189999716,395.40391889999955,395.40391889999955,None,num_4,395.40391889999955,392.8161373999974,happy,1,Sad,396.0398066799986,None,None,396.0398066799986,None,0.6315035999978136,,,,,,,,,,,,,,,,,,,,,,,,,,,,,,,,,,,,,,,,,,,,,,,,,,,,,29,001,0,21,350,400,2022_Oct_24_1601,Experiment,2021.1.4,360.6748948324101,
images\S2_M_S_01.png,images\S2_M_S_01_scrambled.png,2,sad,-10,male,3,,70,on,2,0.5,0.75,0.5,0.758,3,69,3,1,1,2,2,32,128,163,,,,,,0,2,2,2,,,,,,,,,,,,,,,,,,,,,,,,,,,,,,,,,,,,,,,,,,,,,,,,,,,,,,,,,396.08698529999674,396.5896044000001,396.5896044000001,397.34495869999955,397.34495869999955,397.847689299997,397.847689299997,398.60850949999804,398.60850949999804,None,num_6,398.60850949999804,None,sad,1,Sad,399.19439595999864,None,None,399.19439595999864,None,0.5712048999994295,,,,,,,,,,,,,,,,,,,,,,,,,,,,,,,,,,,,,,,,,,,,,,,,,,,,,29,001,0,21,350,400,2022_Oct_24_1601,Experiment,2021.1.4,360.6748948324101,
images\blank.jpg,images\blank.jpg,none,none,none,none,0,,646,on,2,0.5,0.75,0.5,0.802,0,645,4,1,1,3,3,48,192,240,,,,,,0,3,3,3,,,,,,,,,,,,,,,,,,,,,,,,,,,,,,,,,,,,,,,,,,,,,,,,,,,,,,,,,399.2779759999976,399.7803184999975,399.7803184999975,400.53563519999807,400.53563519999807,401.0383701999999,401.0383701999999,401.8407750999977,401.8407750999977,401.8407750999977,None,401.8407750999977,None,miss,1,,404.84268173999845,None,None,404.84268173999845,None,,,,,,,,,,,,,,,,,,,,,,,,,,,,,,,,,,,,,,,,,,,,,,,,,,,,,,29,001,0,21,350,400,2022_Oct_24_1601,Experiment,2021.1.4,360.6748948324101,
images\S3_F_S_01.png,images\S3_F_S_01_scrambled.png,3,sad,-10,female,3,,196,on,2,0.5,0.75,0.5,0.876,3,195,5,1,1,2,2,32,128,163,,,,,,0,4,4,4,,,,,,,,,,,,,,,,,,,,,,,,,,,,,,,,,,,,,,,,,,,,,,,,,,,,,,,,,404.96230269999796,405.46188359999724,405.46188359999724,406.21442899999965,406.21442899999965,406.717091399998,406.717091399998,407.6001351999985,407.6001351999985,None,num_6,407.6001351999985,404.96230269999796,sad,1,Sad,408.32773035999634,None,None,408.32773035999634,None,0.7150932999975339,,,,,,,,,,,,,,,,,,,,,,,,,,,,,,,,,,,,,,,,,,,,,,,,,,,,,29,001,0,21,350,400,2022_Oct_24_1601,Experiment,2021.1.4,360.6748948324101,
images\S7_F_H_03.png,images\S7_F_H_03_scrambled.png,7,happy,30,female,6,,159,off,1,0.5,0.75,0.5,0.828,3,158,1,1,1,0,0,0,0,6,,,,,,0,5,5,5,,,,,,,,,,,,,,,,,,,,,,,,,,,,,,,,,,,,,,,,,,,,,,,,,,,,,,,,,408.3748777999972,408.8775018999986,408.8775018999986,409.62727149999773,409.62727149999773,410.12990269999864,410.12990269999864,410.96019650000017,410.96019650000017,None,num_4,410.96019650000017,None,happy,1,Happy,411.9071651999966,None,None,411.9071651999966,None,0.9309954000018479,,,,,,,,,,,,,,,,,,,,,,,,,,,,,,,,,,,,,,,,,,,,,,,,,,,,,29,001,0,21,350,400,2022_Oct_24_1601,Experiment,2021.1.4,360.6748948324101,
images\blank.jpg,images\blank.jpg,none,none,none,none,0,,636,on,2,0.5,0.75,0.5,0.804,0,635,1,1,1,3,3,48,192,240,,,,,,0,6,6,6,,,,,,,,,,,,,,,,,,,,,,,,,,,,,,,,,,,,,,,,,,,,,,,,,,,,,,,,,411.99062669999694,412.49318459999995,412.49318459999995,413.242822799999,413.242822799999,413.74836669999786,413.74836669999786,414.5563728999987,414.5563728999987,414.5563728999987,None,414.5563728999987,None,miss,1,,417.5554571399978,None,None,417.5554571399978,None,,,,,,,,,,,,,,,,,,,,,,,,,,,,,,,,,,,,,,,,,,,,,,,,,,,,,,29,001,0,21,350,400,2022_Oct_24_1601,Experiment,2021.1.4,360.6748948324101,
images\S10_M_H_02.png,images\S10_M_H_02_scrambled.png,10,happy,20,male,5,,56,off,1,0.5,0.75,0.5,0.898,3,55,1,1,1,0,0,0,0,5,,,,,,0,7,7,7,,,,,,,,,,,,,,,,,,,,,,,,,,,,,,,,,,,,,,,,,,,,,,,,,,,,,,,,,417.67781359999935,418.1830575999993,418.1830575999993,418.9384178,418.9384178,419.44091169999956,419.44091169999956,420.34350789999735,420.34350789999735,None,None,420.34350789999735,417.67781359999935,miss,1,Happy,423.34529933999767,None,None,423.34529933999767,None,,,,,,,,,,,,,,,,,,,,,,,,,,,,,,,,,,,,,,,,,,,,,,,,,,,,,,29,001,0,21,350,400,2022_Oct_24_1601,Experiment,2021.1.4,360.6748948324101,
images\S1_F_H_02.png,images\S1_F_H_02_scrambled.png,1,happy,20,female,5,,242,off,1,0.5,0.75,0.5,0.802,3,241,2,1,2,0,0,0,0,5,,,,,,0,8,8,8,,,,,,,,,,,,,,,,,,,,,,,,,,,,,,,,,,,,,,,,,,,,,,,,,,,,,,,,,423.39527089999683,423.8978783999992,423.8978783999992,424.6476556999987,424.6476556999987,425.147498899998,425.147498899998,425.95281089999844,425.95281089999844,423.39527089999683,num_4,425.95281089999844,423.39527089999683,happy,1,Happy,426.4749154599987,None,None,426.4749154599987,None,0.5066943999991054,,,,,,,,,,,,,,,,,,,,,,,,,,,,,,,,,,,,,,,,,,,,,,,,,,,,,29,001,0,21,350,400,2022_Oct_24_1601,Experiment,2021.1.4,360.6748948324101,
images\S9_F_H_02.png,images\S9_F_H_02_scrambled.png,9,happy,20,female,5,,350,on,2,0.5,0.75,0.5,0.948,3,349,1,1,3,2,2,32,128,165,,,,,,0,9,9,9,,,,,,,,,,,,,,,,,,,,,,,,,,,,,,,,,,,,,,,,,,,,,,,,,,,,,,,,,426.5220823999989,427.02473479999753,427.02473479999753,427.77738159999717,427.77738159999717,428.2799109999978,428.2799109999978,429.23516329999984,429.23516329999984,None,num_4,429.23516329999984,None,happy,1,Happy,429.8211241599958,None,None,429.8211241599958,None,0.5761764000017138,,,,,,,,,,,,,,,,,,,,,,,,,,,,,,,,,,,,,,,,,,,,,,,,,,,,,29,001,0,21,350,400,2022_Oct_24_1601,Experiment,2021.1.4,360.6748948324101,
images\S6_M_S_01.png,images\S6_M_S_01_scrambled.png,6,sad,-10,male,3,,574,on,2,0.5,0.75,0.5,0.943,3,573,2,1,1,2,2,32,128,163,,,,,,0,10,10,10,,,,,,,,,,,,,,,,,,,,,,,,,,,,,,,,,,,,,,,,,,,,,,,,,,,,,,,,,429.8682681999999,430.37376159999985,430.37376159999985,431.12906539999676,431.12906539999676,431.6288438999982,431.6288438999982,432.57861069999853,432.57861069999853,None,num_6,432.57861069999853,None,sad,1,Sad,432.95913381999566,None,None,432.95913381999566,None,0.3527125000000524,,,,,,,,,,,,,,,,,,,,,,,,,,,,,,,,,,,,,,,,,,,,,,,,,,,,,29,001,0,21,350,400,2022_Oct_24_1601,Experiment,2021.1.4,360.6748948324101,
images\S5_F_S_02.png,images\S5_F_S_02_scrambled.png,5,sad,-20,female,2,,89,on,2,0.5,0.75,0.5,0.769,3,88,3,1,1,2,2,32,128,162,,,,,,0,11,11,11,,,,,,,,,,,,,,,,,,,,,,,,,,,,,,,,,,,,,,,,,,,,,,,,,,,,,,,,,433.0228642999973,433.5227156000001,433.5227156000001,434.2752725999999,434.2752725999999,434.7806719,434.7806719,435.55276009999943,435.55276009999943,None,num_6,435.55276009999943,None,sad,1,Sad,436.0163926599991,None,None,436.0163926599991,None,0.45060210000156076,,,,,,,,,,,,,,,,,,,,,,,,,,,,,,,,,,,,,,,,,,,,,,,,,,,,,29,001,0,21,350,400,2022_Oct_24_1601,Experiment,2021.1.4,360.6748948324101,
images\S5_F_H_03.png,images\S5_F_H_03_scrambled.png,5,happy,30,female,6,,327,on,2,0.5,0.75,0.5,0.789,3,326,4,2,1,2,2,32,128,166,,,,,,0,12,12,12,,,,,,,,,,,,,,,,,,,,,,,,,,,,,,,,,,,,,,,,,,,,,,,,,,,,,,,,,436.0635906999996,436.5662298999996,436.5662298999996,437.31882659999974,437.31882659999974,437.8242016999975,437.8242016999975,438.6155986999984,438.6155986999984,None,num_4,438.6155986999984,None,happy,1,Happy,439.39890369999557,None,None,439.39890369999557,None,0.755783299999166,,,,,,,,,,,,,,,,,,,,,,,,,,,,,,,,,,,,,,,,,,,,,,,,,,,,,29,001,0,21,350,400,2022_Oct_24_1601,Experiment,2021.1.4,360.6748948324101,
images\S6_M_H_01.png,images\S6_M_H_01_scrambled.png,6,happy,10,male,4,,331,on,2,0.5,0.75,0.5,0.791,3,330,5,1,1,2,2,32,128,164,,,,,,0,13,13,13,,,,,,,,,,,,,,,,,,,,,,,,,,,,,,,,,,,,,,,,,,,,,,,,,,,,,,,,,439.45422009999675,439.95965389999765,439.95965389999765,440.71497089999684,440.71497089999684,441.21770729999844,441.21770729999844,442.0145821999977,442.0145821999977,None,num_6,442.0145821999977,None,sad,1,Happy,442.6116075799997,None,None,442.6116075799997,None,0.5887445999978809,,,,,,,,,,,,,,,,,,,,,,,,,,,,,,,,,,,,,,,,,,,,,,,,,,,,,29,001,0,21,350,400,2022_Oct_24_1601,Experiment,2021.1.4,360.6748948324101,
images\S9_F_H_01.png,images\S9_F_H_01_scrambled.png,9,happy,10,female,4,,229,on,2,0.5,0.75,0.5,0.914,3,228,6,1,2,2,2,32,128,164,,,,,,0,14,14,14,,,,,,,,,,,,,,,,,,,,,,,,,,,,,,,,,,,,,,,,,,,,,,,,,,,,,,,,,442.6588000999982,443.1586841999997,443.1586841999997,443.90841269999873,443.90841269999873,444.41103929999736,444.41103929999736,445.33020849999957,445.33020849999957,None,num_6,445.33020849999957,None,sad,1,Happy,446.104983679999,None,None,446.104983679999,None,0.7691548000002513,,,,,,,,,,,,,,,,,,,,,,,,,,,,,,,,,,,,,,,,,,,,,,,,,,,,,29,001,0,21,350,400,2022_Oct_24_1601,Experiment,2021.1.4,360.6748948324101,
images\S8_M_S_01.png,images\S8_M_S_01_scrambled.png,8,sad,-10,male,3,,166,off,1,0.5,0.75,0.5,0.872,3,165,1,1,1,0,0,0,0,3,,,,,,0,15,15,15,,,,,,,,,,,,,,,,,,,,,,,,,,,,,,,,,,,,,,,,,,,,,,,,,,,,,,,,,446.1521628999981,446.6548103999994,446.6548103999994,447.4101398999992,447.4101398999992,447.9099538999981,447.9099538999981,448.78471290000016,448.78471290000016,None,num_6,448.78471290000016,None,sad,1,Sad,450.0010091999957,None,None,450.0010091999957,None,1.2025414000017918,,,,,,,,,,,,,,,,,,,,,,,,,,,,,,,,,,,,,,,,,,,,,,,,,,,,,29,001,0,21,350,400,2022_Oct_24_1601,Experiment,2021.1.4,360.6748948324101,
images\S1_F_H_01.png,images\S1_F_H_01_scrambled.png,1,happy,10,female,4,,361,off,1,0.5,0.75,0.5,0.815,3,360,2,1,1,0,0,0,0,4,,,,,,0,16,16,16,,,,,,,,,,,,,,,,,,,,,,,,,,,,,,,,,,,,,,,,,,,,,,,,,,,,,,,,,450.0481887999995,450.55366969999886,450.55366969999886,451.3033779999969,451.3033779999969,451.8059883999995,451.8059883999995,452.6308265999978,452.6308265999978,None,num_6,452.6308265999978,None,sad,1,Happy,453.18057867999744,None,None,453.18057867999744,None,0.540638400001626,,,,,,,,,,,,,,,,,,,,,,,,,,,,,,,,,,,,,,,,,,,,,,,,,,,,,29,001,0,21,350,400,2022_Oct_24_1601,Experiment,2021.1.4,360.6748948324101,
images\S6_M_S_03.png,images\S6_M_S_03_scrambled.png,6,sad,-30,male,1,,36,off,1,0.5,0.75,0.5,0.775,3,35,3,1,1,0,0,0,0,1,,,,,,0,17,17,17,,,,,,,,,,,,,,,,,,,,,,,,,,,,,,,,,,,,,,,,,,,,,,,,,,,,,,,,,453.2277678999999,453.7276107999969,453.7276107999969,454.48018819999925,454.48018819999925,454.9855762999978,454.9855762999978,455.76322439999785,455.76322439999785,None,num_6,455.76322439999785,None,sad,1,Sad,456.2296713599964,None,None,456.2296713599964,None,0.45598559999780264,,,,,,,,,,,,,,,,,,,,,,,,,,,,,,,,,,,,,,,,,,,,,,,,,,,,,29,001,0,21,350,400,2022_Oct_24_1601,Experiment,2021.1.4,360.6748948324101,
images\S3_F_S_02.png,images\S3_F_S_02_scrambled.png,3,sad,-20,female,2,,197,on,2,0.5,0.75,0.5,0.913,3,196,1,1,1,2,2,32,128,162,,,,,,0,18,18,18,,,,,,,,,,,,,,,,,,,,,,,,,,,,,,,,,,,,,,,,,,,,,,,,,,,,,,,,,456.279599999998,456.785023299999,456.785023299999,457.53763289999915,457.53763289999915,458.04020689999743,458.04020689999743,458.9593855999992,458.9593855999992,None,num_6,458.9593855999992,None,sad,1,Sad,459.523084859996,None,None,459.523084859996,None,0.5481957999982114,,,,,,,,,,,,,,,,,,,,,,,,,,,,,,,,,,,,,,,,,,,,,,,,,,,,,29,001,0,21,350,400,2022_Oct_24_1601,Experiment,2021.1.4,360.6748948324101,
images\blank.jpg,images\blank.jpg,none,none,none,none,0,,627,on,2,0.5,0.75,0.5,0.816,0,626,2,1,1,3,3,48,192,240,,,,,,0,19,19,19,,,,,,,,,,,,,,,,,,,,,,,,,,,,,,,,,,,,,,,,,,,,,,,,,,,,,,,,,459.6066186999997,460.11177099999986,460.11177099999986,460.8615295999989,460.8615295999989,461.3641977999978,461.3641977999978,462.18342519999715,462.18342519999715,462.18342519999715,None,462.18342519999715,None,miss,1,,465.1852509399967,None,None,465.1852509399967,None,,,,,,,,,,,,,,,,,,,,,,,,,,,,,,,,,,,,,,,,,,,,,,,,,,,,,,29,001,0,21,350,400,2022_Oct_24_1601,Experiment,2021.1.4,360.6748948324101,
images\S3_F_S_01.png,images\S3_F_S_01_scrambled.png,3,sad,-10,female,3,,76,on,2,0.5,0.75,0.5,0.912,3,75,3,1,1,2,2,32,128,163,,,,,,0,20,20,20,,,,,,,,,,,,,,,,,,,,,,,,,,,,,,,,,,,,,,,,,,,,,,,,,,,,,,,,,465.30484739999883,465.81004159999793,465.81004159999793,466.5653542999971,466.5653542999971,467.06795749999947,467.06795749999947,467.9843863999995,467.9843863999995,None,num_6,467.9843863999995,465.30484739999883,sad,1,Sad,468.51477575999814,None,None,468.51477575999814,None,0.5150250000006054,,,,,,,,,,,,,,,,,,,,,,,,,,,,,,,,,,,,,,,,,,,,,,,,,,,,,29,001,0,21,350,400,2022_Oct_24_1601,Experiment,2021.1.4,360.6748948324101,
images\S9_F_S_03.png,images\S9_F_S_03_scrambled.png,9,sad,-30,female,1,,114,on,2,0.5,0.75,0.5,0.817,3,113,4,1,1,2,2,32,128,161,,,,,,0,21,21,21,,,,,,,,,,,,,,,,,,,,,,,,,,,,,,,,,,,,,,,,,,,,,,,,,,,,,,,,,468.5619485999996,469.0646057999984,469.0646057999984,469.8170943999976,469.8170943999976,470.31976589999977,470.31976589999977,471.1389892999978,471.1389892999978,None,num_6,471.1389892999978,None,sad,1,Sad,472.0248074599978,None,None,472.0248074599978,None,0.8723491999990074,,,,,,,,,,,,,,,,,,,,,,,,,,,,,,,,,,,,,,,,,,,,,,,,,,,,,29,001,0,21,350,400,2022_Oct_24_1601,Experiment,2021.1.4,360.6748948324101,
images\blank.jpg,images\blank.jpg,none,none,none,none,0,,637,on,2,0.5,0.75,0.5,0.851,0,636,5,1,1,3,3,48,192,240,,,,,,0,22,22,22,,,,,,,,,,,,,,,,,,,,,,,,,,,,,,,,,,,,,,,,,,,,,,,,,,,,,,,,,472.1083117999988,472.60794309999983,472.60794309999983,473.3604903999985,473.3604903999985,473.8631056999984,473.8631056999984,474.7184662999971,474.7184662999971,474.7184662999971,None,474.7184662999971,None,miss,1,,477.72033757999964,None,None,477.72033757999964,None,,,,,,,,,,,,,,,,,,,,,,,,,,,,,,,,,,,,,,,,,,,,,,,,,,,,,,29,001,0,21,350,400,2022_Oct_24_1601,Experiment,2021.1.4,360.6748948324101,
images\S1_F_S_02.png,images\S1_F_S_02_scrambled.png,1,sad,-20,female,2,,5,off,1,0.5,0.75,0.5,0.779,3,4,1,1,1,0,0,0,0,2,,,,,,0,23,23,23,,,,,,,,,,,,,,,,,,,,,,,,,,,,,,,,,,,,,,,,,,,,,,,,,,,,,,,,,477.83983929999886,478.3450815999968,478.3450815999968,479.10039419999885,479.10039419999885,479.6030017999983,479.6030017999983,480.3889259999996,480.3889259999996,None,num_6,480.3889259999996,477.83983929999886,sad,1,Sad,480.8944616599976,None,None,480.8944616599976,None,0.4949728999999934,,,,,,,,,,,,,,,,,,,,,,,,,,,,,,,,,,,,,,,,,,,,,,,,,,,,,29,001,0,21,350,400,2022_Oct_24_1601,Experiment,2021.1.4,360.6748948324101,
images\S8_M_H_03.png,images\S8_M_H_03_scrambled.png,8,happy,30,male,6,,465,on,2,0.5,0.75,0.5,0.876,3,464,1,1,1,2,2,32,128,166,,,,,,0,24,24,24,,,,,,,,,,,,,,,,,,,,,,,,,,,,,,,,,,,,,,,,,,,,,,,,,,,,,,,,,480.9414745999966,481.44415409999783,481.44415409999783,482.1994732999992,482.1994732999992,482.69927069999903,482.69927069999903,483.57959309999933,483.57959309999933,None,num_6,483.57959309999933,None,sad,1,Happy,485.0957859799979,None,None,485.0957859799979,None,1.5118536000009044,,,,,,,,,,,,,,,,,,,,,,,,,,,,,,,,,,,,,,,,,,,,,,,,,,,,,29,001,0,21,350,400,2022_Oct_24_1601,Experiment,2021.1.4,360.6748948324101,
images\S9_F_S_01.png,images\S9_F_S_01_scrambled.png,9,sad,-10,female,3,,232,on,2,0.5,0.75,0.5,0.849,3,231,2,1,1,2,2,32,128,163,,,,,,0,25,25,25,,,,,,,,,,,,,,,,,,,,,,,,,,,,,,,,,,,,,,,,,,,,,,,,,,,,,,,,,485.1429661999973,485.6456032999995,485.6456032999995,486.39827030000015,486.39827030000015,486.9007615999981,486.9007615999981,487.7534115999988,487.7534115999988,None,num_6,487.7534115999988,None,sad,1,Sad,488.45036979999713,None,None,488.45036979999713,None,0.6660793000010017,,,,,,,,,,,,,,,,,,,,,,,,,,,,,,,,,,,,,,,,,,,,,,,,,,,,,29,001,0,21,350,400,2022_Oct_24_1601,Experiment,2021.1.4,360.6748948324101,
images\S3_F_H_03.png,images\S3_F_H_03_scrambled.png,3,happy,30,female,6,,555,on,2,0.5,0.75,0.5,0.923,3,554,3,1,1,2,2,32,128,166,,,,,,0,26,26,26,,,,,,,,,,,,,,,,,,,,,,,,,,,,,,,,,,,,,,,,,,,,,,,,,,,,,,,,,488.503044699999,489.00568029999704,489.00568029999704,489.7582350999983,489.7582350999983,490.263713999997,490.263713999997,491.1910986999974,491.1910986999974,None,num_4,491.1910986999974,None,happy,1,Happy,491.6854562599976,None,None,491.6854562599976,None,0.4840460000013991,,,,,,,,,,,,,,,,,,,,,,,,,,,,,,,,,,,,,,,,,,,,,,,,,,,,,29,001,0,21,350,400,2022_Oct_24_1601,Experiment,2021.1.4,360.6748948324101,
images\S8_M_S_02.png,images\S8_M_S_02_scrambled.png,8,sad,-20,male,2,,587,on,2,0.5,0.75,0.5,0.775,3,586,4,1,1,2,2,32,128,162,,,,,,0,27,27,27,,,,,,,,,,,,,,,,,,,,,,,,,,,,,,,,,,,,,,,,,,,,,,,,,,,,,,,,,491.73260429999937,492.2324415999974,492.2324415999974,492.9822269999968,492.9822269999968,493.4821127999967,493.4821127999967,494.25963649999903,494.25963649999903,None,num_6,494.25963649999903,None,sad,1,Sad,494.8983356599958,None,None,494.8983356599958,None,0.6236525999993319,,,,,,,,,,,,,,,,,,,,,,,,,,,,,,,,,,,,,,,,,,,,,,,,,,,,,29,001,0,21,350,400,2022_Oct_24_1601,Experiment,2021.1.4,360.6748948324101,
images\S6_M_H_02.png,images\S6_M_H_02_scrambled.png,6,happy,20,male,5,,452,on,2,0.5,0.75,0.5,0.923,3,451,5,1,1,2,2,32,128,165,,,,,,0,28,28,28,,,,,,,,,,,,,,,,,,,,,,,,,,,,,,,,,,,,,,,,,,,,,,,,,,,,,,,,,494.9482895999972,495.45375520000016,495.45375520000016,496.20905539999876,496.20905539999876,496.71444829999746,496.71444829999746,497.63919089999763,497.63919089999763,None,num_4,497.63919089999763,None,happy,1,Happy,498.2112042599976,None,None,498.2112042599976,None,0.5560869000000821,,,,,,,,,,,,,,,,,,,,,,,,,,,,,,,,,,,,,,,,,,,,,,,,,,,,,29,001,0,21,350,400,2022_Oct_24_1601,Experiment,2021.1.4,360.6748948324101,
images\S6_M_H_01.png,images\S6_M_H_01_scrambled.png,6,happy,10,male,4,,451,on,2,0.5,0.75,0.5,0.823,3,450,6,2,1,2,2,32,128,164,,,,,,0,29,29,29,,,,,,,,,,,,,,,,,,,,,,,,,,,,,,,,,,,,,,,,,,,,,,,,,,,,,,,,,498.25838739999745,498.76383669999996,498.76383669999996,499.51356849999866,499.51356849999866,500.0189941999997,500.0189941999997,500.84374709999975,500.84374709999975,None,num_4,500.84374709999975,None,happy,1,Happy,501.3768972599966,None,None,501.3768972599966,None,0.5192786999978125,,,,,,,,,,,,,,,,,,,,,,,,,,,,,,,,,,,,,,,,,,,,,,,,,,,,,29,001,0,21,350,400,2022_Oct_24_1601,Experiment,2021.1.4,360.6748948324101,
images\S7_F_H_01.png,images\S7_F_H_01_scrambled.png,7,happy,10,female,4,,337,on,2,0.5,0.75,0.5,0.939,3,336,7,1,2,2,2,32,128,164,,,,,,0,30,30,30,,,,,,,,,,,,,,,,,,,,,,,,,,,,,,,,,,,,,,,,,,,,,,,,,,,,,,,,,501.42408219999925,501.92951699999685,501.92951699999685,502.68202329999986,502.68202329999986,503.1846704999989,503.1846704999989,504.12883899999724,504.12883899999724,None,num_4,504.12883899999724,None,happy,1,Happy,504.66496565999586,None,None,504.66496565999586,None,0.5071238000018639,,,,,,,,,,,,,,,,,,,,,,,,,,,,,,,,,,,,,,,,,,,,,,,,,,,,,29,001,0,21,350,400,2022_Oct_24_1601,Experiment,2021.1.4,360.6748948324101,
images\S2_M_S_01.png,images\S2_M_S_01_scrambled.png,2,sad,-10,male,3,,10,off,1,0.5,0.75,0.5,0.947,3,9,1,1,1,0,0,0,0,3,,,,,,0,31,31,31,,,,,,,,,,,,,,,,,,,,,,,,,,,,,,,,,,,,,,,,,,,,,,,,,,,,,,,,,504.71750899999824,505.2201241999974,505.2201241999974,505.97270359999675,505.97270359999675,506.47254319999774,506.47254319999774,507.425037099998,507.425037099998,None,num_6,507.425037099998,None,sad,1,Sad,508.01378515999676,None,None,508.01378515999676,None,0.578237400000944,,,,,,,,,,,,,,,,,,,,,,,,,,,,,,,,,,,,,,,,,,,,,,,,,,,,,29,001,0,21,350,400,2022_Oct_24_1601,Experiment,2021.1.4,360.6748948324101,
images\S6_M_S_01.png,images\S6_M_S_01_scrambled.png,6,sad,-10,male,3,,514,off,1,0.5,0.75,0.5,0.803,3,513,2,1,2,0,0,0,0,3,,,,,,0,32,32,32,,,,,,,,,,,,,,,,,,,,,,,,,,,,,,,,,,,,,,,,,,,,,,,,,,,,,,,,,508.0609211999981,508.5635513999987,508.5635513999987,509.3133061999979,509.3133061999979,509.81877389999863,509.81877389999863,510.6240650999971,510.6240650999971,None,num_4,510.6240650999971,None,happy,1,Sad,511.0600204799972,None,None,511.0600204799972,None,0.42730870000013965,,,,,,,,,,,,,,,,,,,,,,,,,,,,,,,,,,,,,,,,,,,,,,,,,,,,,29,001,0,21,350,400,2022_Oct_24_1601,Experiment,2021.1.4,360.6748948324101,
images\S5_F_H_03.png,images\S5_F_H_03_scrambled.png,5,happy,30,female,6,,567,on,2,0.5,0.75,0.5,0.753,3,566,1,1,1,2,2,32,128,166,,,,,,0,33,33,33,,,,,,,,,,,,,,,,,,,,,,,,,,,,,,,,,,,,,,,,,,,,,,,,,,,,,,,,,511.1072107999971,511.60986649999904,511.60986649999904,512.3624174999968,512.3624174999968,512.8650006999997,512.8650006999997,513.623246799998,513.623246799998,None,num_4,513.623246799998,None,happy,1,Happy,514.2425039199974,None,None,514.2425039199974,None,0.5962306000001263,,,,,,,,,,,,,,,,,,,,,,,,,,,,,,,,,,,,,,,,,,,,,,,,,,,,,29,001,0,21,350,400,2022_Oct_24_1601,Experiment,2021.1.4,360.6748948324101,
images\S10_M_S_02.png,images\S10_M_S_02_scrambled.png,10,sad,-20,male,2,,419,off,1,0.5,0.75,0.5,0.885,3,418,1,1,1,0,0,0,0,2,,,,,,0,34,34,34,,,,,,,,,,,,,,,,,,,,,,,,,,,,,,,,,,,,,,,,,,,,,,,,,,,,,,,,,514.2951212999978,514.7949660999984,514.7949660999984,515.5447335999997,515.5447335999997,516.0501685999989,516.0501685999989,516.9387962000001,516.9387962000001,None,num_6,516.9387962000001,None,sad,1,Sad,517.952379159996,None,None,517.952379159996,None,1.000493399998959,,,,,,,,,,,,,,,,,,,,,,,,,,,,,,,,,,,,,,,,,,,,,,,,,,,,,29,001,0,21,350,400,2022_Oct_24_1601,Experiment,2021.1.4,360.6748948324101,
images\S4_M_H_03.png,images\S4_M_H_03_scrambled.png,4,happy,30,male,6,,441,on,2,0.5,0.75,0.5,0.835,3,440,1,1,1,2,2,32,128,166,,,,,,0,35,35,35,,,,,,,,,,,,,,,,,,,,,,,,,,,,,,,,,,,,,,,,,,,,,,,,,,,,,,,,,517.999547899999,518.4993823999976,518.4993823999976,519.2491564999982,519.2491564999982,519.7545967999977,519.7545967999977,520.5933121999988,520.5933121999988,None,num_4,520.5933121999988,None,happy,1,Happy,521.4291667999987,None,None,521.4291667999987,None,0.8182903000015358,,,,,,,,,,,,,,,,,,,,,,,,,,,,,,,,,,,,,,,,,,,,,,,,,,,,,29,001,0,21,350,400,2022_Oct_24_1601,Experiment,2021.1.4,360.6748948324101,
images\S3_F_H_03.png,images\S3_F_H_03_scrambled.png,3,happy,30,female,6,,375,off,1,0.5,0.75,0.5,0.805,3,374,1,1,2,0,0,0,0,6,,,,,,0,36,36,36,,,,,,,,,,,,,,,,,,,,,,,,,,,,,,,,,,,,,,,,,,,,,,,,,,,,,,,,,521.4762511999979,521.978879899998,521.978879899998,522.7342555999967,522.7342555999967,523.2368159999969,523.2368159999969,524.0449042,524.0449042,None,num_4,524.0449042,None,happy,1,Happy,524.4531999599959,None,None,524.4531999599959,None,0.3984405000010156,,,,,,,,,,,,,,,,,,,,,,,,,,,,,,,,,,,,,,,,,,,,,,,,,,,,,29,001,0,21,350,400,2022_Oct_24_1601,Experiment,2021.1.4,360.6748948324101,
images\S6_M_H_02.png,images\S6_M_H_02_scrambled.png,6,happy,20,male,5,,512,off,1,0.5,0.75,0.5,0.938,3,511,2,1,1,0,0,0,0,5,,,,,,0,37,37,37,,,,,,,,,,,,,,,,,,,,,,,,,,,,,,,,,,,,,,,,,,,,,,,,,,,,,,,,,524.5169881999973,525.0196447999988,525.0196447999988,525.7693747999983,525.7693747999983,526.2692228999986,526.2692228999986,527.2078131999988,527.2078131999988,None,num_6,527.2078131999988,None,sad,1,Happy,527.6606088199991,None,None,527.6606088199991,None,0.4437571999987995,,,,,,,,,,,,,,,,,,,,,,,,,,,,,,,,,,,,,,,,,,,,,,,,,,,,,29,001,0,21,350,400,2022_Oct_24_1601,Experiment,2021.1.4,360.6748948324101,
images\S6_M_S_03.png,images\S6_M_S_03_scrambled.png,6,sad,-30,male,1,,276,off,1,0.5,0.75,0.5,0.826,3,275,3,2,1,0,0,0,0,1,,,,,,0,38,38,38,,,,,,,,,,,,,,,,,,,,,,,,,,,,,,,,,,,,,,,,,,,,,,,,,,,,,,,,,527.7215503999978,528.2241624999988,528.2241624999988,528.9795376999973,528.9795376999973,529.4821631999985,529.4821631999985,530.3125568999967,530.3125568999967,None,num_6,530.3125568999967,None,sad,1,Sad,531.3454804599961,None,None,531.3454804599961,None,1.0188459000019066,,,,,,,,,,,,,,,,,,,,,,,,,,,,,,,,,,,,,,,,,,,,,,,,,,,,,29,001,0,21,350,400,2022_Oct_24_1601,Experiment,2021.1.4,360.6748948324101,
images\S5_F_H_02.png,images\S5_F_H_02_scrambled.png,5,happy,20,female,5,,86,on,2,0.5,0.75,0.5,0.882,3,85,1,1,1,2,2,32,128,165,,,,,,0,39,39,39,,,,,,,,,,,,,,,,,,,,,,,,,,,,,,,,,,,,,,,,,,,,,,,,,,,,,,,,,531.3926555999969,531.8952805999979,531.8952805999979,532.6479660999976,532.6479660999976,533.1476965000002,533.1476965000002,534.030730399998,534.030730399998,None,num_4,534.030730399998,None,happy,1,Happy,534.8138940599957,None,None,534.8138940599957,None,0.7725199000014982,,,,,,,,,,,,,,,,,,,,,,,,,,,,,,,,,,,,,,,,,,,,,,,,,,,,,29,001,0,21,350,400,2022_Oct_24_1601,Experiment,2021.1.4,360.6748948324101,
images\S4_M_S_03.png,images\S4_M_S_03_scrambled.png,4,sad,-30,male,1,,504,off,1,0.5,0.75,0.5,0.906,3,503,1,1,1,0,0,0,0,1,,,,,,0,40,40,40,,,,,,,,,,,,,,,,,,,,,,,,,,,,,,,,,,,,,,,,,,,,,,,,,,,,,,,,,534.8776839999991,535.3803305999973,535.3803305999973,536.1356541999994,536.1356541999994,536.6382782999972,536.6382782999972,537.549135199999,537.549135199999,None,num_4,537.549135199999,None,happy,1,Sad,539.0208890799963,None,None,539.0208890799963,None,1.4622649000011734,,,,,,,,,,,,,,,,,,,,,,,,,,,,,,,,,,,,,,,,,,,,,,,,,,,,,29,001,0,21,350,400,2022_Oct_24_1601,Experiment,2021.1.4,360.6748948324101,
images\S8_M_H_03.png,images\S8_M_H_03_scrambled.png,8,happy,30,male,6,,225,on,2,0.5,0.75,0.5,0.847,3,224,1,1,1,2,2,32,128,166,,,,,,0,41,41,41,,,,,,,,,,,,,,,,,,,,,,,,,,,,,,,,,,,,,,,,,,,,,,,,,,,,,,,,,539.0680649999995,539.5735514999978,539.5735514999978,540.3232568999993,540.3232568999993,540.8287075999979,540.8287075999979,541.6783991999982,541.6783991999982,None,num_4,541.6783991999982,None,happy,1,Happy,543.686120559999,None,None,543.686120559999,None,1.996932400001242,,,,,,,,,,,,,,,,,,,,,,,,,,,,,,,,,,,,,,,,,,,,,,,,,,,,,29,001,0,21,350,400,2022_Oct_24_1601,Experiment,2021.1.4,360.6748948324101,
images\S2_M_H_02.png,images\S2_M_H_02_scrambled.png,2,happy,20,male,5,,548,on,2,0.5,0.75,0.5,0.785,3,547,2,1,1,2,2,32,128,165,,,,,,0,42,42,42,,,,,,,,,,,,,,,,,,,,,,,,,,,,,,,,,,,,,,,,,,,,,,,,,,,,,,,,,543.7333020999977,544.238760799999,544.238760799999,544.9940850999992,544.9940850999992,545.4966533999977,545.4966533999977,546.2882118999987,546.2882118999987,None,num_4,546.2882118999987,None,happy,1,Happy,547.7904192599991,None,None,547.7904192599991,None,1.4910022000003664,,,,,,,,,,,,,,,,,,,,,,,,,,,,,,,,,,,,,,,,,,,,,,,,,,,,,29,001,0,21,350,400,2022_Oct_24_1601,Experiment,2021.1.4,360.6748948324101,
images\S5_F_S_01.png,images\S5_F_S_01_scrambled.png,5,sad,-10,female,3,,268,off,1,0.5,0.75,0.5,0.792,3,267,1,1,1,0,0,0,0,3,,,,,,0,43,43,43,,,,,,,,,,,,,,,,,,,,,,,,,,,,,,,,,,,,,,,,,,,,,,,,,,,,,,,,,547.840427799998,548.3430842999987,548.3430842999987,549.0927671999998,549.0927671999998,549.5983035999998,549.5983035999998,550.3951646999994,550.3951646999994,None,num_4,550.3951646999994,None,happy,1,Sad,551.2199154799978,None,None,551.2199154799978,None,0.8163109999986773,,,,,,,,,,,,,,,,,,,,,,,,,,,,,,,,,,,,,,,,,,,,,,,,,,,,,29,001,0,21,350,400,2022_Oct_24_1601,Experiment,2021.1.4,360.6748948324101,
images\S10_M_S_01.png,images\S10_M_S_01_scrambled.png,10,sad,-10,male,3,,178,off,1,0.5,0.75,0.5,0.853,3,177,2,1,2,0,0,0,0,3,,,,,,0,44,44,44,,,,,,,,,,,,,,,,,,,,,,,,,,,,,,,,,,,,,,,,,,,,,,,,,,,,,,,,,551.2670938999981,551.7697496000001,551.7697496000001,552.5223967999991,552.5223967999991,553.0248935999989,553.0248935999989,553.8801961999998,553.8801961999998,None,num_4,553.8801961999998,None,happy,1,Sad,554.407859579996,None,None,554.407859579996,None,0.5228209999986575,,,,,,,,,,,,,,,,,,,,,,,,,,,,,,,,,,,,,,,,,,,,,,,,,,,,,29,001,0,21,350,400,2022_Oct_24_1601,Experiment,2021.1.4,360.6748948324101,
images\S4_M_H_03.png,images\S4_M_H_03_scrambled.png,4,happy,30,male,6,,501,off,1,0.5,0.75,0.5,0.948,3,500,3,1,1,0,0,0,0,6,,,,,,0,45,45,45,,,,,,,,,,,,,,,,,,,,,,,,,,,,,,,,,,,,,,,,,,,,,,,,,,,,,,,,,554.4550026999968,554.960425199999,554.960425199999,555.7157419999967,555.7157419999967,556.2155781999973,556.2155781999973,557.1680639999977,557.1680639999977,None,num_4,557.1680639999977,None,happy,1,Happy,557.6901527599977,None,None,557.6901527599977,None,0.5071291000022029,,,,,,,,,,,,,,,,,,,,,,,,,,,,,,,,,,,,,,,,,,,,,,,,,,,,,29,001,0,21,350,400,2022_Oct_24_1601,Experiment,2021.1.4,360.6748948324101,
images\S1_F_S_01.png,images\S1_F_S_01_scrambled.png,1,sad,-10,female,3,,424,on,2,0.5,0.75,0.5,0.829,3,423,1,1,1,2,2,32,128,163,,,,,,0,46,46,46,,,,,,,,,,,,,,,,,,,,,,,,,,,,,,,,,,,,,,,,,,,,,,,,,,,,,,,,,557.7401080999989,558.2455260999996,558.2455260999996,558.9980758999991,558.9980758999991,559.5035332999978,559.5035332999978,560.3393526999971,560.3393526999971,None,num_6,560.3393526999971,None,sad,1,Sad,561.1558742799966,None,None,561.1558742799966,None,0.7923470999994606,,,,,,,,,,,,,,,,,,,,,,,,,,,,,,,,,,,,,,,,,,,,,,,,,,,,,29,001,0,21,350,400,2022_Oct_24_1601,Experiment,2021.1.4,360.6748948324101,
images\S7_F_S_01.png,images\S7_F_S_01_scrambled.png,7,sad,-10,female,3,,220,on,2,0.5,0.75,0.5,0.927,3,219,2,1,2,2,2,32,128,163,,,,,,0,47,47,47,,,,,,,,,,,,,,,,,,,,,,,,,,,,,,,,,,,,,,,,,,,,,,,,,,,,,,,,,561.2084880999973,561.7139429999988,561.7139429999988,562.4664763000001,562.4664763000001,562.9663364999979,562.9663364999979,563.8966153000001,563.8966153000001,None,num_4,563.8966153000001,None,happy,1,Sad,564.2686758799987,None,None,564.2686758799987,None,0.3627051000003121,,,,,,,,,,,,,,,,,,,,,,,,,,,,,,,,,,,,,,,,,,,,,,,,,,,,,29,001,0,21,350,400,2022_Oct_24_1601,Experiment,2021.1.4,360.6748948324101,
images\S6_M_S_02.png,images\S6_M_S_02_scrambled.png,6,sad,-20,male,2,,455,on,2,0.5,0.75,0.5,0.751,3,454,3,1,1,2,2,32,128,162,,,,,,0,48,48,48,,,,,,,,,,,,,,,,,,,,,,,,,,,,,,,,,,,,,,,,,,,,,,,,,,,,,,,,,564.3158681999994,564.8185035999995,564.8185035999995,565.573870799999,565.573870799999,566.0792557999994,566.0792557999994,566.8345848999998,566.8345848999998,None,num_6,566.8345848999998,None,sad,1,Sad,567.6815368599956,None,None,567.6815368599956,None,0.8327788999995391,,,,,,,,,,,,,,,,,,,,,,,,,,,,,,,,,,,,,,,,,,,,,,,,,,,,,29,001,0,21,350,400,2022_Oct_24_1601,Experiment,2021.1.4,360.6748948324101,
images\S10_M_S_03.png,images\S10_M_S_03_scrambled.png,10,sad,-30,male,1,,420,off,1,0.5,0.75,0.5,0.813,3,419,1,1,1,0,0,0,0,1,,,,,,0,49,49,49,,,,,,,,,,,,,,,,,,,,,,,,,,,,,,,,,,,,,,,,,,,,,,,,,,,,,,,,,567.7287174999983,568.2341641999992,568.2341641999992,568.9894730999986,568.9894730999986,569.4920987999976,569.4920987999976,570.3086140999985,570.3086140999985,None,num_4,570.3086140999985,None,happy,1,Sad,570.8000193799976,None,None,570.8000193799976,None,0.48651600000084727,,,,,,,,,,,,,,,,,,,,,,,,,,,,,,,,,,,,,,,,,,,,,,,,,,,,,29,001,0,21,350,400,2022_Oct_24_1601,Experiment,2021.1.4,360.6748948324101,
images\S9_F_S_01.png,images\S9_F_S_01_scrambled.png,9,sad,-10,female,3,,412,off,1,0.5,0.75,0.5,0.876,3,411,2,1,1,0,0,0,0,3,,,,,,0,50,50,50,,,,,,,,,,,,,,,,,,,,,,,,,,,,,,,,,,,,,,,,,,,,,,,,,,,,,,,,,570.8471922999997,571.3498478000001,571.3498478000001,572.1051771999992,572.1051771999992,572.6105595999979,572.6105595999979,573.4936868999976,573.4936868999976,None,num_4,573.4936868999976,None,happy,1,Sad,574.285051579996,None,None,574.285051579996,None,0.7816201999994519,,,,,,,,,,,,,,,,,,,,,,,,,,,,,,,,,,,,,,,,,,,,,,,,,,,,,29,001,0,21,350,400,2022_Oct_24_1601,Experiment,2021.1.4,360.6748948324101,
images\S2_M_H_01.png,images\S2_M_H_01_scrambled.png,2,happy,10,male,4,,307,on,2,0.5,0.75,0.5,0.856,3,306,1,1,1,2,2,32,128,164,,,,,,0,51,51,51,,,,,,,,,,,,,,,,,,,,,,,,,,,,,,,,,,,,,,,,,,,,,,,,,,,,,,,,,574.3322434999973,574.8348939999996,574.8348939999996,575.5902103999979,575.5902103999979,576.0928041999978,576.0928041999978,576.9536817999979,576.9536817999979,None,num_4,576.9536817999979,None,happy,1,Happy,577.8007373399948,None,None,577.8007373399948,None,0.8176399000003585,,,,,,,,,,,,,,,,,,,,,,,,,,,,,,,,,,,,,,,,,,,,,,,,,,,,,29,001,0,21,350,400,2022_Oct_24_1601,Experiment,2021.1.4,360.6748948324101,
images\S1_F_H_01.png,images\S1_F_H_01_scrambled.png,1,happy,10,female,4,,421,on,2,0.5,0.75,0.5,0.85,3,420,2,1,2,2,2,32,128,164,,,,,,0,52,52,52,,,,,,,,,,,,,,,,,,,,,,,,,,,,,,,,,,,,,,,,,,,,,,,,,,,,,,,,,577.8533785999971,578.3560124999967,578.3560124999967,579.1086247999992,579.1086247999992,579.6140043999985,579.6140043999985,580.4636857999976,580.4636857999976,None,num_4,580.4636857999976,None,happy,1,Happy,581.4384410599988,None,None,581.4384410599988,None,0.9635693999989599,,,,,,,,,,,,,,,,,,,,,,,,,,,,,,,,,,,,,,,,,,,,,,,,,,,,,29,001,0,21,350,400,2022_Oct_24_1601,Experiment,2021.1.4,360.6748948324101,
images\S9_F_H_02.png,images\S9_F_H_02_scrambled.png,9,happy,20,female,5,,470,on,2,0.5,0.75,0.5,0.942,3,469,3,1,1,2,2,32,128,165,,,,,,0,53,53,53,,,,,,,,,,,,,,,,,,,,,,,,,,,,,,,,,,,,,,,,,,,,,,,,,,,,,,,,,581.4855940999987,581.9883483999984,581.9883483999984,582.7407759999987,582.7407759999987,583.2434661999978,583.2434661999978,584.184763199999,584.184763199999,None,num_4,584.184763199999,None,happy,1,Happy,585.1346453599973,None,None,585.1346453599973,None,0.9390510000012,,,,,,,,,,,,,,,,,,,,,,,,,,,,,,,,,,,,,,,,,,,,,,,,,,,,,29,001,0,21,350,400,2022_Oct_24_1601,Experiment,2021.1.4,360.6748948324101,
images\S5_F_S_01.png,images\S5_F_S_01_scrambled.png,5,sad,-10,female,3,,508,off,1,0.5,0.75,0.5,0.818,3,507,1,1,1,0,0,0,0,3,,,,,,0,54,54,54,,,,,,,,,,,,,,,,,,,,,,,,,,,,,,,,,,,,,,,,,,,,,,,,,,,,,,,,,585.184457299998,585.6898846999975,585.6898846999975,586.4452012999973,586.4452012999973,586.9506064999987,586.9506064999987,587.7726838999988,587.7726838999988,None,num_6,587.7726838999988,None,sad,1,Sad,588.2391872999942,None,None,588.2391872999942,None,0.43869160000031115,,,,,,,,,,,,,,,,,,,,,,,,,,,,,,,,,,,,,,,,,,,,,,,,,,,,,29,001,0,21,350,400,2022_Oct_24_1601,Experiment,2021.1.4,360.6748948324101,
images\S6_M_H_01.png,images\S6_M_H_01_scrambled.png,6,happy,10,male,4,,511,off,1,0.5,0.75,0.5,0.861,3,510,2,1,1,0,0,0,0,4,,,,,,0,55,55,55,,,,,,,,,,,,,,,,,,,,,,,,,,,,,,,,,,,,,,,,,,,,,,,,,,,,,,,,,588.2946155999998,588.8000106999971,588.8000106999971,589.5553622999978,589.5553622999978,590.058039399999,590.058039399999,590.9216425999984,590.9216425999984,None,num_6,590.9216425999984,None,sad,1,Happy,591.346470779999,None,None,591.346470779999,None,0.4175986999980523,,,,,,,,,,,,,,,,,,,,,,,,,,,,,,,,,,,,,,,,,,,,,,,,,,,,,29,001,0,21,350,400,2022_Oct_24_1601,Experiment,2021.1.4,360.6748948324101,
images\S9_F_S_03.png,images\S9_F_S_03_scrambled.png,9,sad,-30,female,1,,354,on,2,0.5,0.75,0.5,0.853,3,353,1,1,1,2,2,32,128,161,,,,,,0,56,56,56,,,,,,,,,,,,,,,,,,,,,,,,,,,,,,,,,,,,,,,,,,,,,,,,,,,,,,,,,591.3936650999967,591.8991050999975,591.8991050999975,592.6544351999983,592.6544351999983,593.1598141999966,593.1598141999966,594.0151072999979,594.0151072999979,None,num_6,594.0151072999979,None,sad,1,Sad,594.3872624999985,None,None,594.3872624999985,None,0.3563585999982024,,,,,,,,,,,,,,,,,,,,,,,,,,,,,,,,,,,,,,,,,,,,,,,,,,,,,29,001,0,21,350,400,2022_Oct_24_1601,Experiment,2021.1.4,360.6748948324101,
images\S2_M_H_03.png,images\S2_M_H_03_scrambled.png,2,happy,30,male,6,,129,off,1,0.5,0.75,0.5,0.934,3,128,1,1,1,0,0,0,0,6,,,,,,0,57,57,57,,,,,,,,,,,,,,,,,,,,,,,,,,,,,,,,,,,,,,,,,,,,,,,,,,,,,,,,,594.4371713999972,594.9370168999994,594.9370168999994,595.6896039999992,595.6896039999992,596.1922281999978,596.1922281999978,597.1308009999993,597.1308009999993,None,num_4,597.1308009999993,None,happy,1,Happy,597.9195946599967,None,None,597.9195946599967,None,0.7767791000005673,,,,,,,,,,,,,,,,,,,,,,,,,,,,,,,,,,,,,,,,,,,,,,,,,,,,,29,001,0,21,350,400,2022_Oct_24_1601,Experiment,2021.1.4,360.6748948324101,
images\blank.jpg,images\blank.jpg,none,none,none,none,0,,648,on,2,0.5,0.75,0.5,0.773,0,647,1,1,1,3,3,48,192,240,,,,,,0,58,58,58,,,,,,,,,,,,,,,,,,,,,,,,,,,,,,,,,,,,,,,,,,,,,,,,,,,,,,,,,598.0196220999969,598.5220329999975,598.5220329999975,599.2745748999987,599.2745748999987,599.7744228999982,599.7744228999982,600.5464022999986,600.5464022999986,600.5464022999986,None,600.5464022999986,None,miss,1,,603.5482869399991,None,None,603.5482869399991,None,,,,,,,,,,,,,,,,,,,,,,,,,,,,,,,,,,,,,,,,,,,,,,,,,,,,,,29,001,0,21,350,400,2022_Oct_24_1601,Experiment,2021.1.4,360.6748948324101,
images\blank.jpg,images\blank.jpg,none,none,none,none,0,,610,on,2,0.5,0.75,0.5,0.752,0,609,2,2,2,3,3,48,192,240,,,,,,0,59,59,59,,,,,,,,,,,,,,,,,,,,,,,,,,,,,,,,,,,,,,,,,,,,,,,,,,,,,,,,,603.5704737999986,604.0730913999978,604.0730913999978,604.828505999998,604.828505999998,605.3338731999975,605.3338731999975,606.089185599998,606.089185599998,606.089185599998,None,606.089185599998,603.5704737999986,miss,1,,609.0910663799964,None,None,609.0910663799964,None,,,,,,,,,,,,,,,,,,,,,,,,,,,,,,,,,,,,,,,,,,,,,,,,,,,,,,29,001,0,21,350,400,2022_Oct_24_1601,Experiment,2021.1.4,360.6748948324101,
images\S2_M_S_01.png,images\S2_M_S_01_scrambled.png,2,sad,-10,male,3,,430,on,2,0.5,0.75,0.5,0.928,3,429,3,1,1,2,2,32,128,163,,,,,,0,60,60,60,,,,,,,,,,,,,,,,,,,,,,,,,,,,,,,,,,,,,,,,,,,,,,,,,,,,,,,,,609.2077235999968,609.710280299998,609.710280299998,610.4629412999966,610.4629412999966,610.9626580999975,610.9626580999975,611.8930530999969,611.8930530999969,None,num_6,611.8930530999969,609.2077235999968,sad,1,Sad,612.4790565199968,None,None,612.4790565199968,None,0.5590655999985756,,,,,,,,,,,,,,,,,,,,,,,,,,,,,,,,,,,,,,,,,,,,,,,,,,,,,29,001,0,21,350,400,2022_Oct_24_1601,Experiment,2021.1.4,360.6748948324101,
images\S2_M_S_01.png,images\S2_M_S_01_scrambled.png,2,sad,-10,male,3,,310,on,2,0.5,0.75,0.5,0.852,3,309,4,2,2,2,2,32,128,163,,,,,,0,61,61,61,,,,,,,,,,,,,,,,,,,,,,,,,,,,,,,,,,,,,,,,,,,,,,,,,,,,,,,,,612.5316151999978,613.0342778999984,613.0342778999984,613.7895997999985,613.7895997999985,614.2894297999992,614.2894297999992,615.1447383999985,615.1447383999985,None,num_6,615.1447383999985,None,sad,1,Sad,616.0945396599956,None,None,616.0945396599956,None,0.9387833000000683,,,,,,,,,,,,,,,,,,,,,,,,,,,,,,,,,,,,,,,,,,,,,,,,,,,,,29,001,0,21,350,400,2022_Oct_24_1601,Experiment,2021.1.4,360.6748948324101,
images\S7_F_H_02.png,images\S7_F_H_02_scrambled.png,7,happy,20,female,5,,278,off,1,0.5,0.75,0.5,0.941,3,277,1,1,1,0,0,0,0,5,,,,,,0,62,62,62,,,,,,,,,,,,,,,,,,,,,,,,,,,,,,,,,,,,,,,,,,,,,,,,,,,,,,,,,616.1416206999966,616.6442802999991,616.6442802999991,617.3996047,617.3996047,617.8994510999983,617.8994510999983,618.840794599997,618.840794599997,None,num_4,618.840794599997,None,happy,1,Happy,620.8013311599963,None,None,620.8013311599963,None,1.9465052999985346,,,,,,,,,,,,,,,,,,,,,,,,,,,,,,,,,,,,,,,,,,,,,,,,,,,,,29,001,0,21,350,400,2022_Oct_24_1601,Experiment,2021.1.4,360.6748948324101,
images\S8_M_H_03.png,images\S8_M_H_03_scrambled.png,8,happy,30,male,6,,105,on,2,0.5,0.75,0.5,0.948,3,104,1,1,1,2,2,32,128,166,,,,,,0,63,63,63,,,,,,,,,,,,,,,,,,,,,,,,,,,,,,,,,,,,,,,,,,,,,,,,,,,,,,,,,620.8485034999976,621.3539511999988,621.3539511999988,622.1036834999977,622.1036834999977,622.6063514999987,622.6063514999987,623.5587884999986,623.5587884999986,None,num_4,623.5587884999986,None,happy,1,Happy,623.9782795199957,None,None,623.9782795199957,None,0.3968730999986292,,,,,,,,,,,,,,,,,,,,,,,,,,,,,,,,,,,,,,,,,,,,,,,,,,,,,29,001,0,21,350,400,2022_Oct_24_1601,Experiment,2021.1.4,360.6748948324101,
images\S6_M_S_03.png,images\S6_M_S_03_scrambled.png,6,sad,-30,male,1,,396,off,1,0.5,0.75,0.5,0.866,3,395,1,1,1,0,0,0,0,1,,,,,,0,64,64,64,,,,,,,,,,,,,,,,,,,,,,,,,,,,,,,,,,,,,,,,,,,,,,,,,,,,,,,,,624.0308630999971,624.5336222999977,624.5336222999977,625.2860243999967,625.2860243999967,625.7887228999971,625.7887228999971,626.6579556999968,626.6579556999968,None,num_4,626.6579556999968,None,happy,1,Sad,627.5159266799978,None,None,627.5159266799978,None,0.8494833000004292,,,,,,,,,,,,,,,,,,,,,,,,,,,,,,,,,,,,,,,,,,,,,,,,,,,,,29,001,0,21,350,400,2022_Oct_24_1601,Experiment,2021.1.4,360.6748948324101,
images\S3_F_S_03.png,images\S3_F_S_03_scrambled.png,3,sad,-30,female,1,,258,off,1,0.5,0.75,0.5,0.793,3,257,2,1,2,0,0,0,0,1,,,,,,0,65,65,65,,,,,,,,,,,,,,,,,,,,,,,,,,,,,,,,,,,,,,,,,,,,,,,,,,,,,,,,,627.5631036999985,628.0629548999968,628.0629548999968,628.8127515999986,628.8127515999986,629.3182521999988,629.3182521999988,630.1151214999991,630.1151214999991,None,num_6,630.1151214999991,None,sad,1,Sad,631.0176378599964,None,None,631.0176378599964,None,0.8882431000020006,,,,,,,,,,,,,,,,,,,,,,,,,,,,,,,,,,,,,,,,,,,,,,,,,,,,,29,001,0,21,350,400,2022_Oct_24_1601,Experiment,2021.1.4,360.6748948324101,
images\blank.jpg,images\blank.jpg,none,none,none,none,0,,612,on,2,0.5,0.75,0.5,0.766,0,611,1,1,1,3,3,48,192,240,,,,,,0,66,66,66,,,,,,,,,,,,,,,,,,,,,,,,,,,,,,,,,,,,,,,,,,,,,,,,,,,,,,,,,631.1011634999995,631.6036615999983,631.6036615999983,632.3589119999997,632.3589119999997,632.8614836999986,632.8614836999986,633.6335571999989,633.6335571999989,633.6335571999989,None,633.6335571999989,None,miss,1,,636.6381901799991,None,None,636.6381901799991,None,,,,,,,,,,,,,,,,,,,,,,,,,,,,,,,,,,,,,,,,,,,,,,,,,,,,,,29,001,0,21,350,400,2022_Oct_24_1601,Experiment,2021.1.4,360.6748948324101,
images\S4_M_S_02.png,images\S4_M_S_02_scrambled.png,4,sad,-20,male,2,,23,off,1,0.5,0.75,0.5,0.753,3,22,1,1,1,0,0,0,0,2,,,,,,0,67,67,67,,,,,,,,,,,,,,,,,,,,,,,,,,,,,,,,,,,,,,,,,,,,,,,,,,,,,,,,,636.7605761999985,637.2629240999995,637.2629240999995,638.0183217999984,638.0183217999984,638.5208615999982,638.5208615999982,639.2761900999976,639.2761900999976,None,num_6,639.2761900999976,636.7605761999985,sad,1,Sad,640.034315459997,None,None,640.034315459997,None,0.7430977999974857,,,,,,,,,,,,,,,,,,,,,,,,,,,,,,,,,,,,,,,,,,,,,,,,,,,,,29,001,0,21,350,400,2022_Oct_24_1601,Experiment,2021.1.4,360.6748948324101,
images\S8_M_H_03.png,images\S8_M_H_03_scrambled.png,8,happy,30,male,6,,165,off,1,0.5,0.75,0.5,0.838,3,164,2,1,1,0,0,0,0,6,,,,,,0,68,68,68,,,,,,,,,,,,,,,,,,,,,,,,,,,,,,,,,,,,,,,,,,,,,,,,,,,,,,,,,640.0814838999977,640.5841561999987,640.5841561999987,641.3394582999972,641.3394582999972,641.8420244999979,641.8420244999979,642.6834778999983,642.6834778999983,None,num_4,642.6834778999983,None,happy,1,Happy,643.0473191199948,None,None,643.0473191199948,None,0.33604120000018156,,,,,,,,,,,,,,,,,,,,,,,,,,,,,,,,,,,,,,,,,,,,,,,,,,,,,29,001,0,21,350,400,2022_Oct_24_1601,Experiment,2021.1.4,360.6748948324101,
images\S10_M_S_03.png,images\S10_M_S_03_scrambled.png,10,sad,-30,male,1,,120,on,2,0.5,0.75,0.5,0.829,3,119,1,1,1,2,2,32,128,161,,,,,,0,69,69,69,,,,,,,,,,,,,,,,,,,,,,,,,,,,,,,,,,,,,,,,,,,,,,,,,,,,,,,,,643.1082736999997,643.6137902999981,643.6137902999981,644.3662917999973,644.3662917999973,644.8689101999989,644.8689101999989,645.7020107999997,645.7020107999997,None,num_4,645.7020107999997,None,happy,1,Sad,646.1990734799961,None,None,646.1990734799961,None,0.4849036999985401,,,,,,,,,,,,,,,,,,,,,,,,,,,,,,,,,,,,,,,,,,,,,,,,,,,,,29,001,0,21,350,400,2022_Oct_24_1601,Experiment,2021.1.4,360.6748948324101,
images\S7_F_S_02.png,images\S7_F_S_02_scrambled.png,7,sad,-20,female,2,,281,off,1,0.5,0.75,0.5,0.797,3,280,1,1,1,0,0,0,0,2,,,,,,0,70,70,70,,,,,,,,,,,,,,,,,,,,,,,,,,,,,,,,,,,,,,,,,,,,,,,,,,,,,,,,,646.2657040999984,646.7711176999983,646.7711176999983,647.5237204999976,647.5237204999976,648.0290887999981,648.0290887999981,648.828838999998,648.828838999998,None,num_4,648.828838999998,None,happy,1,Sad,649.7951613799974,None,None,649.7951613799974,None,0.958558999998786,,,,,,,,,,,,,,,,,,,,,,,,,,,,,,,,,,,,,,,,,,,,,,,,,,,,,29,001,0,21,350,400,2022_Oct_24_1601,Experiment,2021.1.4,360.6748948324101,
images\S8_M_H_01.png,images\S8_M_H_01_scrambled.png,8,happy,10,male,4,,463,on,2,0.5,0.75,0.5,0.805,3,462,1,1,1,2,2,32,128,164,,,,,,0,71,71,71,,,,,,,,,,,,,,,,,,,,,,,,,,,,,,,,,,,,,,,,,,,,,,,,,,,,,,,,,649.8423939999993,650.3450333000001,650.3450333000001,651.1003426999996,651.1003426999996,651.6029775999996,651.6029775999996,652.4110443999998,652.4110443999998,None,num_4,652.4110443999998,None,happy,1,Happy,653.0108911599956,None,None,653.0108911599956,None,0.5843564000024344,,,,,,,,,,,,,,,,,,,,,,,,,,,,,,,,,,,,,,,,,,,,,,,,,,,,,29,001,0,21,350,400,2022_Oct_24_1601,Experiment,2021.1.4,360.6748948324101,
images\blank.jpg,images\blank.jpg,none,none,none,none,0,,644,on,2,0.5,0.75,0.5,0.8,0,643,2,1,1,3,3,48,192,240,,,,,,0,72,72,72,,,,,,,,,,,,,,,,,,,,,,,,,,,,,,,,,,,,,,,,,,,,,,,,,,,,,,,,,653.0944156999976,653.5995860999974,653.5995860999974,654.3522372999978,654.3522372999978,654.8547241999986,654.8547241999986,655.6572848999967,655.6572848999967,655.6572848999967,None,655.6572848999967,None,miss,1,,658.6591868799965,None,None,658.6591868799965,None,,,,,,,,,,,,,,,,,,,,,,,,,,,,,,,,,,,,,,,,,,,,,,,,,,,,,,29,001,0,21,350,400,2022_Oct_24_1601,Experiment,2021.1.4,360.6748948324101,
images\S2_M_H_01.png,images\S2_M_H_01_scrambled.png,2,happy,10,male,4,,187,on,2,0.5,0.75,0.5,0.927,3,186,3,1,1,2,2,32,128,164,,,,,,0,73,73,73,,,,,,,,,,,,,,,,,,,,,,,,,,,,,,,,,,,,,,,,,,,,,,,,,,,,,,,,,658.7788149999978,659.2811430000002,659.2811430000002,660.0337450999978,660.0337450999978,660.5391347999976,660.5391347999976,661.4694036999972,661.4694036999972,None,num_4,661.4694036999972,658.7788149999978,happy,1,Happy,661.9220332599972,None,None,661.9220332599972,None,0.43811550000100397,,,,,,,,,,,,,,,,,,,,,,,,,,,,,,,,,,,,,,,,,,,,,,,,,,,,,29,001,0,21,350,400,2022_Oct_24_1601,Experiment,2021.1.4,360.6748948324101,
images\S4_M_S_02.png,images\S4_M_S_02_scrambled.png,4,sad,-20,male,2,,503,off,1,0.5,0.75,0.5,0.914,3,502,1,1,1,0,0,0,0,2,,,,,,0,74,74,74,,,,,,,,,,,,,,,,,,,,,,,,,,,,,,,,,,,,,,,,,,,,,,,,,,,,,,,,,661.9692110999968,662.4746450999992,662.4746450999992,663.2271938999984,663.2271938999984,663.7297818999978,663.7297818999978,664.6489830999999,664.6489830999999,None,num_6,664.6489830999999,None,sad,1,Sad,665.9624684599977,None,None,665.9624684599977,None,1.2984794999974838,,,,,,,,,,,,,,,,,,,,,,,,,,,,,,,,,,,,,,,,,,,,,,,,,,,,,29,001,0,21,350,400,2022_Oct_24_1601,Experiment,2021.1.4,360.6748948324101,
images\S2_M_S_01.png,images\S2_M_S_01_scrambled.png,2,sad,-10,male,3,,130,off,1,0.5,0.75,0.5,0.825,3,129,2,1,1,0,0,0,0,3,,,,,,0,75,75,75,,,,,,,,,,,,,,,,,,,,,,,,,,,,,,,,,,,,,,,,,,,,,,,,,,,,,,,,,666.0096393999993,666.5094719999979,666.5094719999979,667.2592447999996,667.2592447999996,667.7618692999968,667.7618692999968,668.5894391999973,668.5894391999973,None,num_4,668.5894391999973,None,happy,1,Sad,668.9032062199989,None,None,668.9032062199989,None,0.30171030000201426,,,,,,,,,,,,,,,,,,,,,,,,,,,,,,,,,,,,,,,,,,,,,,,,,,,,,29,001,0,21,350,400,2022_Oct_24_1601,Experiment,2021.1.4,360.6748948324101,
images\S9_F_H_02.png,images\S9_F_H_02_scrambled.png,9,happy,20,female,5,,170,off,1,0.5,0.75,0.5,0.937,3,169,3,1,1,0,0,0,0,5,,,,,,0,76,76,76,,,,,,,,,,,,,,,,,,,,,,,,,,,,,,,,,,,,,,,,,,,,,,,,,,,,,,,,,668.9727356999974,669.4752571999998,669.4752571999998,670.2278093999994,670.2278093999994,670.7333039999976,670.7333039999976,671.6717903999997,671.6717903999997,None,num_4,671.6717903999997,None,happy,1,Happy,672.1383420599988,None,None,672.1383420599988,None,0.45166839999728836,,,,,,,,,,,,,,,,,,,,,,,,,,,,,,,,,,,,,,,,,,,,,,,,,,,,,29,001,0,21,350,400,2022_Oct_24_1601,Experiment,2021.1.4,360.6748948324101,
images\S7_F_H_02.png,images\S7_F_H_02_scrambled.png,7,happy,20,female,5,,38,off,1,0.5,0.75,0.5,0.861,3,37,4,1,2,0,0,0,0,5,,,,,,0,77,77,77,,,,,,,,,,,,,,,,,,,,,,,,,,,,,,,,,,,,,,,,,,,,,,,,,,,,,,,,,672.1855215999967,672.6909258999985,672.6909258999985,673.4435379999995,673.4435379999995,673.9489121999977,673.9489121999977,674.8097052999983,674.8097052999983,None,num_4,674.8097052999983,None,happy,1,Happy,675.1179651599988,None,None,675.1179651599988,None,0.297619199998735,,,,,,,,,,,,,,,,,,,,,,,,,,,,,,,,,,,,,,,,,,,,,,,,,,,,,29,001,0,21,350,400,2022_Oct_24_1601,Experiment,2021.1.4,360.6748948324101,
images\S8_M_S_02.png,images\S8_M_S_02_scrambled.png,8,sad,-20,male,2,,287,off,1,0.5,0.75,0.5,0.854,3,286,5,1,1,0,0,0,0,2,,,,,,0,78,78,78,,,,,,,,,,,,,,,,,,,,,,,,,,,,,,,,,,,,,,,,,,,,,,,,,,,,,,,,,675.1818101999997,675.6844409999976,675.6844409999976,676.439795899998,676.439795899998,676.9425229999979,676.9425229999979,677.8033609999984,677.8033609999984,None,num_4,677.8033609999984,None,happy,1,Sad,678.1365521799976,None,None,678.1365521799976,None,0.32822700000178884,,,,,,,,,,,,,,,,,,,,,,,,,,,,,,,,,,,,,,,,,,,,,,,,,,,,,29,001,0,21,350,400,2022_Oct_24_1601,Experiment,2021.1.4,360.6748948324101,
images\S2_M_S_02.png,images\S2_M_S_02_scrambled.png,2,sad,-20,male,2,,491,off,1,0.5,0.75,0.5,0.767,3,490,6,1,2,0,0,0,0,2,,,,,,0,79,79,79,,,,,,,,,,,,,,,,,,,,,,,,,,,,,,,,,,,,,,,,,,,,,,,,,,,,,,,,,678.1836721999971,678.6891065999989,678.6891065999989,679.4388408999985,679.4388408999985,679.9442882999974,679.9442882999974,680.7135948999967,680.7135948999967,None,num_4,680.7135948999967,None,happy,1,Sad,681.5548715799973,None,None,681.5548715799973,None,0.8337919999976293,,,,,,,,,,,,,,,,,,,,,,,,,,,,,,,,,,,,,,,,,,,,,,,,,,,,,29,001,0,21,350,400,2022_Oct_24_1601,Experiment,2021.1.4,360.6748948324101,
images\S5_F_H_03.png,images\S5_F_H_03_scrambled.png,5,happy,30,female,6,,87,on,2,0.5,0.75,0.5,0.887,3,86,1,1,1,2,2,32,128,166,,,,,,0,80,80,80,,,,,,,,,,,,,,,,,,,,,,,,,,,,,,,,,,,,,,,,,,,,,,,,,,,,,,,,,681.6020837999968,682.1047224999966,682.1047224999966,682.8572358999991,682.8572358999991,683.359859199998,683.359859199998,684.2512697999991,684.2512697999991,None,num_6,684.2512697999991,None,sad,1,Happy,685.3398322799962,None,None,685.3398322799962,None,1.0801079999982903,,,,,,,,,,,,,,,,,,,,,,,,,,,,,,,,,,,,,,,,,,,,,,,,,,,,,29,001,0,21,350,400,2022_Oct_24_1601,Experiment,2021.1.4,360.6748948324101,
images\S7_F_S_03.png,images\S7_F_S_03_scrambled.png,7,sad,-30,female,1,,222,on,2,0.5,0.75,0.5,0.813,3,221,2,1,1,2,2,32,128,161,,,,,,0,81,81,81,,,,,,,,,,,,,,,,,,,,,,,,,,,,,,,,,,,,,,,,,,,,,,,,,,,,,,,,,685.3870160999977,685.8896322999972,685.8896322999972,686.6394083999985,686.6394083999985,687.1420713999978,687.1420713999978,687.958528799998,687.958528799998,None,num_6,687.958528799998,None,sad,1,Sad,688.4306017599985,None,None,688.4306017599985,None,0.460628100001486,,,,,,,,,,,,,,,,,,,,,,,,,,,,,,,,,,,,,,,,,,,,,,,,,,,,,29,001,0,21,350,400,2022_Oct_24_1601,Experiment,2021.1.4,360.6748948324101,
images\S6_M_S_03.png,images\S6_M_S_03_scrambled.png,6,sad,-30,male,1,,576,on,2,0.5,0.75,0.5,0.783,3,575,3,1,2,2,2,32,128,161,,,,,,0,82,82,82,,,,,,,,,,,,,,,,,,,,,,,,,,,,,,,,,,,,,,,,,,,,,,,,,,,,,,,,,688.4777327999982,688.9803752999978,688.9803752999978,689.7329355999973,689.7329355999973,690.2384272999989,690.2384272999989,691.0213917000001,691.0213917000001,None,num_6,691.0213917000001,None,sad,1,Sad,691.7073602599986,None,None,691.7073602599986,None,0.6700734999976703,,,,,,,,,,,,,,,,,,,,,,,,,,,,,,,,,,,,,,,,,,,,,,,,,,,,,29,001,0,21,350,400,2022_Oct_24_1601,Experiment,2021.1.4,360.6748948324101,
images\S8_M_S_02.png,images\S8_M_S_02_scrambled.png,8,sad,-20,male,2,,167,off,1,0.5,0.75,0.5,0.855,3,166,1,1,1,0,0,0,0,2,,,,,,0,83,83,83,,,,,,,,,,,,,,,,,,,,,,,,,,,,,,,,,,,,,,,,,,,,,,,,,,,,,,,,,691.7545036999982,692.2571276999988,692.2571276999988,693.0096987999968,693.0096987999968,693.509559099999,693.509559099999,694.3677183999971,694.3677183999971,None,num_6,694.3677183999971,None,sad,1,Sad,695.0174393599983,None,None,695.0174393599983,None,0.6356324999978824,,,,,,,,,,,,,,,,,,,,,,,,,,,,,,,,,,,,,,,,,,,,,,,,,,,,,29,001,0,21,350,400,2022_Oct_24_1601,Experiment,2021.1.4,360.6748948324101,
images\S5_F_S_03.png,images\S5_F_S_03_scrambled.png,5,sad,-30,female,1,,270,off,1,0.5,0.75,0.5,0.796,3,269,2,1,1,0,0,0,0,1,,,,,,0,84,84,84,,,,,,,,,,,,,,,,,,,,,,,,,,,,,,,,,,,,,,,,,,,,,,,,,,,,,,,,,695.0645901999997,695.5673578999995,695.5673578999995,696.3170338999989,696.3170338999989,696.8168697999972,696.8168697999972,697.6138070999987,697.6138070999987,None,num_6,697.6138070999987,None,sad,1,Sad,698.0860348399954,None,None,698.0860348399954,None,0.4537931999984721,,,,,,,,,,,,,,,,,,,,,,,,,,,,,,,,,,,,,,,,,,,,,,,,,,,,,29,001,0,21,350,400,2022_Oct_24_1601,Experiment,2021.1.4,360.6748948324101,
images\S7_F_H_03.png,images\S7_F_H_03_scrambled.png,7,happy,30,female,6,,279,off,1,0.5,0.75,0.5,0.945,3,278,3,1,1,0,0,0,0,6,,,,,,0,85,85,85,,,,,,,,,,,,,,,,,,,,,,,,,,,,,,,,,,,,,,,,,,,,,,,,,,,,,,,,,698.1386636999996,698.6412868999978,698.6412868999978,699.3938595999971,699.3938595999971,699.8992655999973,699.8992655999973,700.8461768999987,700.8461768999987,None,num_4,700.8461768999987,None,happy,1,Happy,701.2127501599963,None,None,701.2127501599963,None,0.34915909999836003,,,,,,,,,,,,,,,,,,,,,,,,,,,,,,,,,,,,,,,,,,,,,,,,,,,,,29,001,0,21,350,400,2022_Oct_24_1601,Experiment,2021.1.4,360.6748948324101,
images\S9_F_H_01.png,images\S9_F_H_01_scrambled.png,9,happy,10,female,4,,529,off,1,0.5,0.75,0.5,0.82,3,528,4,1,1,0,0,0,0,4,,,,,,0,86,86,86,,,,,,,,,,,,,,,,,,,,,,,,,,,,,,,,,,,,,,,,,,,,,,,,,,,,,,,,,701.2599167999979,701.7653337999982,701.7653337999982,702.5206590999987,702.5206590999987,703.020469799998,703.020469799998,703.8452552999988,703.8452552999988,None,num_4,703.8452552999988,None,happy,1,Happy,704.3367833599979,None,None,704.3367833599979,None,0.47813870000027237,,,,,,,,,,,,,,,,,,,,,,,,,,,,,,,,,,,,,,,,,,,,,,,,,,,,,29,001,0,21,350,400,2022_Oct_24_1601,Experiment,2021.1.4,360.6748948324101,
images\S8_M_S_02.png,images\S8_M_S_02_scrambled.png,8,sad,-20,male,2,,467,on,2,0.5,0.75,0.5,0.86,3,466,1,1,1,2,2,32,128,162,,,,,,0,87,87,87,,,,,,,,,,,,,,,,,,,,,,,,,,,,,,,,,,,,,,,,,,,,,,,,,,,,,,,,,704.3839635999975,704.8893570999971,704.8893570999971,705.6447107999993,705.6447107999993,706.150117899997,706.150117899997,707.0109406999982,707.0109406999982,None,num_6,707.0109406999982,None,sad,1,Sad,708.0134525599962,None,None,708.0134525599962,None,0.9923418999969726,,,,,,,,,,,,,,,,,,,,,,,,,,,,,,,,,,,,,,,,,,,,,,,,,,,,,29,001,0,21,350,400,2022_Oct_24_1601,Experiment,2021.1.4,360.6748948324101,
images\S4_M_S_03.png,images\S4_M_S_03_scrambled.png,4,sad,-30,male,1,,564,on,2,0.5,0.75,0.5,0.895,3,563,2,1,1,2,2,32,128,161,,,,,,0,88,88,88,,,,,,,,,,,,,,,,,,,,,,,,,,,,,,,,,,,,,,,,,,,,,,,,,,,,,,,,,708.060601899997,708.5659943999999,708.5659943999999,709.3213515999996,709.3213515999996,709.8241103999972,709.8241103999972,710.7209280999996,710.7209280999996,None,num_6,710.7209280999996,None,sad,1,Sad,712.1982310599989,None,None,712.1982310599989,None,1.4663357000026735,,,,,,,,,,,,,,,,,,,,,,,,,,,,,,,,,,,,,,,,,,,,,,,,,,,,,29,001,0,21,350,400,2022_Oct_24_1601,Experiment,2021.1.4,360.6748948324101,
images\S9_F_S_02.png,images\S9_F_S_02_scrambled.png,9,sad,-20,female,2,,233,on,2,0.5,0.75,0.5,0.853,3,232,3,1,1,2,2,32,128,162,,,,,,0,89,89,89,,,,,,,,,,,,,,,,,,,,,,,,,,,,,,,,,,,,,,,,,,,,,,,,,,,,,,,,,712.2454397000001,712.7508607999989,712.7508607999989,713.5061872999977,713.5061872999977,714.0089202999989,714.0089202999989,714.864207999999,714.864207999999,None,num_6,714.864207999999,None,sad,1,Sad,716.0498573599972,None,None,716.0498573599972,None,1.1709821000004013,,,,,,,,,,,,,,,,,,,,,,,,,,,,,,,,,,,,,,,,,,,,,,,,,,,,,29,001,0,21,350,400,2022_Oct_24_1601,Experiment,2021.1.4,360.6748948324101,
images\S4_M_H_02.png,images\S4_M_H_02_scrambled.png,4,happy,20,male,5,,140,off,1,0.5,0.75,0.5,0.887,3,139,1,1,1,0,0,0,0,5,,,,,,0,90,90,90,,,,,,,,,,,,,,,,,,,,,,,,,,,,,,,,,,,,,,,,,,,,,,,,,,,,,,,,,716.097028799999,716.5996603999993,716.5996603999993,717.3522088999998,717.3522088999998,717.8548640999979,717.8548640999979,718.7462089999972,718.7462089999972,None,num_4,718.7462089999972,None,happy,1,Happy,719.1766710999964,None,None,719.1766710999964,None,0.41696330000195303,,,,,,,,,,,,,,,,,,,,,,,,,,,,,,,,,,,,,,,,,,,,,,,,,,,,,29,001,0,21,350,400,2022_Oct_24_1601,Experiment,2021.1.4,360.6748948324101,
images\S7_F_S_03.png,images\S7_F_S_03_scrambled.png,7,sad,-30,female,1,,582,on,2,0.5,0.75,0.5,0.888,3,581,1,1,1,2,2,32,128,161,,,,,,0,91,91,91,,,,,,,,,,,,,,,,,,,,,,,,,,,,,,,,,,,,,,,,,,,,,,,,,,,,,,,,,719.2210706999977,719.726487099997,719.726487099997,720.4817867999991,720.4817867999991,720.9844903999983,720.9844903999983,721.8758349999989,721.8758349999989,None,num_6,721.8758349999989,None,sad,1,Sad,723.6697550599957,None,None,723.6697550599957,None,1.783520299999509,,,,,,,,,,,,,,,,,,,,,,,,,,,,,,,,,,,,,,,,,,,,,,,,,,,,,29,001,0,21,350,400,2022_Oct_24_1601,Experiment,2021.1.4,360.6748948324101,
images\S10_M_S_02.png,images\S10_M_S_02_scrambled.png,10,sad,-20,male,2,,479,on,2,0.5,0.75,0.5,0.799,3,478,2,1,1,2,2,32,128,162,,,,,,0,92,92,92,,,,,,,,,,,,,,,,,,,,,,,,,,,,,,,,,,,,,,,,,,,,,,,,,,,,,,,,,723.7169114999997,724.2196626999976,724.2196626999976,724.9693238,724.9693238,725.4719485999995,725.4719485999995,726.2772439999972,726.2772439999972,None,num_4,726.2772439999972,None,happy,1,Sad,726.6910020799965,None,None,726.6910020799965,None,0.4063014999992447,,,,,,,,,,,,,,,,,,,,,,,,,,,,,,,,,,,,,,,,,,,,,,,,,,,,,29,001,0,21,350,400,2022_Oct_24_1601,Experiment,2021.1.4,360.6748948324101,
images\S9_F_S_02.png,images\S9_F_S_02_scrambled.png,9,sad,-20,female,2,,293,off,1,0.5,0.75,0.5,0.855,3,292,1,1,2,0,0,0,0,2,,,,,,0,93,93,93,,,,,,,,,,,,,,,,,,,,,,,,,,,,,,,,,,,,,,,,,,,,,,,,,,,,,,,,,726.7382311000001,727.2408559999967,727.2408559999967,727.9905957999981,727.9905957999981,728.4904701999985,728.4904701999985,729.3486290000001,729.3486290000001,None,num_4,729.3486290000001,None,happy,1,Sad,729.6762005799987,None,None,729.6762005799987,None,0.31862090000140597,,,,,,,,,,,,,,,,,,,,,,,,,,,,,,,,,,,,,,,,,,,,,,,,,,,,,29,001,0,21,350,400,2022_Oct_24_1601,Experiment,2021.1.4,360.6748948324101,
images\S9_F_H_02.png,images\S9_F_H_02_scrambled.png,9,happy,20,female,5,,110,on,2,0.5,0.75,0.5,0.815,3,109,1,2,1,2,2,32,128,165,,,,,,0,94,94,94,,,,,,,,,,,,,,,,,,,,,,,,,,,,,,,,,,,,,,,,,,,,,,,,,,,,,,,,,729.7233969999979,730.2260498999967,730.2260498999967,730.9813711999996,730.9813711999996,731.4839618999977,731.4839618999977,732.3031561999996,732.3031561999996,None,num_4,732.3031561999996,None,happy,1,Happy,732.5698613199951,None,None,732.5698613199951,None,0.24420379999719444,,,,,,,,,,,,,,,,,,,,,,,,,,,,,,,,,,,,,,,,,,,,,,,,,,,,,29,001,0,21,350,400,2022_Oct_24_1601,Experiment,2021.1.4,360.6748948324101,
images\S1_F_H_01.png,images\S1_F_H_01_scrambled.png,1,happy,10,female,4,,1,off,1,0.5,0.75,0.5,0.759,3,0,1,1,1,0,0,0,0,4,,,,,,0,95,95,95,,,,,,,,,,,,,,,,,,,,,,,,,,,,,,,,,,,,,,,,,,,,,,,,,,,,,,,,,732.633616199997,733.1362670999988,733.1362670999988,733.8915785999998,733.8915785999998,734.3942045999975,734.3942045999975,735.1522886999992,735.1522886999992,None,num_4,735.1522886999992,None,happy,1,Happy,735.4883322599991,None,None,735.4883322599991,None,0.3229998999995587,,,,,,,,,,,,,,,,,,,,,,,,,,,,,,,,,,,,,,,,,,,,,,,,,,,,,29,001,0,21,350,400,2022_Oct_24_1601,Experiment,2021.1.4,360.6748948324101,
images\S5_F_H_02.png,images\S5_F_H_02_scrambled.png,5,happy,20,female,5,,386,off,1,0.5,0.75,0.5,0.895,3,385,2,1,1,0,0,0,0,5,,,,,,0,96,96,96,,,,,,,,,,,,,,,,,,,,,,,,,,,,,,,,,,,,,,,,,,,,,,,,,,,,,,,,,735.535500799997,736.0409260999986,736.0409260999986,736.7962529999968,736.7962529999968,737.3016366999982,737.3016366999982,738.1957866999983,738.1957866999983,None,num_4,738.1957866999983,None,happy,1,Happy,738.6068624599949,None,None,738.6068624599949,None,0.3830884999988484,,,,,,,,,,,,,,,,,,,,,,,,,,,,,,,,,,,,,,,,,,,,,,,,,,,,,29,001,0,21,350,400,2022_Oct_24_1601,Experiment,2021.1.4,360.6748948324101,
images\S1_F_H_02.png,images\S1_F_H_02_scrambled.png,1,happy,20,female,5,,122,off,1,0.5,0.75,0.5,0.751,3,121,3,1,2,0,0,0,0,5,,,,,,0,97,97,97,,,,,,,,,,,,,,,,,,,,,,,,,,,,,,,,,,,,,,,,,,,,,,,,,,,,,,,,,738.6595442999969,739.1649827999972,739.1649827999972,739.9203078999999,739.9203078999999,740.4229135999994,740.4229135999994,741.1782400999982,741.1782400999982,None,num_4,741.1782400999982,None,happy,1,Happy,741.5142532599958,None,None,741.5142532599958,None,0.32124000000112574,,,,,,,,,,,,,,,,,,,,,,,,,,,,,,,,,,,,,,,,,,,,,,,,,,,,,29,001,0,21,350,400,2022_Oct_24_1601,Experiment,2021.1.4,360.6748948324101,
images\S8_M_S_03.png,images\S8_M_S_03_scrambled.png,8,sad,-30,male,1,,108,on,2,0.5,0.75,0.5,0.945,3,107,1,1,1,2,2,32,128,161,,,,,,0,98,98,98,,,,,,,,,,,,,,,,,,,,,,,,,,,,,,,,,,,,,,,,,,,,,,,,,,,,,,,,,741.561428099998,742.0668474999984,742.0668474999984,742.8194511000002,742.8194511000002,743.3248185999983,743.3248185999983,744.2717223,744.2717223,None,num_6,744.2717223,None,sad,1,Sad,744.721668299997,None,None,744.721668299997,None,0.4197576000005938,,,,,,,,,,,,,,,,,,,,,,,,,,,,,,,,,,,,,,,,,,,,,,,,,,,,,29,001,0,21,350,400,2022_Oct_24_1601,Experiment,2021.1.4,360.6748948324101,
images\S2_M_H_01.png,images\S2_M_H_01_scrambled.png,2,happy,10,male,4,,67,on,2,0.5,0.75,0.5,0.762,3,66,2,1,1,2,2,32,128,164,,,,,,0,99,99,99,,,,,,,,,,,,,,,,,,,,,,,,,,,,,,,,,,,,,,,,,,,,,,,,,,,,,,,,,744.7743408999995,745.2741997999983,745.2741997999983,746.0295888999972,746.0295888999972,746.5349607999997,746.5349607999997,747.3013336999975,747.3013336999975,None,num_4,747.3013336999975,None,happy,1,Happy,747.6651144599956,None,None,747.6651144599956,None,0.34978899999987334,,,,,,,,,,,,,,,,,,,,,,,,,,,,,,,,,,,,,,,,,,,,,,,,,,,,,29,001,0,21,350,400,2022_Oct_24_1601,Experiment,2021.1.4,360.6748948324101,
images\S3_F_H_02.png,images\S3_F_H_02_scrambled.png,3,happy,20,female,5,,194,on,2,0.5,0.75,0.5,0.879,3,193,3,1,1,2,2,32,128,165,,,,,,0,100,100,100,,,,,,,,,,,,,,,,,,,,,,,,,,,,,,,,,,,,,,,,,,,,,,,,,,,,,,,,,747.7123182999967,748.2149269999973,748.2149269999973,748.9703082999986,748.9703082999986,749.4756917999985,749.4756917999985,750.3588525999985,750.3588525999985,None,num_4,750.3588525999985,None,happy,1,Happy,750.6086941599962,None,None,750.6086941599962,None,0.23637669999880018,,,,,,,,,,,,,,,,,,,,,,,,,,,,,,,,,,,,,,,,,,,,,,,,,,,,,29,001,0,21,350,400,2022_Oct_24_1601,Experiment,2021.1.4,360.6748948324101,
images\S3_F_H_01.png,images\S3_F_H_01_scrambled.png,3,happy,10,female,4,,313,on,2,0.5,0.75,0.5,0.757,3,312,4,2,1,2,2,32,128,164,,,,,,0,101,101,101,,,,,,,,,,,,,,,,,,,,,,,,,,,,,,,,,,,,,,,,,,,,,,,,,,,,,,,,,750.6558504999994,751.1612771,751.1612771,751.9138145999968,751.9138145999968,752.4192778999968,752.4192778999968,753.1801221999995,753.1801221999995,None,num_4,753.1801221999995,None,happy,1,Happy,753.5634193799956,None,None,753.5634193799956,None,0.3592992999983835,,,,,,,,,,,,,,,,,,,,,,,,,,,,,,,,,,,,,,,,,,,,,,,,,,,,,29,001,0,21,350,400,2022_Oct_24_1601,Experiment,2021.1.4,360.6748948324101,
images\S4_M_H_02.png,images\S4_M_H_02_scrambled.png,4,happy,20,male,5,,440,on,2,0.5,0.75,0.5,0.851,3,439,5,1,1,2,2,32,128,165,,,,,,0,102,102,102,,,,,,,,,,,,,,,,,,,,,,,,,,,,,,,,,,,,,,,,,,,,,,,,,,,,,,,,,753.6299416999973,754.1353543999976,754.1353543999976,754.8906946999996,754.8906946999996,755.3905099999974,755.3905099999974,756.2458335999982,756.2458335999982,None,num_4,756.2458335999982,None,happy,1,Happy,756.5651887599989,None,None,756.5651887599989,None,0.3015791999969224,,,,,,,,,,,,,,,,,,,,,,,,,,,,,,,,,,,,,,,,,,,,,,,,,,,,,29,001,0,21,350,400,2022_Oct_24_1601,Experiment,2021.1.4,360.6748948324101,
images\S7_F_S_02.png,images\S7_F_S_02_scrambled.png,7,sad,-20,female,2,,161,off,1,0.5,0.75,0.5,0.93,3,160,1,1,1,0,0,0,0,2,,,,,,0,103,103,103,,,,,,,,,,,,,,,,,,,,,,,,,,,,,,,,,,,,,,,,,,,,,,,,,,,,,,,,,756.6123669999979,757.1149833999989,757.1149833999989,757.8647508999966,757.8647508999966,758.3701876999985,758.3701876999985,759.3059952999974,759.3059952999974,None,num_6,759.3059952999974,None,sad,1,Sad,759.6060270599984,None,None,759.6060270599984,None,0.2895795999975235,,,,,,,,,,,,,,,,,,,,,,,,,,,,,,,,,,,,,,,,,,,,,,,,,,,,,29,001,0,21,350,400,2022_Oct_24_1601,Experiment,2021.1.4,360.6748948324101,
images\S9_F_S_01.png,images\S9_F_S_01_scrambled.png,9,sad,-10,female,3,,112,on,2,0.5,0.75,0.5,0.906,3,111,1,1,1,2,2,32,128,163,,,,,,0,104,104,104,,,,,,,,,,,,,,,,,,,,,,,,,,,,,,,,,,,,,,,,,,,,,,,,,,,,,,,,,759.6558734999999,760.1612929999974,760.1612929999974,760.9139504999985,760.9139504999985,761.4193476,761.4193476,762.3272574999974,762.3272574999974,None,num_4,762.3272574999974,None,happy,1,Sad,762.5883130799971,None,None,762.5883130799971,None,0.25219899999865447,,,,,,,,,,,,,,,,,,,,,,,,,,,,,,,,,,,,,,,,,,,,,,,,,,,,,29,001,0,21,350,400,2022_Oct_24_1601,Experiment,2021.1.4,360.6748948324101,
images\S8_M_S_01.png,images\S8_M_S_01_scrambled.png,8,sad,-10,male,3,,106,on,2,0.5,0.75,0.5,0.857,3,105,2,1,2,2,2,32,128,163,,,,,,0,105,105,105,,,,,,,,,,,,,,,,,,,,,,,,,,,,,,,,,,,,,,,,,,,,,,,,,,,,,,,,,762.635514499998,763.138132,763.138132,763.8907154999979,763.8907154999979,764.3961155999968,764.3961155999968,765.2597442999977,765.2597442999977,None,num_4,765.2597442999977,None,happy,1,Sad,765.7567887799974,None,None,765.7567887799974,None,0.48760699999911594,,,,,,,,,,,,,,,,,,,,,,,,,,,,,,,,,,,,,,,,,,,,,,,,,,,,,29,001,0,21,350,400,2022_Oct_24_1601,Experiment,2021.1.4,360.6748948324101,
images\S9_F_H_01.png,images\S9_F_H_01_scrambled.png,9,happy,10,female,4,,469,on,2,0.5,0.75,0.5,0.817,3,468,3,1,1,2,2,32,128,164,,,,,,0,106,106,106,,,,,,,,,,,,,,,,,,,,,,,,,,,,,,,,,,,,,,,,,,,,,,,,,,,,,,,,,765.8039828000001,766.3038409999972,766.3038409999972,767.0536123999991,767.0536123999991,767.5591348999988,767.5591348999988,768.3809836,768.3809836,None,num_4,768.3809836,None,happy,1,Happy,768.6781565599987,None,None,768.6781565599987,None,0.28615329999956884,,,,,,,,,,,,,,,,,,,,,,,,,,,,,,,,,,,,,,,,,,,,,,,,,,,,,29,001,0,21,350,400,2022_Oct_24_1601,Experiment,2021.1.4,360.6748948324101,
images\S6_M_H_03.png,images\S6_M_H_03_scrambled.png,6,happy,30,male,6,,513,off,1,0.5,0.75,0.5,0.845,3,512,1,1,1,0,0,0,0,6,,,,,,0,107,107,107,,,,,,,,,,,,,,,,,,,,,,,,,,,,,,,,,,,,,,,,,,,,,,,,,,,,,,,,,768.7253064999968,769.227927699998,769.227927699998,769.9776875999996,769.9776875999996,770.4803703999969,770.4803703999969,771.3301003999986,771.3301003999986,None,num_4,771.3301003999986,None,happy,1,Happy,771.8105021599978,None,None,771.8105021599978,None,0.4651618999996572,,,,,,,,,,,,,,,,,,,,,,,,,,,,,,,,,,,,,,,,,,,,,,,,,,,,,29,001,0,21,350,400,2022_Oct_24_1601,Experiment,2021.1.4,360.6748948324101,
images\S4_M_H_02.png,images\S4_M_H_02_scrambled.png,4,happy,20,male,5,,380,off,1,0.5,0.75,0.5,0.862,3,379,2,1,1,0,0,0,0,5,,,,,,0,108,108,108,,,,,,,,,,,,,,,,,,,,,,,,,,,,,,,,,,,,,,,,,,,,,,,,,,,,,,,,,771.8576718999975,772.3603373999977,772.3603373999977,773.1128488999966,773.1128488999966,773.6154990999967,773.6154990999967,774.4818641999991,774.4818641999991,None,num_4,774.4818641999991,None,happy,1,Happy,774.7652367199975,None,None,774.7652367199975,None,0.25725600000077975,,,,,,,,,,,,,,,,,,,,,,,,,,,,,,,,,,,,,,,,,,,,,,,,,,,,,29,001,0,21,350,400,2022_Oct_24_1601,Experiment,2021.1.4,360.6748948324101,
images\S4_M_H_01.png,images\S4_M_H_01_scrambled.png,4,happy,10,male,4,,379,off,1,0.5,0.75,0.5,0.844,3,378,3,2,1,0,0,0,0,4,,,,,,0,109,109,109,,,,,,,,,,,,,,,,,,,,,,,,,,,,,,,,,,,,,,,,,,,,,,,,,,,,,,,,,774.8289932999978,775.3288568999997,775.3288568999997,776.0814039999968,776.0814039999968,776.584139999999,776.584139999999,777.430992499998,777.430992499998,None,num_4,777.430992499998,None,happy,1,Happy,777.7781132599986,None,None,777.7781132599986,None,0.33239709999907063,,,,,,,,,,,,,,,,,,,,,,,,,,,,,,,,,,,,,,,,,,,,,,,,,,,,,29,001,0,21,350,400,2022_Oct_24_1601,Experiment,2021.1.4,360.6748948324101,
images\S3_F_H_02.png,images\S3_F_H_02_scrambled.png,3,happy,20,female,5,,554,on,2,0.5,0.75,0.5,0.826,3,553,1,1,1,2,2,32,128,165,,,,,,0,110,110,110,,,,,,,,,,,,,,,,,,,,,,,,,,,,,,,,,,,,,,,,,,,,,,,,,,,,,,,,,777.8252912999997,778.3279140999985,778.3279140999985,779.0776757999993,779.0776757999993,779.5803445999991,779.5803445999991,780.4106377999997,780.4106377999997,None,num_4,780.4106377999997,None,happy,1,Happy,781.7852287599991,None,None,781.7852287599991,None,1.3609501999999338,,,,,,,,,,,,,,,,,,,,,,,,,,,,,,,,,,,,,,,,,,,,,,,,,,,,,29,001,0,21,350,400,2022_Oct_24_1601,Experiment,2021.1.4,360.6748948324101,
images\S3_F_S_02.png,images\S3_F_S_02_scrambled.png,3,sad,-20,female,2,,137,off,1,0.5,0.75,0.5,0.917,3,136,1,2,1,0,0,0,0,2,,,,,,0,111,111,111,,,,,,,,,,,,,,,,,,,,,,,,,,,,,,,,,,,,,,,,,,,,,,,,,,,,,,,,,781.8351759999969,782.3378017999967,782.3378017999967,783.0875586999973,783.0875586999973,783.5902251999978,783.5902251999978,784.5094331,784.5094331,None,num_6,784.5094331,None,sad,1,Sad,785.2424946599959,None,None,785.2424946599959,None,0.717895599998883,,,,,,,,,,,,,,,,,,,,,,,,,,,,,,,,,,,,,,,,,,,,,,,,,,,,,29,001,0,21,350,400,2022_Oct_24_1601,Experiment,2021.1.4,360.6748948324101,
images\S4_M_S_02.png,images\S4_M_S_02_scrambled.png,4,sad,-20,male,2,,203,on,2,0.5,0.75,0.5,0.935,3,202,1,1,2,2,2,32,128,162,,,,,,0,112,112,112,,,,,,,,,,,,,,,,,,,,,,,,,,,,,,,,,,,,,,,,,,,,,,,,,,,,,,,,,785.2896658999998,785.795102,785.795102,786.550425399997,786.550425399997,787.0530088999985,787.0530088999985,787.9916340999989,787.9916340999989,None,num_6,787.9916340999989,None,sad,1,Sad,788.9385803599972,None,None,788.9385803599972,None,0.9317279999995662,,,,,,,,,,,,,,,,,,,,,,,,,,,,,,,,,,,,,,,,,,,,,,,,,,,,,29,001,0,21,350,400,2022_Oct_24_1601,Experiment,2021.1.4,360.6748948324101,
images\blank.jpg,images\blank.jpg,none,none,none,none,0,,640,on,2,0.5,0.75,0.5,0.841,0,639,2,1,1,3,3,48,192,240,,,,,,0,113,113,113,,,,,,,,,,,,,,,,,,,,,,,,,,,,,,,,,,,,,,,,,,,,,,,,,,,,,,,,,789.0221166999982,789.5245607999968,789.5245607999968,790.2798418999992,790.2798418999992,790.7852362999984,790.7852362999984,791.6294627999996,791.6294627999996,791.6294627999996,None,791.6294627999996,None,miss,1,,794.6340812799986,None,None,794.6340812799986,None,,,,,,,,,,,,,,,,,,,,,,,,,,,,,,,,,,,,,,,,,,,,,,,,,,,,,,29,001,0,21,350,400,2022_Oct_24_1601,Experiment,2021.1.4,360.6748948324101,
images\S2_M_S_02.png,images\S2_M_S_02_scrambled.png,2,sad,-20,male,2,,191,on,2,0.5,0.75,0.5,0.831,3,190,3,1,1,2,2,32,128,162,,,,,,0,114,114,114,,,,,,,,,,,,,,,,,,,,,,,,,,,,,,,,,,,,,,,,,,,,,,,,,,,,,,,,,794.753609899999,795.2560780999993,795.2560780999993,796.0087269999967,796.0087269999967,796.5084451999974,796.5084451999974,797.3443946999978,797.3443946999978,None,num_6,797.3443946999978,794.753609899999,sad,1,Sad,798.2357162599975,None,None,798.2357162599975,None,0.8749162000021897,,,,,,,,,,,,,,,,,,,,,,,,,,,,,,,,,,,,,,,,,,,,,,,,,,,,,29,001,0,21,350,400,2022_Oct_24_1601,Experiment,2021.1.4,360.6748948324101,
images\S8_M_S_03.png,images\S8_M_S_03_scrambled.png,8,sad,-30,male,1,,228,on,2,0.5,0.75,0.5,0.751,3,227,4,1,1,2,2,32,128,161,,,,,,0,115,115,115,,,,,,,,,,,,,,,,,,,,,,,,,,,,,,,,,,,,,,,,,,,,,,,,,,,,,,,,,798.282926099997,798.782725699999,798.782725699999,799.5353051999991,799.5353051999991,800.0407304,800.0407304,800.7960389999971,800.7960389999971,None,num_6,800.7960389999971,None,sad,1,Sad,801.2820177599962,None,None,801.2820177599962,None,0.471269099998608,,,,,,,,,,,,,,,,,,,,,,,,,,,,,,,,,,,,,,,,,,,,,,,,,,,,,29,001,0,21,350,400,2022_Oct_24_1601,Experiment,2021.1.4,360.6748948324101,
images\S9_F_H_01.png,images\S9_F_H_01_scrambled.png,9,happy,10,female,4,,49,off,1,0.5,0.75,0.5,0.879,3,48,1,1,1,0,0,0,0,4,,,,,,0,116,116,116,,,,,,,,,,,,,,,,,,,,,,,,,,,,,,,,,,,,,,,,,,,,,,,,,,,,,,,,,801.3346752999969,801.8401797999977,801.8401797999977,802.5926946999971,802.5926946999971,803.0953071999975,803.0953071999975,803.9811706,803.9811706,None,num_6,803.9811706,None,sad,1,Happy,804.9558532799979,None,None,804.9558532799979,None,0.9662447999980941,,,,,,,,,,,,,,,,,,,,,,,,,,,,,,,,,,,,,,,,,,,,,,,,,,,,,29,001,0,21,350,400,2022_Oct_24_1601,Experiment,2021.1.4,360.6748948324101,
images\S4_M_H_02.png,images\S4_M_H_02_scrambled.png,4,happy,20,male,5,,80,on,2,0.5,0.75,0.5,0.756,3,79,1,1,1,2,2,32,128,165,,,,,,0,117,117,117,,,,,,,,,,,,,,,,,,,,,,,,,,,,,,,,,,,,,,,,,,,,,,,,,,,,,,,,,805.0030548999966,805.5028996999972,805.5028996999972,806.2554458999984,806.2554458999984,806.7580887999975,806.7580887999975,807.5133941999993,807.5133941999993,None,num_6,807.5133941999993,None,sad,1,Happy,807.9966858799976,None,None,807.9966858799976,None,0.47395479999977397,,,,,,,,,,,,,,,,,,,,,,,,,,,,,,,,,,,,,,,,,,,,,,,,,,,,,29,001,0,21,350,400,2022_Oct_24_1601,Experiment,2021.1.4,360.6748948324101,
images\S2_M_S_01.png,images\S2_M_S_01_scrambled.png,2,sad,-10,male,3,,490,off,1,0.5,0.75,0.5,0.782,3,489,1,1,1,0,0,0,0,3,,,,,,0,118,118,118,,,,,,,,,,,,,,,,,,,,,,,,,,,,,,,,,,,,,,,,,,,,,,,,,,,,,,,,,808.0437871999966,808.543621599998,808.543621599998,809.2961978999992,809.2961978999992,809.7989414999975,809.7989414999975,810.5846788999988,810.5846788999988,None,num_4,810.5846788999988,None,happy,1,Sad,810.9845697199966,None,None,810.9845697199966,None,0.38699040000210516,,,,,,,,,,,,,,,,,,,,,,,,,,,,,,,,,,,,,,,,,,,,,,,,,,,,,29,001,0,21,350,400,2022_Oct_24_1601,Experiment,2021.1.4,360.6748948324101,
images\S8_M_H_03.png,images\S8_M_H_03_scrambled.png,8,happy,30,male,6,,525,off,1,0.5,0.75,0.5,0.786,3,524,2,1,1,0,0,0,0,6,,,,,,0,119,119,119,,,,,,,,,,,,,,,,,,,,,,,,,,,,,,,,,,,,,,,,,,,,,,,,,,,,,,,,,811.0456378999988,811.5482687999975,811.5482687999975,812.2980442999979,812.2980442999979,812.8035733999968,812.8035733999968,813.5949004999966,813.5949004999966,None,num_4,813.5949004999966,None,happy,1,Happy,814.0947456599962,None,None,814.0947456599962,None,0.488368399997853,,,,,,,,,,,,,,,,,,,,,,,,,,,,,,,,,,,,,,,,,,,,,,,,,,,,,29,001,0,21,350,400,2022_Oct_24_1601,Experiment,2021.1.4,360.6748948324101,
images\S7_F_S_02.png,images\S7_F_S_02_scrambled.png,7,sad,-20,female,2,,221,on,2,0.5,0.75,0.5,0.787,3,220,1,1,1,2,2,32,128,162,,,,,,0,120,120,120,,,,,,,,,,,,,,,,,,,,,,,,,,,,,,,,,,,,,,,,,,,,,,,,,,,,,,,,,814.1447752999993,814.6445429999985,814.6445429999985,815.3998483999967,815.3998483999967,815.9053074999974,815.9053074999974,816.6995481999984,816.6995481999984,None,num_6,816.6995481999984,None,sad,1,Sad,817.593662659997,None,None,817.593662659997,None,0.879906199999823,,,,,,,,,,,,,,,,,,,,,,,,,,,,,,,,,,,,,,,,,,,,,,,,,,,,,29,001,0,21,350,400,2022_Oct_24_1601,Experiment,2021.1.4,360.6748948324101,
images\S6_M_S_02.png,images\S6_M_S_02_scrambled.png,6,sad,-20,male,2,,35,off,1,0.5,0.75,0.5,0.914,3,34,1,1,2,0,0,0,0,2,,,,,,0,121,121,121,,,,,,,,,,,,,,,,,,,,,,,,,,,,,,,,,,,,,,,,,,,,,,,,,,,,,,,,,817.6408373999984,818.1435903999991,818.1435903999991,818.8932285999981,818.8932285999981,819.3931182999986,819.3931182999986,820.3095440999969,820.3095440999969,None,num_6,820.3095440999969,None,sad,1,Sad,821.4341765599958,None,None,821.4341765599958,None,1.1098195999984455,,,,,,,,,,,,,,,,,,,,,,,,,,,,,,,,,,,,,,,,,,,,,,,,,,,,,29,001,0,21,350,400,2022_Oct_24_1601,Experiment,2021.1.4,360.6748948324101,
images\S1_F_S_03.png,images\S1_F_S_03_scrambled.png,1,sad,-30,female,1,,66,on,2,0.5,0.75,0.5,0.802,3,65,1,1,1,2,2,32,128,161,,,,,,0,122,122,122,,,,,,,,,,,,,,,,,,,,,,,,,,,,,,,,,,,,,,,,,,,,,,,,,,,,,,,,,821.4813201999968,821.9867433,821.9867433,822.7364863999974,822.7364863999974,823.2392471999992,823.2392471999992,824.0445108999993,824.0445108999993,None,num_6,824.0445108999993,None,sad,1,Sad,824.5027554399974,None,None,824.5027554399974,None,0.43900589999975637,,,,,,,,,,,,,,,,,,,,,,,,,,,,,,,,,,,,,,,,,,,,,,,,,,,,,29,001,0,21,350,400,2022_Oct_24_1601,Experiment,2021.1.4,360.6748948324101,
images\S5_F_H_02.png,images\S5_F_H_02_scrambled.png,5,happy,20,female,5,,326,on,2,0.5,0.75,0.5,0.894,3,325,2,1,1,2,2,32,128,165,,,,,,0,123,123,123,,,,,,,,,,,,,,,,,,,,,,,,,,,,,,,,,,,,,,,,,,,,,,,,,,,,,,,,,824.5553772999992,825.0608083999978,825.0608083999978,825.8105492999966,825.8105492999966,826.3132239999977,826.3132239999977,827.2101559999974,827.2101559999974,None,num_4,827.2101559999974,None,happy,1,Happy,827.7683796199948,None,None,827.7683796199948,None,0.5289447999966796,,,,,,,,,,,,,,,,,,,,,,,,,,,,,,,,,,,,,,,,,,,,,,,,,,,,,29,001,0,21,350,400,2022_Oct_24_1601,Experiment,2021.1.4,360.6748948324101,
images\S8_M_S_02.png,images\S8_M_S_02_scrambled.png,8,sad,-20,male,2,,527,off,1,0.5,0.75,0.5,0.836,3,526,1,1,1,0,0,0,0,2,,,,,,0,124,124,124,,,,,,,,,,,,,,,,,,,,,,,,,,,,,,,,,,,,,,,,,,,,,,,,,,,,,,,,,827.8210487999968,828.3237932999982,828.3237932999982,829.0734372999977,829.0734372999977,829.5760889999983,829.5760889999983,830.4147331999993,830.4147331999993,None,num_6,830.4147331999993,None,sad,1,Sad,831.3311181599958,None,None,831.3311181599958,None,0.9004695000003267,,,,,,,,,,,,,,,,,,,,,,,,,,,,,,,,,,,,,,,,,,,,,,,,,,,,,29,001,0,21,350,400,2022_Oct_24_1601,Experiment,2021.1.4,360.6748948324101,
images\S8_M_H_01.png,images\S8_M_H_01_scrambled.png,8,happy,10,male,4,,583,on,2,0.5,0.75,0.5,0.857,3,582,1,2,1,2,2,32,128,164,,,,,,0,125,125,125,,,,,,,,,,,,,,,,,,,,,,,,,,,,,,,,,,,,,,,,,,,,,,,,,,,,,,,,,831.3782901999984,831.8809253,831.8809253,832.6334835999987,832.6334835999987,833.136104899997,833.136104899997,833.9997608999984,833.9997608999984,None,num_4,833.9997608999984,None,happy,1,Happy,834.2718678599987,None,None,834.2718678599987,None,0.25951359999817214,,,,,,,,,,,,,,,,,,,,,,,,,,,,,,,,,,,,,,,,,,,,,,,,,,,,,29,001,0,21,350,400,2022_Oct_24_1601,Experiment,2021.1.4,360.6748948324101,
images\S7_F_S_01.png,images\S7_F_S_01_scrambled.png,7,sad,-10,female,3,,460,on,2,0.5,0.75,0.5,0.865,3,459,2,1,1,2,2,32,128,163,,,,,,0,126,126,126,,,,,,,,,,,,,,,,,,,,,,,,,,,,,,,,,,,,,,,,,,,,,,,,,,,,,,,,,834.3190478999968,834.8245566999976,834.8245566999976,835.574235,835.574235,836.0796613999992,836.0796613999992,836.9515925999985,836.9515925999985,None,num_4,836.9515925999985,None,happy,1,Sad,837.4153350199962,None,None,837.4153350199962,None,0.4516473000003316,,,,,,,,,,,,,,,,,,,,,,,,,,,,,,,,,,,,,,,,,,,,,,,,,,,,,29,001,0,21,350,400,2022_Oct_24_1601,Experiment,2021.1.4,360.6748948324101,
images\S5_F_S_03.png,images\S5_F_S_03_scrambled.png,5,sad,-30,female,1,,390,off,1,0.5,0.75,0.5,0.927,3,389,1,1,1,0,0,0,0,1,,,,,,0,127,127,127,,,,,,,,,,,,,,,,,,,,,,,,,,,,,,,,,,,,,,,,,,,,,,,,,,,,,,,,,837.4791858999997,837.9846579999976,837.9846579999976,838.739959399998,838.739959399998,839.2453546999968,839.2453546999968,840.1784911999966,840.1784911999966,None,num_6,840.1784911999966,None,sad,1,Sad,840.6060575599978,None,None,840.6060575599978,None,0.41674070000226493,,,,,,,,,,,,,,,,,,,,,,,,,,,,,,,,,,,,,,,,,,,,,,,,,,,,,29,001,0,21,350,400,2022_Oct_24_1601,Experiment,2021.1.4,360.6748948324101,
images\S9_F_S_01.png,images\S9_F_S_01_scrambled.png,9,sad,-10,female,3,,472,on,2,0.5,0.75,0.5,0.949,3,471,1,1,1,2,2,32,128,163,,,,,,0,128,128,128,,,,,,,,,,,,,,,,,,,,,,,,,,,,,,,,,,,,,,,,,,,,,,,,,,,,,,,,,840.6532076999974,841.1558654999972,841.1558654999972,841.9055963999999,841.9055963999999,842.4082670999996,842.4082670999996,843.3607467999973,843.3607467999973,None,num_4,843.3607467999973,None,happy,1,Sad,843.705208779998,None,None,843.705208779998,None,0.33882660000017495,,,,,,,,,,,,,,,,,,,,,,,,,,,,,,,,,,,,,,,,,,,,,,,,,,,,,29,001,0,21,350,400,2022_Oct_24_1601,Experiment,2021.1.4,360.6748948324101,
images\S10_M_H_02.png,images\S10_M_H_02_scrambled.png,10,happy,20,male,5,,116,on,2,0.5,0.75,0.5,0.778,3,115,2,1,1,2,2,32,128,165,,,,,,0,129,129,129,,,,,,,,,,,,,,,,,,,,,,,,,,,,,,,,,,,,,,,,,,,,,,,,,,,,,,,,,843.7522543999985,844.2548869999991,844.2548869999991,845.0074759999989,845.0074759999989,845.5100953000001,845.5100953000001,846.2904115999991,846.2904115999991,None,num_4,846.2904115999991,None,happy,1,Happy,846.6320128599956,None,None,846.6320128599956,None,0.31278780000138795,,,,,,,,,,,,,,,,,,,,,,,,,,,,,,,,,,,,,,,,,,,,,,,,,,,,,29,001,0,21,350,400,2022_Oct_24_1601,Experiment,2021.1.4,360.6748948324101,
images\S3_F_H_01.png,images\S3_F_H_01_scrambled.png,3,happy,10,female,4,,373,off,1,0.5,0.75,0.5,0.759,3,372,1,1,1,0,0,0,0,4,,,,,,0,130,130,130,,,,,,,,,,,,,,,,,,,,,,,,,,,,,,,,,,,,,,,,,,,,,,,,,,,,,,,,,846.6846970999977,847.1901360999982,847.1901360999982,847.9454188999989,847.9454188999989,848.445259199998,848.445259199998,849.2061742999977,849.2061742999977,None,num_6,849.2061742999977,None,sad,1,Happy,850.0309049999996,None,space,850.0309049999996,None,0.8132291000001715,237.22768870000073,,,,,,,,,,,,,,,,,,,,,,,,,,,,,,,,,,,,,,,,,,,,,,,,,,,,29,001,0,21,350,400,2022_Oct_24_1601,Experiment,2021.1.4,360.6748948324101,
images\S6_M_H_03.png,images\S6_M_H_03_scrambled.png,6,happy,30,male,6,,393,off,1,0.5,0.75,0.5,0.796,3,392,2,1,1,0,0,0,0,6,,,,,,0,131,131,131,,,,,,,,,,,,,,,,,,,,,,,,,,,,,,,,,,,,,,,,,,,,,,,,,,,,,,,,,1087.3135124999972,1087.8133998999983,1087.8133998999983,1088.5659799999994,1088.5659799999994,1089.068596099998,1089.068596099998,1089.8711382999973,1089.8711382999973,None,num_4,1089.8711382999973,None,happy,1,Happy,1090.6403493599967,None,None,1090.6403493599967,None,0.756101499999204,,,,,,,,,,,,,,,,,,,,,,,,,,,,,,,,,,,,,,,,,,,,,,,,,,,,,29,001,0,21,350,400,2022_Oct_24_1601,Experiment,2021.1.4,360.6748948324101,
images\S4_M_H_02.png,images\S4_M_H_02_scrambled.png,4,happy,20,male,5,,200,on,2,0.5,0.75,0.5,0.765,3,199,1,1,1,2,2,32,128,165,,,,,,0,132,132,132,,,,,,,,,,,,,,,,,,,,,,,,,,,,,,,,,,,,,,,,,,,,,,,,,,,,,,,,,1090.6875273999976,1091.1901885999978,1091.1901885999978,1091.942685099999,1091.942685099999,1092.4453848999983,1092.4453848999983,1093.2146120999969,1093.2146120999969,None,num_6,1093.2146120999969,None,sad,1,Happy,1094.236458779998,None,None,1094.236458779998,None,1.0127643999985594,,,,,,,,,,,,,,,,,,,,,,,,,,,,,,,,,,,,,,,,,,,,,,,,,,,,,29,001,0,21,350,400,2022_Oct_24_1601,Experiment,2021.1.4,360.6748948324101,
images\S2_M_S_03.png,images\S2_M_S_03_scrambled.png,2,sad,-30,male,1,,372,off,1,0.5,0.75,0.5,0.786,3,371,1,1,1,0,0,0,0,1,,,,,,0,133,133,133,,,,,,,,,,,,,,,,,,,,,,,,,,,,,,,,,,,,,,,,,,,,,,,,,,,,,,,,,1094.2864217999995,1094.789039899999,1094.789039899999,1095.5444455999968,1095.5444455999968,1096.0498248999975,1096.0498248999975,1096.8385406999987,1096.8385406999987,None,num_6,1096.8385406999987,None,sad,1,Sad,1097.3549593599957,None,None,1097.3549593599957,None,0.5008202999997593,,,,,,,,,,,,,,,,,,,,,,,,,,,,,,,,,,,,,,,,,,,,,,,,,,,,,29,001,0,21,350,400,2022_Oct_24_1601,Experiment,2021.1.4,360.6748948324101,
images\S10_M_S_03.png,images\S10_M_S_03_scrambled.png,10,sad,-30,male,1,,60,off,1,0.5,0.75,0.5,0.794,3,59,2,1,2,0,0,0,0,1,,,,,,0,134,134,134,,,,,,,,,,,,,,,,,,,,,,,,,,,,,,,,,,,,,,,,,,,,,,,,,,,,,,,,,1097.4021283000002,1097.904757799999,1097.904757799999,1098.6545465999989,1098.6545465999989,1099.1599747,1099.1599747,1099.959716199999,1099.959716199999,None,num_4,1099.959716199999,None,happy,1,Sad,1100.9788247799966,None,None,1100.9788247799966,None,1.0116213000001153,,,,,,,,,,,,,,,,,,,,,,,,,,,,,,,,,,,,,,,,,,,,,,,,,,,,,29,001,0,21,350,400,2022_Oct_24_1601,Experiment,2021.1.4,360.6748948324101,
images\S10_M_H_01.png,images\S10_M_H_01_scrambled.png,10,happy,10,male,4,,55,off,1,0.5,0.75,0.5,0.833,3,54,3,2,1,0,0,0,0,4,,,,,,0,135,135,135,,,,,,,,,,,,,,,,,,,,,,,,,,,,,,,,,,,,,,,,,,,,,,,,,,,,,,,,,1101.0260209999979,1101.5314321999977,1101.5314321999977,1102.2839811999984,1102.2839811999984,1102.7838348999976,1102.7838348999976,1103.622459899998,1103.622459899998,None,num_4,1103.622459899998,None,happy,1,Happy,1104.1334524599981,None,None,1104.1334524599981,None,0.5007356999994954,,,,,,,,,,,,,,,,,,,,,,,,,,,,,,,,,,,,,,,,,,,,,,,,,,,,,29,001,0,21,350,400,2022_Oct_24_1601,Experiment,2021.1.4,360.6748948324101,
images\S8_M_S_03.png,images\S8_M_S_03_scrambled.png,8,sad,-30,male,1,,588,on,2,0.5,0.75,0.5,0.851,3,587,1,1,1,2,2,32,128,161,,,,,,0,136,136,136,,,,,,,,,,,,,,,,,,,,,,,,,,,,,,,,,,,,,,,,,,,,,,,,,,,,,,,,,1104.1806032999993,1104.683352199998,1104.683352199998,1105.4330316999985,1105.4330316999985,1105.9356152,1105.9356152,1106.790941799998,1106.790941799998,None,num_6,1106.790941799998,None,sad,1,Sad,1108.2016178599981,None,None,1108.2016178599981,None,1.3962486999989778,,,,,,,,,,,,,,,,,,,,,,,,,,,,,,,,,,,,,,,,,,,,,,,,,,,,,29,001,0,21,350,400,2022_Oct_24_1601,Experiment,2021.1.4,360.6748948324101,
images\S10_M_H_01.png,images\S10_M_H_01_scrambled.png,10,happy,10,male,4,,355,on,2,0.5,0.75,0.5,0.913,3,354,2,1,1,2,2,32,128,164,,,,,,0,137,137,137,,,,,,,,,,,,,,,,,,,,,,,,,,,,,,,,,,,,,,,,,,,,,,,,,,,,,,,,,1108.2487956999976,1108.7514372999976,1108.7514372999976,1109.5067538999974,1109.5067538999974,1110.0121517999978,1110.0121517999978,1110.9313234999972,1110.9313234999972,None,num_4,1110.9313234999972,None,happy,1,Happy,1111.2979226799976,None,None,1111.2979226799976,None,0.3442103000015777,,,,,,,,,,,,,,,,,,,,,,,,,,,,,,,,,,,,,,,,,,,,,,,,,,,,,29,001,0,21,350,400,2022_Oct_24_1601,Experiment,2021.1.4,360.6748948324101,
images\S1_F_S_02.png,images\S1_F_S_02_scrambled.png,1,sad,-20,female,2,,245,off,1,0.5,0.75,0.5,0.869,3,244,1,1,1,0,0,0,0,2,,,,,,0,138,138,138,,,,,,,,,,,,,,,,,,,,,,,,,,,,,,,,,,,,,,,,,,,,,,,,,,,,,,,,,1111.3645064999982,1111.8699480999967,1111.8699480999967,1112.6224618999986,1112.6224618999986,1113.125138899999,1113.125138899999,1113.997032299998,1113.997032299998,None,num_4,1113.997032299998,None,happy,1,Sad,1114.5330025799972,None,None,1114.5330025799972,None,0.526264700001775,,,,,,,,,,,,,,,,,,,,,,,,,,,,,,,,,,,,,,,,,,,,,,,,,,,,,29,001,0,21,350,400,2022_Oct_24_1601,Experiment,2021.1.4,360.6748948324101,
images\blank.jpg,images\blank.jpg,none,none,none,none,0,,622,on,2,0.5,0.75,0.5,0.763,0,621,1,1,1,3,3,48,192,240,,,,,,0,139,139,139,,,,,,,,,,,,,,,,,,,,,,,,,,,,,,,,,,,,,,,,,,,,,,,,,,,,,,,,,1114.6165509999992,1115.1190126999973,1115.1190126999973,1115.8714742999982,1115.8714742999982,1116.3742067999992,1116.3742067999992,1117.1377723999976,1117.1377723999976,1117.1377723999976,None,1117.1377723999976,None,miss,1,,1120.1396391399965,None,None,1120.1396391399965,None,,,,,,,,,,,,,,,,,,,,,,,,,,,,,,,,,,,,,,,,,,,,,,,,,,,,,,29,001,0,21,350,400,2022_Oct_24_1601,Experiment,2021.1.4,360.6748948324101,
