image_face,image_scram,avatar,emo,emotion,sex,trigeeg,dac,trial_no,NMES,stimtime,baseline,iti,face,scr_face,resp_time,index,count_NMES,count_avatar,count_emotion,dac1,dac2,dac1_output,dac2_output,trigs_out,nmes,practice_trials.thisRepN,practice_trials.thisTrialN,practice_trials.thisN,practice_trials.thisIndex,real_trials.thisRepN,real_trials.thisTrialN,real_trials.thisN,real_trials.thisIndex,trials.thisRepN,trials.thisTrialN,trials.thisN,trials.thisIndex,position,Welcome.started,Welcome.stopped,Welcome_resp.keys,Welcome_resp.rt,text_2.started,text_2.stopped,form_2.index,form_2.itemText,form_2.type,form_2.response,form_2.rt,key_resp_4.keys,key_resp_4.rt,key_resp_4.started,key_resp_4.stopped,instructions.started,instructions.stopped,end_instr.keys,end_instr.rt,instructions_2.started,instructions_2.stopped,end_instr_2.keys,end_instr_2.rt,end_instr_2.started,end_instr_2.stopped,instruct_keypress.started,instruct_keypress.stopped,end_instruct_keypress.keys,end_instruct_keypress.rt,start_practice.started,start_practice.stopped,start_practice_resp.keys,start_practice_resp.rt,prac_baseline.started,prac_baseline.stopped,prac_iti.started,prac_iti.stopped,prac_stimulus.started,prac_stimulus.stopped,prac_scram_stim.started,prac_scram_stim.stopped,prac_stimulus_resp.started,prac_stimulus_resp.stopped,prac_resp.keys,prac_resp.rt,prac_resp.started,prac_resp.stopped,transition_to_real.started,transition_to_real.stopped,end_transition_to_real.keys,end_transition_to_real.rt,fixation_cross.started,fixation_cross.stopped,tr_iti.started,tr_iti.stopped,stimulus.started,stimulus.stopped,scram_stim.started,scram_stim.stopped,response_txt.started,response_txt.stopped,response.keys,response.started,response.stopped,participant_Resp,grouping,corAnswer,break_msg.started,break_msg.stopped,end_break.keys,end_break.started,end_break.stopped,response.rt,end_break.rt,text.started,text.stopped,key_resp_3.keys,key_resp_3.rt,key_resp_3.started,key_resp_3.stopped,fix_cross_comf.started,fix_cross_comf.stopped,stimulation_comf.started,stimulation_comf.stopped,rate_instr.started,rate_instr.stopped,comfort_rating.response,comfort_rating.rt,comfort_rating.started,comfort_rating.stopped,resp_form.keys,resp_form.rt,resp_form.started,resp_form.stopped,survey_instructions.started,survey_instructions.stopped,key_resp_2.keys,key_resp_2.rt,key_resp_2.started,key_resp_2.stopped,form.index,form.itemText,form.type,form.response,form.rt,key_resp.keys,key_resp.rt,key_resp.started,key_resp.stopped,text_3.started,text_3.stopped,rate_smile.response,rate_smile.rt,rate_smile.started,rate_smile.stopped,key_resp_5.keys,key_resp_5.rt,key_resp_5.started,key_resp_5.stopped,end_msg.started,end_msg.stopped,end_resp.keys,end_resp.rt,end_resp.started,end_resp.stopped,participant,session,gender,age,LEFT,RIGHT,date,expName,psychopyVersion,frameRate,
,,,,,,,,,,,,,,,,,,,,,,,,,,,,,,,,,,,,,,S-H,52.03072250000014,None,num_add,5.637971199999811,,,,,,,,,,,,,,,,,,,,,,,,,,,,,,,,,,,,,,,,,,,,,,,,,,,,,,,,,,,,,,,,,,,,,,,,,,,,,,,,,,,,,,,,,,,,,,,,,,,,,,,,,,,,,,,,,,,,,,,,,,2,001,male,38,550,550,2022_Jul_04_0916,Experiment,2021.1.4,360.1397342163594,
,,,,,,,,,,,,,,,,,,,,,,,,,,,,,,,,,,,,,,,,,,,57.69154100000014,59.75753970000005,1,"This scale consistes of a number of words that describe different feelings and emotion. Read each item and then list the number from the scale below each word. Indicate (by clicking) to what extend you feel this way RIGHT NOW, that is, AT THE PRESENT MOMENT.",description,,,,,,,,,,,,,,,,,,,,,,,,,,,,,,,,,,,,,,,,,,,,,,,,,,,,,,,,,,,,,,,,,,,,,,,,,,,,,,,,,,,,,,,,,,,,,,,,,,,,,,,,,,,,,,,,,,,,,2,001,male,38,550,550,2022_Jul_04_0916,Experiment,2021.1.4,360.1397342163594,
,,,,,,,,,,,,,,,,,,,,,,,,,,,,,,,,,,,,,,,,,,,,,2,Interested,rating,5.0,36.56800089999979,,,,,,,,,,,,,,,,,,,,,,,,,,,,,,,,,,,,,,,,,,,,,,,,,,,,,,,,,,,,,,,,,,,,,,,,,,,,,,,,,,,,,,,,,,,,,,,,,,,,,,,,,,,,,,,,,,,2,001,male,38,550,550,2022_Jul_04_0916,Experiment,2021.1.4,360.1397342163594,
,,,,,,,,,,,,,,,,,,,,,,,,,,,,,,,,,,,,,,,,,,,,,3,Distressed,rating,3.0,46.482655299999806,,,,,,,,,,,,,,,,,,,,,,,,,,,,,,,,,,,,,,,,,,,,,,,,,,,,,,,,,,,,,,,,,,,,,,,,,,,,,,,,,,,,,,,,,,,,,,,,,,,,,,,,,,,,,,,,,,,2,001,male,38,550,550,2022_Jul_04_0916,Experiment,2021.1.4,360.1397342163594,
,,,,,,,,,,,,,,,,,,,,,,,,,,,,,,,,,,,,,,,,,,,,,4,Excited,rating,4.0,50.27737419999994,,,,,,,,,,,,,,,,,,,,,,,,,,,,,,,,,,,,,,,,,,,,,,,,,,,,,,,,,,,,,,,,,,,,,,,,,,,,,,,,,,,,,,,,,,,,,,,,,,,,,,,,,,,,,,,,,,,2,001,male,38,550,550,2022_Jul_04_0916,Experiment,2021.1.4,360.1397342163594,
,,,,,,,,,,,,,,,,,,,,,,,,,,,,,,,,,,,,,,,,,,,,,5,Upset,rating,1.0,56.0443808,,,,,,,,,,,,,,,,,,,,,,,,,,,,,,,,,,,,,,,,,,,,,,,,,,,,,,,,,,,,,,,,,,,,,,,,,,,,,,,,,,,,,,,,,,,,,,,,,,,,,,,,,,,,,,,,,,,2,001,male,38,550,550,2022_Jul_04_0916,Experiment,2021.1.4,360.1397342163594,
,,,,,,,,,,,,,,,,,,,,,,,,,,,,,,,,,,,,,,,,,,,,,6,Strong,rating,3.0,58.84621130000005,,,,,,,,,,,,,,,,,,,,,,,,,,,,,,,,,,,,,,,,,,,,,,,,,,,,,,,,,,,,,,,,,,,,,,,,,,,,,,,,,,,,,,,,,,,,,,,,,,,,,,,,,,,,,,,,,,,2,001,male,38,550,550,2022_Jul_04_0916,Experiment,2021.1.4,360.1397342163594,
,,,,,,,,,,,,,,,,,,,,,,,,,,,,,,,,,,,,,,,,,,,,,7,Guilty,rating,1.0,15.044322000000193,,,,,,,,,,,,,,,,,,,,,,,,,,,,,,,,,,,,,,,,,,,,,,,,,,,,,,,,,,,,,,,,,,,,,,,,,,,,,,,,,,,,,,,,,,,,,,,,,,,,,,,,,,,,,,,,,,,2,001,male,38,550,550,2022_Jul_04_0916,Experiment,2021.1.4,360.1397342163594,
,,,,,,,,,,,,,,,,,,,,,,,,,,,,,,,,,,,,,,,,,,,,,8,Scared,rating,1.0,14.075642700000117,,,,,,,,,,,,,,,,,,,,,,,,,,,,,,,,,,,,,,,,,,,,,,,,,,,,,,,,,,,,,,,,,,,,,,,,,,,,,,,,,,,,,,,,,,,,,,,,,,,,,,,,,,,,,,,,,,,2,001,male,38,550,550,2022_Jul_04_0916,Experiment,2021.1.4,360.1397342163594,
,,,,,,,,,,,,,,,,,,,,,,,,,,,,,,,,,,,,,,,,,,,,,9,Hostile,rating,1.0,10.678290899999865,,,,,,,,,,,,,,,,,,,,,,,,,,,,,,,,,,,,,,,,,,,,,,,,,,,,,,,,,,,,,,,,,,,,,,,,,,,,,,,,,,,,,,,,,,,,,,,,,,,,,,,,,,,,,,,,,,,2,001,male,38,550,550,2022_Jul_04_0916,Experiment,2021.1.4,360.1397342163594,
,,,,,,,,,,,,,,,,,,,,,,,,,,,,,,,,,,,,,,,,,,,,,10,Enthusiastic,rating,3.0,6.863495199999761,,,,,,,,,,,,,,,,,,,,,,,,,,,,,,,,,,,,,,,,,,,,,,,,,,,,,,,,,,,,,,,,,,,,,,,,,,,,,,,,,,,,,,,,,,,,,,,,,,,,,,,,,,,,,,,,,,,2,001,male,38,550,550,2022_Jul_04_0916,Experiment,2021.1.4,360.1397342163594,
,,,,,,,,,,,,,,,,,,,,,,,,,,,,,,,,,,,,,,,,,,,,,11,Proud,rating,2.0,8.240048300000126,,,,,,,,,,,,,,,,,,,,,,,,,,,,,,,,,,,,,,,,,,,,,,,,,,,,,,,,,,,,,,,,,,,,,,,,,,,,,,,,,,,,,,,,,,,,,,,,,,,,,,,,,,,,,,,,,,,2,001,male,38,550,550,2022_Jul_04_0916,Experiment,2021.1.4,360.1397342163594,
,,,,,,,,,,,,,,,,,,,,,,,,,,,,,,,,,,,,,,,,,,,,,12,Irritable,rating,2.0,8.25997439999992,,,,,,,,,,,,,,,,,,,,,,,,,,,,,,,,,,,,,,,,,,,,,,,,,,,,,,,,,,,,,,,,,,,,,,,,,,,,,,,,,,,,,,,,,,,,,,,,,,,,,,,,,,,,,,,,,,,2,001,male,38,550,550,2022_Jul_04_0916,Experiment,2021.1.4,360.1397342163594,
,,,,,,,,,,,,,,,,,,,,,,,,,,,,,,,,,,,,,,,,,,,,,13,Alert,rating,4.0,7.225802200000089,,,,,,,,,,,,,,,,,,,,,,,,,,,,,,,,,,,,,,,,,,,,,,,,,,,,,,,,,,,,,,,,,,,,,,,,,,,,,,,,,,,,,,,,,,,,,,,,,,,,,,,,,,,,,,,,,,,2,001,male,38,550,550,2022_Jul_04_0916,Experiment,2021.1.4,360.1397342163594,
,,,,,,,,,,,,,,,,,,,,,,,,,,,,,,,,,,,,,,,,,,,,,14,Ashamed,rating,1.0,9.887740799999847,,,,,,,,,,,,,,,,,,,,,,,,,,,,,,,,,,,,,,,,,,,,,,,,,,,,,,,,,,,,,,,,,,,,,,,,,,,,,,,,,,,,,,,,,,,,,,,,,,,,,,,,,,,,,,,,,,,2,001,male,38,550,550,2022_Jul_04_0916,Experiment,2021.1.4,360.1397342163594,
,,,,,,,,,,,,,,,,,,,,,,,,,,,,,,,,,,,,,,,,,,,,,15,Inspired,rating,3.0,9.035559499999636,,,,,,,,,,,,,,,,,,,,,,,,,,,,,,,,,,,,,,,,,,,,,,,,,,,,,,,,,,,,,,,,,,,,,,,,,,,,,,,,,,,,,,,,,,,,,,,,,,,,,,,,,,,,,,,,,,,2,001,male,38,550,550,2022_Jul_04_0916,Experiment,2021.1.4,360.1397342163594,
,,,,,,,,,,,,,,,,,,,,,,,,,,,,,,,,,,,,,,,,,,,,,16,Nervous,rating,2.0,8.360433199999989,,,,,,,,,,,,,,,,,,,,,,,,,,,,,,,,,,,,,,,,,,,,,,,,,,,,,,,,,,,,,,,,,,,,,,,,,,,,,,,,,,,,,,,,,,,,,,,,,,,,,,,,,,,,,,,,,,,2,001,male,38,550,550,2022_Jul_04_0916,Experiment,2021.1.4,360.1397342163594,
,,,,,,,,,,,,,,,,,,,,,,,,,,,,,,,,,,,,,,,,,,,,,17,Determined,rating,4.0,7.603775600000063,,,,,,,,,,,,,,,,,,,,,,,,,,,,,,,,,,,,,,,,,,,,,,,,,,,,,,,,,,,,,,,,,,,,,,,,,,,,,,,,,,,,,,,,,,,,,,,,,,,,,,,,,,,,,,,,,,,2,001,male,38,550,550,2022_Jul_04_0916,Experiment,2021.1.4,360.1397342163594,
,,,,,,,,,,,,,,,,,,,,,,,,,,,,,,,,,,,,,,,,,,,,,18,Attentive,rating,4.0,9.472266300000229,,,,,,,,,,,,,,,,,,,,,,,,,,,,,,,,,,,,,,,,,,,,,,,,,,,,,,,,,,,,,,,,,,,,,,,,,,,,,,,,,,,,,,,,,,,,,,,,,,,,,,,,,,,,,,,,,,,2,001,male,38,550,550,2022_Jul_04_0916,Experiment,2021.1.4,360.1397342163594,
,,,,,,,,,,,,,,,,,,,,,,,,,,,,,,,,,,,,,,,,,,,,,19,Jittery,rating,2.0,9.463346599999568,,,,,,,,,,,,,,,,,,,,,,,,,,,,,,,,,,,,,,,,,,,,,,,,,,,,,,,,,,,,,,,,,,,,,,,,,,,,,,,,,,,,,,,,,,,,,,,,,,,,,,,,,,,,,,,,,,,2,001,male,38,550,550,2022_Jul_04_0916,Experiment,2021.1.4,360.1397342163594,
,,,,,,,,,,,,,,,,,,,,,,,,,,,,,,,,,,,,,,,,,,,,,20,Active,rating,4.0,9.031079500000033,,,,,,,,,,,,,,,,,,,,,,,,,,,,,,,,,,,,,,,,,,,,,,,,,,,,,,,,,,,,,,,,,,,,,,,,,,,,,,,,,,,,,,,,,,,,,,,,,,,,,,,,,,,,,,,,,,,2,001,male,38,550,550,2022_Jul_04_0916,Experiment,2021.1.4,360.1397342163594,
,,,,,,,,,,,,,,,,,,,,,,,,,,,,,,,,,,,,,,,,,,,,,21,Afraid,rating,1.0,10.070538299999953,,,,,,,,,,,,,,,,,,,,,,,,,,,,,,,,,,,,,,,,,,,,,,,,,,,,,,,,,,,,,,,,,,,,,,,,,,,,,,,,,,,,,,,,,,,,,,,,,,,,,,,,,,,,,,,,,,,2,001,male,38,550,550,2022_Jul_04_0916,Experiment,2021.1.4,360.1397342163594,
,,,,,,,,,,,,,,,,,,,,,,,,,,,,,,,,,,,,,,,,,,,,,22,Press the + button to submit your answers,description,,,,,,,,,,,,,,,,,,,,,,,,,,,,,,,,,,,,,,,,,,,,,,,,,,,,,,,,,,,,,,,,,,,,,,,,,,,,,,,,,,,,,,,,,,,,,,,,,,,,,,,,,,,,,,,,,,,,,2,001,male,38,550,550,2022_Jul_04_0916,Experiment,2021.1.4,360.1397342163594,
,,,,,,,,,,,,,,,,,,,,,,,,,,,,,,,,,,,,,,,,,,,,,,,,,,num_add,92.01024670000015,67.73007420000022,None,,,,,,,,,,,,,,,,,,,,,,,,,,,,,,,,,,,,,,,,,,,,,,,,,,,,,,,,,,,,,,,,,,,,,,,,,,,,,,,,,,,,,,,,,,,,,,,,,,,,,,,,,,,,,,,2,001,male,38,550,550,2022_Jul_04_0916,Experiment,2021.1.4,360.1397342163594,
,,,,,,,,,,,,,,,,,,,,,,,,,,,,,,,,,,,,,,,,,,,,,,,,,,,,,,159.7627606000001,None,num_add,14.417523099999926,,,,,,,,,,,,,,,,,,,,,,,,,,,,,,,,,,,,,,,,,,,,,,,,,,,,,,,,,,,,,,,,,,,,,,,,,,,,,,,,,,,,,,,,,,,,,,,,,,,,,,,,,,,2,001,male,38,550,550,2022_Jul_04_0916,Experiment,2021.1.4,360.1397342163594,
,,,,,,,,,,,,,,,,,,,,,,,,,,,,,,,,,,,,,,,,,,,,,,,,,,,,,,,,,,174.1888702000001,None,num_add,14.839354900000217,174.1888702000001,None,,,,,,,,,,,,,,,,,,,,,,,,,,,,,,,,,,,,,,,,,,,,,,,,,,,,,,,,,,,,,,,,,,,,,,,,,,,,,,,,,,,,,,,,,,,,,,,,,,,,,2,001,male,38,550,550,2022_Jul_04_0916,Experiment,2021.1.4,360.1397342163594,
,,,,,,,,,,,,,,,,,,,,,,,,,,,,,,,,,,,,,,,,,,,,,,,,,,,,,,,,,,,,,,,,189.05095010000014,None,num_add,2.937253800000235,,,,,,,,,,,,,,,,,,,,,,,,,,,,,,,,,,,,,,,,,,,,,,,,,,,,,,,,,,,,,,,,,,,,,,,,,,,,,,,,,,,,,,,,,,,,,,,,,2,001,male,38,550,550,2022_Jul_04_0916,Experiment,2021.1.4,360.1397342163594,
,,,,,,,,,,,,,,,,,,,,,,,,,,,,,,,,,,,,,,,,,,,,,,,,,,,,,,,,,,,,,,,,,,,,192.00003990000005,None,space,20.46800310000026,,,,,,,,,,,,,,,,,,,,,,,,,,,,,,,,,,,,,,,,,,,,,,,,,,,,,,,,,,,,,,,,,,,,,,,,,,,,,,,,,,,,,,,,,,,,,2,001,male,38,550,550,2022_Jul_04_0916,Experiment,2021.1.4,360.1397342163594,
images\S21_F_H_01.png,images\S21_F_H_01_scrambled.png,21,Happy,-0.1,F,0,0,practice,off,1,0.5,0.75,0.5,0.853,3,,,,,,,,,,,0,0,0,0,,,,,,,,,,,,,,,,,,,,,,,,,,,,,,,,,,,,,,,,,,,212.64640410000038,213.1490560000002,213.1490560000002,213.8988247000002,213.8988247000002,214.39869290000024,214.39869290000024,215.25399050000033,215.25399050000033,None,num_6,2.326637500000288,215.25399050000033,None,,,,,,,,,,,,,,,,,,,,,,,,,,,,,,,,,,,,,,,,,,,,,,,,,,,,,,,,,,,,,,,,,,,,,,,,,,,,,,,2,001,male,38,550,550,2022_Jul_04_0916,Experiment,2021.1.4,360.1397342163594,
images\S22_M_S_03.png,images\S22_M_S_03_scrambled.png,22,Sad,0.3,M,0,0,practice,on,2,0.5,0.75,0.5,0.794,3,,,,,,,,,,,0,1,1,7,,,,,,,,,,,,,,,,,,,,,,,,,,,,,,,,,,,,,,,,,,,217.64488690000007,218.14752680000038,218.14752680000038,218.90293950000023,218.90293950000023,219.40546059999997,219.40546059999997,220.20243849999997,220.20243849999997,None,num_4,0.8189093999999386,220.20243849999997,None,,,,,,,,,,,,,,,,,,,,,,,,,,,,,,,,,,,,,,,,,,,,,,,,,,,,,,,,,,,,,,,,,,,,,,,,,,,,,,,2,001,male,38,550,550,2022_Jul_04_0916,Experiment,2021.1.4,360.1397342163594,
images\S22_M_S_03.png,images\S22_M_S_03_scrambled.png,22,Sad,0.3,M,0,0,practice,on,2,0.5,0.75,0.5,0.87,3,,,,,,,,,,,0,2,2,4,,,,,,,,,,,,,,,,,,,,,,,,,,,,,,,,,,,,,,,,,,,221.09660510000003,221.59645170000022,221.59645170000022,222.3490472000003,222.3490472000003,222.85178020000012,222.85178020000012,223.7236484,223.7236484,None,None,,223.7236484,None,,,,,,,,,,,,,,,,,,,,,,,,,,,,,,,,,,,,,,,,,,,,,,,,,,,,,,,,,,,,,,,,,,,,,,,,,,,,,,,2,001,male,38,550,550,2022_Jul_04_0916,Experiment,2021.1.4,360.1397342163594,
images\S22_M_S_01.png,images\S22_M_S_01_scrambled.png,22,Sad,0.1,M,0,0,practice,on,2,0.5,0.75,0.5,0.867,3,,,,,,,,,,,0,3,3,5,,,,,,,,,,,,,,,,,,,,,,,,,,,,,,,,,,,,,,,,,,,226.80873360000032,227.31134610000026,227.31134610000026,228.06120380000038,228.06120380000038,228.56377020000036,228.56377020000036,229.43291120000004,229.43291120000004,226.80873360000032,num_4,0.5800196000000142,229.43291120000004,226.80873360000032,,,,,,,,,,,,,,,,,,,,,,,,,,,,,,,,,,,,,,,,,,,,,,,,,,,,,,,,,,,,,,,,,,,,,,,,,,,,,,,2,001,male,38,550,550,2022_Jul_04_0916,Experiment,2021.1.4,360.1397342163594,
images\S22_M_S_02.png,images\S22_M_S_02_scrambled.png,22,Sad,0.2,M,0,0,practice,on,2,0.5,0.75,0.5,0.783,3,,,,,,,,,,,0,4,4,6,,,,,,,,,,,,,,,,,,,,,,,,,,,,,,,,,,,,,,,,,,,230.09951790000014,230.60479160000023,230.60479160000023,231.35752390000016,231.35752390000016,231.86285130000033,231.86285130000033,232.64858570000024,232.64858570000024,None,num_4,1.5959853000003932,232.64858570000024,None,,,,,,,,,,,,,,,,,,,,,,,,,,,,,,,,,,,,,,,,,,,,,,,,,,,,,,,,,,,,,,,,,,,,,,,,,,,,,,,2,001,male,38,550,550,2022_Jul_04_0916,Experiment,2021.1.4,360.1397342163594,
images\S21_F_H_02.png,images\S21_F_H_02_scrambled.png,21,Happy,-0.2,F,0,0,practice,off,1,0.5,0.75,0.5,0.91,3,,,,,,,,,,,0,5,5,1,,,,,,,,,,,,,,,,,,,,,,,,,,,,,,,,,,,,,,,,,,,234.33418400000028,234.83679470000015,234.83679470000015,235.58657089999997,235.58657089999997,236.09213950000003,236.09213950000003,237.0083856000001,237.0083856000001,None,num_6,1.0605539000002864,237.0083856000001,None,,,,,,,,,,,,,,,,,,,,,,,,,,,,,,,,,,,,,,,,,,,,,,,,,,,,,,,,,,,,,,,,,,,,,,,,,,,,,,,2,001,male,38,550,550,2022_Jul_04_0916,Experiment,2021.1.4,360.1397342163594,
images\S22_M_S_02.png,images\S22_M_S_02_scrambled.png,22,Sad,0.2,M,0,0,practice,off,1,0.5,0.75,0.5,0.751,3,,,,,,,,,,,0,6,6,3,,,,,,,,,,,,,,,,,,,,,,,,,,,,,,,,,,,,,,,,,,,238.12468060000037,238.62731410000015,238.62731410000015,239.37712030000012,239.37712030000012,239.87690680000014,239.87690680000014,240.6322293000003,240.6322293000003,None,num_4,0.48456890000034036,240.6322293000003,None,,,,,,,,,,,,,,,,,,,,,,,,,,,,,,,,,,,,,,,,,,,,,,,,,,,,,,,,,,,,,,,,,,,,,,,,,,,,,,,2,001,male,38,550,550,2022_Jul_04_0916,Experiment,2021.1.4,360.1397342163594,
images\S22_M_H_02.png,images\S22_M_H_02_scrambled.png,22,Happy,-0.2,M,0,0,practice,off,1,0.5,0.75,0.5,0.883,3,,,,,,,,,,,0,7,7,2,,,,,,,,,,,,,,,,,,,,,,,,,,,,,,,,,,,,,,,,,,,241.19872729999997,241.69857070000035,241.69857070000035,242.44830709999997,242.44830709999997,242.9538080000002,242.9538080000002,243.84247400000004,243.84247400000004,None,num_6,0.5700995000001967,243.84247400000004,None,,,,,,,,,,,,,,,,,,,,,,,,,,,,,,,,,,,,,,,,,,,,,,,,,,,,,,,,,,,,,,,,,,,,,,,,,,,,,,,2,001,male,38,550,550,2022_Jul_04_0916,Experiment,2021.1.4,360.1397342163594,
,,,,,,,,,,,,,,,,,,,,,,,,,,,,,,,,,,,,,,,,,,,,,,,,,,,,,,,,,,,,,,,,,,,,,,,,,,,,,,,,,,,,,,244.44217460000027,None,space,77.01782460000004,,,,,,,,,,,,,,,,,,,,,,,,,,,,,,,,,,,,,,,,,,,,,,,,,,,,,,,,,,,,,,,,,,,,,,,,,,,2,001,male,38,550,550,2022_Jul_04_0916,Experiment,2021.1.4,360.1397342163594,
images\blank.jpg,images\blank.jpg,none,none,none,none,0,,611,on,2,0.5,0.75,0.5,0.847,0,610,1,1,1,3,3,48,192,240,,,,,,0,0,0,0,,,,,,,,,,,,,,,,,,,,,,,,,,,,,,,,,,,,,,,,,,,,,,,,,,,,,,,,,321.95433920000005,322.4597584000003,322.4597584000003,323.2151138000004,323.2151138000004,323.7204697000002,323.7204697000002,324.57021580000037,324.57021580000037,324.57021580000037,None,324.57021580000037,None,miss,0,,327.5804077600001,None,None,327.5804077600001,None,,,,,,,,,,,,,,,,,,,,,,,,,,,,,,,,,,,,,,,,,,,,,,,,,,,,,,2,001,male,38,550,550,2022_Jul_04_0916,Experiment,2021.1.4,360.1397342163594,
images\S7_F_S_02.png,images\S7_F_S_02_scrambled.png,7,sad,-20,female,2,,341,on,2,0.5,0.75,0.5,0.886,3,340,2,1,1,2,2,32,128,162,,,,,,0,1,1,1,,,,,,,,,,,,,,,,,,,,,,,,,,,,,,,,,,,,,,,,,,,,,,,,,,,,,,,,,327.70838430000003,328.2135277000002,328.2135277000002,328.96622890000026,328.96622890000026,329.46869620000007,329.46869620000007,330.3572992000004,330.3572992000004,None,num_4,330.3572992000004,327.70838430000003,sad,0,Sad,331.1989232200005,None,None,331.1989232200005,None,0.8159491000001253,,,,,,,,,,,,,,,,,,,,,,,,,,,,,,,,,,,,,,,,,,,,,,,,,,,,,2,001,male,38,550,550,2022_Jul_04_0916,Experiment,2021.1.4,360.1397342163594,
images\S2_M_S_01.png,images\S2_M_S_01_scrambled.png,2,sad,-10,male,3,,10,off,1,0.5,0.75,0.5,0.947,3,9,1,1,1,0,0,0,0,3,,,,,,0,2,2,2,,,,,,,,,,,,,,,,,,,,,,,,,,,,,,,,,,,,,,,,,,,,,,,,,,,,,,,,,331.27108190000035,331.7735404,331.7735404,332.52624600000036,332.52624600000036,333.02593320000005,333.02593320000005,333.97580070000004,333.97580070000004,None,num_4,333.97580070000004,None,sad,0,Sad,334.5755413200001,None,None,334.5755413200001,None,0.5728912999998101,,,,,,,,,,,,,,,,,,,,,,,,,,,,,,,,,,,,,,,,,,,,,,,,,,,,,2,001,male,38,550,550,2022_Jul_04_0916,Experiment,2021.1.4,360.1397342163594,
images\S1_F_S_01.png,images\S1_F_S_01_scrambled.png,1,sad,-10,female,3,,4,off,1,0.5,0.75,0.5,0.853,3,3,2,1,2,0,0,0,0,3,,,,,,0,3,3,3,,,,,,,,,,,,,,,,,,,,,,,,,,,,,,,,,,,,,,,,,,,,,,,,,,,,,,,,,334.6393048,335.1420009000003,335.1420009000003,335.8972563000002,335.8972563000002,336.39987390000033,336.39987390000033,337.2579708000003,337.2579708000003,None,num_6,337.2579708000003,None,happy,0,Sad,337.65779638000026,None,None,337.65779638000026,None,0.39433610000014596,,,,,,,,,,,,,,,,,,,,,,,,,,,,,,,,,,,,,,,,,,,,,,,,,,,,,2,001,male,38,550,550,2022_Jul_04_0916,Experiment,2021.1.4,360.1397342163594,
images\S10_M_S_03.png,images\S10_M_S_03_scrambled.png,10,sad,-30,male,1,,480,on,2,0.5,0.75,0.5,0.843,3,479,1,1,1,2,2,32,128,161,,,,,,0,4,4,4,,,,,,,,,,,,,,,,,,,,,,,,,,,,,,,,,,,,,,,,,,,,,,,,,,,,,,,,,337.7189175000003,338.2187530000001,338.2187530000001,338.9714709,338.9714709,339.47678910000013,339.47678910000013,340.32652770000004,340.32652770000004,None,num_6,340.32652770000004,None,happy,0,Sad,341.0734389800002,None,None,341.0734389800002,None,0.7416474999999991,,,,,,,,,,,,,,,,,,,,,,,,,,,,,,,,,,,,,,,,,,,,,,,,,,,,,2,001,male,38,550,550,2022_Jul_04_0916,Experiment,2021.1.4,360.1397342163594,
images\S10_M_S_02.png,images\S10_M_S_02_scrambled.png,10,sad,-20,male,2,,479,on,2,0.5,0.75,0.5,0.799,3,478,2,2,1,2,2,32,128,162,,,,,,0,5,5,5,,,,,,,,,,,,,,,,,,,,,,,,,,,,,,,,,,,,,,,,,,,,,,,,,,,,,,,,,341.16229150000026,341.6677673000004,341.6677673000004,342.4202373000003,342.4202373000003,342.92285549999997,342.92285549999997,343.7254028000002,343.7254028000002,None,num_6,343.7254028000002,None,happy,0,Sad,344.2640947200004,None,None,344.2640947200004,None,0.5270873999998003,,,,,,,,,,,,,,,,,,,,,,,,,,,,,,,,,,,,,,,,,,,,,,,,,,,,,2,001,male,38,550,550,2022_Jul_04_0916,Experiment,2021.1.4,360.1397342163594,
images\S9_F_S_02.png,images\S9_F_S_02_scrambled.png,9,sad,-20,female,2,,533,off,1,0.5,0.75,0.5,0.793,3,532,1,1,2,0,0,0,0,2,,,,,,0,6,6,6,,,,,,,,,,,,,,,,,,,,,,,,,,,,,,,,,,,,,,,,,,,,,,,,,,,,,,,,,344.3335374000003,344.8363322,344.8363322,345.58598010000014,345.58598010000014,346.0914928000002,346.0914928000002,346.8882958000004,346.8882958000004,None,num_4,346.8882958000004,None,sad,0,Sad,347.45483126000005,None,None,347.45483126000005,None,0.5561041000000841,,,,,,,,,,,,,,,,,,,,,,,,,,,,,,,,,,,,,,,,,,,,,,,,,,,,,2,001,male,38,550,550,2022_Jul_04_0916,Experiment,2021.1.4,360.1397342163594,
images\S7_F_S_03.png,images\S7_F_S_03_scrambled.png,7,sad,-30,female,1,,222,on,2,0.5,0.75,0.5,0.813,3,221,1,1,1,2,2,32,128,161,,,,,,0,7,7,7,,,,,,,,,,,,,,,,,,,,,,,,,,,,,,,,,,,,,,,,,,,,,,,,,,,,,,,,,347.53532459999997,348.03797010000017,348.03797010000017,348.79328699999996,348.79328699999996,349.2960568000003,349.2960568000003,350.11532990000023,350.11532990000023,None,num_4,350.11532990000023,None,sad,0,Sad,351.0070739200002,None,None,351.0070739200002,None,0.8658003000000463,,,,,,,,,,,,,,,,,,,,,,,,,,,,,,,,,,,,,,,,,,,,,,,,,,,,,2,001,male,38,550,550,2022_Jul_04_0916,Experiment,2021.1.4,360.1397342163594,
images\S2_M_H_01.png,images\S2_M_H_01_scrambled.png,2,happy,10,male,4,,187,on,2,0.5,0.75,0.5,0.927,3,186,2,1,1,2,2,32,128,164,,,,,,0,8,8,8,,,,,,,,,,,,,,,,,,,,,,,,,,,,,,,,,,,,,,,,,,,,,,,,,,,,,,,,,351.0786844000004,351.5815837,351.5815837,352.3367288000004,352.3367288000004,352.8421075000001,352.8421075000001,353.7695036,353.7695036,None,num_6,353.7695036,None,happy,0,Happy,354.5692415600002,None,None,354.5692415600002,None,0.7868156999998064,,,,,,,,,,,,,,,,,,,,,,,,,,,,,,,,,,,,,,,,,,,,,,,,,,,,,2,001,male,38,550,550,2022_Jul_04_0916,Experiment,2021.1.4,360.1397342163594,
images\S9_F_H_03.png,images\S9_F_H_03_scrambled.png,9,happy,30,female,6,,591,on,2,0.5,0.75,0.5,0.814,3,590,3,1,1,2,2,32,128,166,,,,,,0,9,9,9,,,,,,,,,,,,,,,,,,,,,,,,,,,,,,,,,,,,,,,,,,,,,,,,,,,,,,,,,354.6331292,355.1385449000004,355.1385449000004,355.8911902,355.8911902,356.39659570000003,356.39659570000003,357.21294320000015,357.21294320000015,None,num_6,357.21294320000015,None,happy,0,Happy,357.7377030600001,None,None,357.7377030600001,None,0.5118916999999783,,,,,,,,,,,,,,,,,,,,,,,,,,,,,,,,,,,,,,,,,,,,,,,,,,,,,2,001,male,38,550,550,2022_Jul_04_0916,Experiment,2021.1.4,360.1397342163594,
images\S6_M_S_01.png,images\S6_M_S_01_scrambled.png,6,sad,-10,male,3,,334,on,2,0.5,0.75,0.5,0.922,3,333,4,1,1,2,2,32,128,163,,,,,,0,10,10,10,,,,,,,,,,,,,,,,,,,,,,,,,,,,,,,,,,,,,,,,,,,,,,,,,,,,,,,,,357.81284510000023,358.3181135,358.3181135,359.073437,359.073437,359.57326920000014,359.57326920000014,360.4980108,360.4980108,None,num_4,360.4980108,None,sad,0,Sad,360.98391596000016,None,None,360.98391596000016,None,0.45814859999973123,,,,,,,,,,,,,,,,,,,,,,,,,,,,,,,,,,,,,,,,,,,,,,,,,,,,,2,001,male,38,550,550,2022_Jul_04_0916,Experiment,2021.1.4,360.1397342163594,
images\S1_F_H_01.png,images\S1_F_H_01_scrambled.png,1,happy,10,female,4,,1,off,1,0.5,0.75,0.5,0.759,3,0,1,1,1,0,0,0,0,4,,,,,,0,11,11,11,,,,,,,,,,,,,,,,,,,,,,,,,,,,,,,,,,,,,,,,,,,,,,,,,,,,,,,,,361.0422665000001,361.547693,361.547693,362.29742750000014,362.29742750000014,362.80012190000025,362.80012190000025,363.5610464000001,363.5610464000001,None,num_6,363.5610464000001,None,happy,0,Happy,364.1719305200001,None,None,364.1719305200001,None,0.5874607999999171,,,,,,,,,,,,,,,,,,,,,,,,,,,,,,,,,,,,,,,,,,,,,,,,,,,,,2,001,male,38,550,550,2022_Jul_04_0916,Experiment,2021.1.4,360.1397342163594,
images\S6_M_H_03.png,images\S6_M_H_03_scrambled.png,6,happy,30,male,6,,573,on,2,0.5,0.75,0.5,0.868,3,572,1,1,1,2,2,32,128,166,,,,,,0,12,12,12,,,,,,,,,,,,,,,,,,,,,,,,,,,,,,,,,,,,,,,,,,,,,,,,,,,,,,,,,364.2468365,364.7494501000001,364.7494501000001,365.5020609000003,365.5020609000003,366.00746270000036,366.00746270000036,366.8822103000002,366.8822103000002,None,num_6,366.8822103000002,None,happy,0,Happy,367.90685942000044,None,None,367.90685942000044,None,1.0022288000000117,,,,,,,,,,,,,,,,,,,,,,,,,,,,,,,,,,,,,,,,,,,,,,,,,,,,,2,001,male,38,550,550,2022_Jul_04_0916,Experiment,2021.1.4,360.1397342163594,
images\S4_M_S_02.png,images\S4_M_S_02_scrambled.png,4,sad,-20,male,2,,83,on,2,0.5,0.75,0.5,0.842,3,82,2,1,1,2,2,32,128,162,,,,,,0,13,13,13,,,,,,,,,,,,,,,,,,,,,,,,,,,,,,,,,,,,,,,,,,,,,,,,,,,,,,,,,367.97901249999995,368.47886610000023,368.47886610000023,369.23152310000023,369.23152310000023,369.7368832000002,369.7368832000002,370.5838917000001,370.5838917000001,None,num_4,370.5838917000001,None,sad,0,Sad,371.26129922000035,None,None,371.26129922000035,None,0.6528773000000001,,,,,,,,,,,,,,,,,,,,,,,,,,,,,,,,,,,,,,,,,,,,,,,,,,,,,2,001,male,38,550,550,2022_Jul_04_0916,Experiment,2021.1.4,360.1397342163594,
images\S1_F_S_03.png,images\S1_F_S_03_scrambled.png,1,sad,-30,female,1,,126,off,1,0.5,0.75,0.5,0.766,3,125,1,1,1,0,0,0,0,1,,,,,,0,14,14,14,,,,,,,,,,,,,,,,,,,,,,,,,,,,,,,,,,,,,,,,,,,,,,,,,,,,,,,,,371.32242220000035,371.8250414000004,371.8250414000004,372.5776533000003,372.5776533000003,373.08028190000005,373.08028190000005,373.8522635000004,373.8522635000004,None,num_4,373.8522635000004,None,sad,0,Sad,374.74359206000014,None,None,374.74359206000014,None,0.8801846000001206,,,,,,,,,,,,,,,,,,,,,,,,,,,,,,,,,,,,,,,,,,,,,,,,,,,,,2,001,male,38,550,550,2022_Jul_04_0916,Experiment,2021.1.4,360.1397342163594,
images\blank.jpg,images\blank.jpg,none,none,none,none,0,,610,on,2,0.5,0.75,0.5,0.752,0,609,1,1,1,3,3,48,192,240,,,,,,0,15,15,15,,,,,,,,,,,,,,,,,,,,,,,,,,,,,,,,,,,,,,,,,,,,,,,,,,,,,,,,,374.82984460000034,375.33231939999996,375.33231939999996,376.08500430000004,376.08500430000004,376.5874947000002,376.5874947000002,377.34572720000006,377.34572720000006,377.34572720000006,None,377.34572720000006,None,miss,0,,380.34751738,None,None,380.34751738,None,,,,,,,,,,,,,,,,,,,,,,,,,,,,,,,,,,,,,,,,,,,,,,,,,,,,,,2,001,male,38,550,550,2022_Jul_04_0916,Experiment,2021.1.4,360.1397342163594,
images\S1_F_S_02.png,images\S1_F_S_02_scrambled.png,1,sad,-20,female,2,,125,off,1,0.5,0.75,0.5,0.822,3,124,1,1,1,0,0,0,0,2,,,,,,0,16,16,16,,,,,,,,,,,,,,,,,,,,,,,,,,,,,,,,,,,,,,,,,,,,,,,,,,,,,,,,,380.51142260000006,381.01674040000034,381.01674040000034,381.7664130000003,381.7664130000003,382.27190450000035,382.27190450000035,383.0966687,383.0966687,None,num_4,383.0966687,380.51142260000006,sad,0,Sad,383.6020605200003,None,None,383.6020605200003,None,0.48365049999983967,,,,,,,,,,,,,,,,,,,,,,,,,,,,,,,,,,,,,,,,,,,,,,,,,,,,,2,001,male,38,550,550,2022_Jul_04_0916,Experiment,2021.1.4,360.1397342163594,
images\S2_M_H_02.png,images\S2_M_H_02_scrambled.png,2,happy,20,male,5,,248,off,1,0.5,0.75,0.5,0.779,3,247,2,1,1,0,0,0,0,5,,,,,,0,17,17,17,,,,,,,,,,,,,,,,,,,,,,,,,,,,,,,,,,,,,,,,,,,,,,,,,,,,,,,,,383.6797134000003,384.17955329999995,384.17955329999995,384.93217440000035,384.93217440000035,385.4347270000003,385.4347270000003,386.2178323000003,386.2178323000003,None,num_6,386.2178323000003,None,happy,0,Happy,386.69554952000016,None,None,386.69554952000016,None,0.45123960000000807,,,,,,,,,,,,,,,,,,,,,,,,,,,,,,,,,,,,,,,,,,,,,,,,,,,,,2,001,male,38,550,550,2022_Jul_04_0916,Experiment,2021.1.4,360.1397342163594,
images\S4_M_S_03.png,images\S4_M_S_03_scrambled.png,4,sad,-30,male,1,,204,on,2,0.5,0.75,0.5,0.846,3,203,1,1,1,2,2,32,128,161,,,,,,0,18,18,18,,,,,,,,,,,,,,,,,,,,,,,,,,,,,,,,,,,,,,,,,,,,,,,,,,,,,,,,,386.77320640000016,387.2758359000004,387.2758359000004,388.0256153,388.0256153,388.52546280000024,388.52546280000024,389.3779773000001,389.3779773000001,None,num_4,389.3779773000001,None,sad,0,Sad,389.97244572000017,None,None,389.97244572000017,None,0.5621235000003253,,,,,,,,,,,,,,,,,,,,,,,,,,,,,,,,,,,,,,,,,,,,,,,,,,,,,2,001,male,38,550,550,2022_Jul_04_0916,Experiment,2021.1.4,360.1397342163594,
images\S9_F_H_01.png,images\S9_F_H_01_scrambled.png,9,happy,10,female,4,,289,off,1,0.5,0.75,0.5,0.875,3,288,1,1,1,0,0,0,0,4,,,,,,0,19,19,19,,,,,,,,,,,,,,,,,,,,,,,,,,,,,,,,,,,,,,,,,,,,,,,,,,,,,,,,,390.0417655000001,390.54147890000013,390.54147890000013,391.29682649999995,391.29682649999995,391.7966542000004,391.7966542000004,392.67700779999996,392.67700779999996,None,num_6,392.67700779999996,None,happy,0,Happy,393.3072810600002,None,None,393.3072810600002,None,0.6152517999998963,,,,,,,,,,,,,,,,,,,,,,,,,,,,,,,,,,,,,,,,,,,,,,,,,,,,,2,001,male,38,550,550,2022_Jul_04_0916,Experiment,2021.1.4,360.1397342163594,
images\S8_M_S_02.png,images\S8_M_S_02_scrambled.png,8,sad,-20,male,2,,587,on,2,0.5,0.75,0.5,0.775,3,586,1,1,1,2,2,32,128,162,,,,,,0,20,20,20,,,,,,,,,,,,,,,,,,,,,,,,,,,,,,,,,,,,,,,,,,,,,,,,,,,,,,,,,393.3822965000004,393.88769120000006,393.88769120000006,394.6374353000001,394.6374353000001,395.13728470000024,395.13728470000024,395.9148964000001,395.9148964000001,None,num_4,395.9148964000001,None,sad,0,Sad,396.7508752800002,None,None,396.7508752800002,None,0.8095290000001114,,,,,,,,,,,,,,,,,,,,,,,,,,,,,,,,,,,,,,,,,,,,,,,,,,,,,2,001,male,38,550,550,2022_Jul_04_0916,Experiment,2021.1.4,360.1397342163594,
images\S7_F_S_01.png,images\S7_F_S_01_scrambled.png,7,sad,-10,female,3,,100,on,2,0.5,0.75,0.5,0.86,3,99,2,1,1,2,2,32,128,163,,,,,,0,21,21,21,,,,,,,,,,,,,,,,,,,,,,,,,,,,,,,,,,,,,,,,,,,,,,,,,,,,,,,,,396.8228749,397.32828670000026,397.32828670000026,398.08360330000005,398.08360330000005,398.58633580000014,398.58633580000014,399.4499119000002,399.4499119000002,None,num_4,399.4499119000002,None,sad,0,Sad,400.0746322600003,None,None,400.0746322600003,None,0.6102604999996402,,,,,,,,,,,,,,,,,,,,,,,,,,,,,,,,,,,,,,,,,,,,,,,,,,,,,2,001,male,38,550,550,2022_Jul_04_0916,Experiment,2021.1.4,360.1397342163594,
images\blank.jpg,images\blank.jpg,none,none,none,none,0,,630,on,2,0.5,0.75,0.5,0.891,0,629,3,1,1,3,3,48,192,240,,,,,,0,22,22,22,,,,,,,,,,,,,,,,,,,,,,,,,,,,,,,,,,,,,,,,,,,,,,,,,,,,,,,,,400.16139120000025,400.66337010000007,400.66337010000007,401.41607410000006,401.41607410000006,401.92142839999997,401.92142839999997,402.8156366000003,402.8156366000003,402.8156366000003,None,402.8156366000003,None,miss,0,,405.8202722800004,None,None,405.8202722800004,None,,,,,,,,,,,,,,,,,,,,,,,,,,,,,,,,,,,,,,,,,,,,,,,,,,,,,,2,001,male,38,550,550,2022_Jul_04_0916,Experiment,2021.1.4,360.1397342163594,
images\S6_M_S_02.png,images\S6_M_S_02_scrambled.png,6,sad,-20,male,2,,515,off,1,0.5,0.75,0.5,0.768,3,514,1,1,1,0,0,0,0,2,,,,,,0,23,23,23,,,,,,,,,,,,,,,,,,,,,,,,,,,,,,,,,,,,,,,,,,,,,,,,,,,,,,,,,405.99793290000025,406.50323590000016,406.50323590000016,407.2585603000002,407.2585603000002,407.7611796000001,407.7611796000001,408.5362943,408.5362943,None,num_4,408.5362943,405.99793290000025,sad,0,Sad,409.0164360200003,None,None,409.0164360200003,None,0.4522932999998375,,,,,,,,,,,,,,,,,,,,,,,,,,,,,,,,,,,,,,,,,,,,,,,,,,,,,2,001,male,38,550,550,2022_Jul_04_0916,Experiment,2021.1.4,360.1397342163594,
images\blank.jpg,images\blank.jpg,none,none,none,none,0,,602,on,2,0.5,0.75,0.5,0.843,0,601,1,1,1,3,3,48,192,240,,,,,,0,24,24,24,,,,,,,,,,,,,,,,,,,,,,,,,,,,,,,,,,,,,,,,,,,,,,,,,,,,,,,,,409.1053847000003,409.60782560000007,409.60782560000007,410.3631633,410.3631633,410.86592900000005,410.86592900000005,411.70997590000025,411.70997590000025,411.70997590000025,None,411.70997590000025,None,miss,0,,414.71180574000016,None,None,414.71180574000016,None,,,,,,,,,,,,,,,,,,,,,,,,,,,,,,,,,,,,,,,,,,,,,,,,,,,,,,2,001,male,38,550,550,2022_Jul_04_0916,Experiment,2021.1.4,360.1397342163594,
images\S9_F_H_01.png,images\S9_F_H_01_scrambled.png,9,happy,10,female,4,,109,on,2,0.5,0.75,0.5,0.916,3,108,2,1,1,2,2,32,128,164,,,,,,0,25,25,25,,,,,,,,,,,,,,,,,,,,,,,,,,,,,,,,,,,,,,,,,,,,,,,,,,,,,,,,,414.8287078000003,415.3310712000002,415.3310712000002,416.0808297000003,416.0808297000003,416.5806838000003,416.5806838000003,417.4998964000001,417.4998964000001,None,num_6,417.4998964000001,414.8287078000003,happy,0,Happy,418.0803068400004,None,None,418.0803068400004,None,0.5607797000002392,,,,,,,,,,,,,,,,,,,,,,,,,,,,,,,,,,,,,,,,,,,,,,,,,,,,,2,001,male,38,550,550,2022_Jul_04_0916,Experiment,2021.1.4,360.1397342163594,
images\S4_M_S_03.png,images\S4_M_S_03_scrambled.png,4,sad,-30,male,1,,324,on,2,0.5,0.75,0.5,0.865,3,323,3,1,1,2,2,32,128,161,,,,,,0,26,26,26,,,,,,,,,,,,,,,,,,,,,,,,,,,,,,,,,,,,,,,,,,,,,,,,,,,,,,,,,418.13573280000037,418.6356006000001,418.6356006000001,419.3881405000002,419.3881405000002,419.8909170000002,419.8909170000002,420.7571479000003,420.7571479000003,None,num_4,420.7571479000003,None,sad,0,Sad,421.57078196000026,None,None,421.57078196000026,None,0.7989597999999205,,,,,,,,,,,,,,,,,,,,,,,,,,,,,,,,,,,,,,,,,,,,,,,,,,,,,2,001,male,38,550,550,2022_Jul_04_0916,Experiment,2021.1.4,360.1397342163594,
images\S7_F_H_01.png,images\S7_F_H_01_scrambled.png,7,happy,10,female,4,,97,on,2,0.5,0.75,0.5,0.786,3,96,4,1,1,2,2,32,128,164,,,,,,0,27,27,27,,,,,,,,,,,,,,,,,,,,,,,,,,,,,,,,,,,,,,,,,,,,,,,,,,,,,,,,,421.6541003000002,422.15671280000015,422.15671280000015,422.9093444,422.9093444,423.41195370000014,423.41195370000014,424.20052590000023,424.20052590000023,None,num_6,424.20052590000023,None,happy,0,Happy,424.94473654000046,None,None,424.94473654000046,None,0.7237382999996953,,,,,,,,,,,,,,,,,,,,,,,,,,,,,,,,,,,,,,,,,,,,,,,,,,,,,2,001,male,38,550,550,2022_Jul_04_0916,Experiment,2021.1.4,360.1397342163594,
images\S10_M_H_02.png,images\S10_M_H_02_scrambled.png,10,happy,20,male,5,,596,on,2,0.5,0.75,0.5,0.94,3,595,5,1,1,2,2,32,128,165,,,,,,0,28,28,28,,,,,,,,,,,,,,,,,,,,,,,,,,,,,,,,,,,,,,,,,,,,,,,,,,,,,,,,,425.02820950000023,425.53069080000023,425.53069080000023,426.2832383,426.2832383,426.78595300000006,426.78595300000006,427.73006510000005,427.73006510000005,None,num_6,427.73006510000005,None,happy,0,Happy,428.6824554600003,None,None,428.6824554600003,None,0.9379660999998123,,,,,,,,,,,,,,,,,,,,,,,,,,,,,,,,,,,,,,,,,,,,,,,,,,,,,2,001,male,38,550,550,2022_Jul_04_0916,Experiment,2021.1.4,360.1397342163594,
images\S9_F_H_03.png,images\S9_F_H_03_scrambled.png,9,happy,30,female,6,,531,off,1,0.5,0.75,0.5,0.868,3,530,1,1,1,0,0,0,0,6,,,,,,0,29,29,29,,,,,,,,,,,,,,,,,,,,,,,,,,,,,,,,,,,,,,,,,,,,,,,,,,,,,,,,,428.73246180000024,429.2323047,429.2323047,429.9876541000003,429.9876541000003,430.4904434,430.4904434,431.36227830000007,431.36227830000007,None,num_6,431.36227830000007,None,happy,0,Happy,432.0870580200005,None,None,432.0870580200005,None,0.6984243000001698,,,,,,,,,,,,,,,,,,,,,,,,,,,,,,,,,,,,,,,,,,,,,,,,,,,,,2,001,male,38,550,550,2022_Jul_04_0916,Experiment,2021.1.4,360.1397342163594,
images\S9_F_S_03.png,images\S9_F_S_03_scrambled.png,9,sad,-30,female,1,,414,off,1,0.5,0.75,0.5,0.81,3,413,2,2,1,0,0,0,0,1,,,,,,0,30,30,30,,,,,,,,,,,,,,,,,,,,,,,,,,,,,,,,,,,,,,,,,,,,,,,,,,,,,,,,,432.1565548000003,432.65624400000024,432.65624400000024,433.4088034000001,433.4088034000001,433.9115294000003,433.9115294000003,434.72785580000027,434.72785580000027,None,num_4,434.72785580000027,None,sad,0,Sad,435.2416375200002,None,None,435.2416375200002,None,0.48441330000014204,,,,,,,,,,,,,,,,,,,,,,,,,,,,,,,,,,,,,,,,,,,,,,,,,,,,,2,001,male,38,550,550,2022_Jul_04_0916,Experiment,2021.1.4,360.1397342163594,
images\blank.jpg,images\blank.jpg,none,none,none,none,0,,638,on,2,0.5,0.75,0.5,0.824,0,637,1,1,1,3,3,48,192,240,,,,,,0,31,31,31,,,,,,,,,,,,,,,,,,,,,,,,,,,,,,,,,,,,,,,,,,,,,,,,,,,,,,,,,435.34171140000035,435.84696570000006,435.84696570000006,436.60231980000026,436.60231980000026,437.1076740000003,437.1076740000003,437.9379752,437.9379752,437.9379752,None,437.9379752,None,miss,0,,440.9398896800001,None,None,440.9398896800001,None,,,,,,,,,,,,,,,,,,,,,,,,,,,,,,,,,,,,,,,,,,,,,,,,,,,,,,2,001,male,38,550,550,2022_Jul_04_0916,Experiment,2021.1.4,360.1397342163594,
images\S5_F_S_01.png,images\S5_F_S_01_scrambled.png,5,sad,-10,female,3,,28,off,1,0.5,0.75,0.5,0.861,3,27,1,1,1,0,0,0,0,3,,,,,,0,32,32,32,,,,,,,,,,,,,,,,,,,,,,,,,,,,,,,,,,,,,,,,,,,,,,,,,,,,,,,,,441.10099860000037,441.60639960000026,441.60639960000026,442.3616770000003,442.3616770000003,442.86707460000025,442.86707460000025,443.7307847000002,443.7307847000002,None,num_6,443.7307847000002,441.10099860000037,happy,0,Sad,444.3859419800003,None,None,444.3859419800003,None,0.6493780999999217,,,,,,,,,,,,,,,,,,,,,,,,,,,,,,,,,,,,,,,,,,,,,,,,,,,,,2,001,male,38,550,550,2022_Jul_04_0916,Experiment,2021.1.4,360.1397342163594,
images\S2_M_H_01.png,images\S2_M_H_01_scrambled.png,2,happy,10,male,4,,247,off,1,0.5,0.75,0.5,0.79,3,246,2,1,1,0,0,0,0,4,,,,,,0,33,33,33,,,,,,,,,,,,,,,,,,,,,,,,,,,,,,,,,,,,,,,,,,,,,,,,,,,,,,,,,444.44439950000015,444.94693910000024,444.94693910000024,445.69944320000013,445.69944320000013,446.2021321000002,446.2021321000002,446.9962849000003,446.9962849000003,None,num_6,446.9962849000003,None,happy,0,Happy,447.66272876,None,None,447.66272876,None,0.6558042999999998,,,,,,,,,,,,,,,,,,,,,,,,,,,,,,,,,,,,,,,,,,,,,,,,,,,,,2,001,male,38,550,550,2022_Jul_04_0916,Experiment,2021.1.4,360.1397342163594,
images\S10_M_S_03.png,images\S10_M_S_03_scrambled.png,10,sad,-30,male,1,,540,off,1,0.5,0.75,0.5,0.867,3,539,3,1,1,0,0,0,0,1,,,,,,0,34,34,34,,,,,,,,,,,,,,,,,,,,,,,,,,,,,,,,,,,,,,,,,,,,,,,,,,,,,,,,,447.7184132000002,448.2210677000003,448.2210677000003,448.97344420000036,448.97344420000036,449.47606829999995,449.47606829999995,450.3480701000003,450.3480701000003,None,num_4,450.3480701000003,None,sad,0,Sad,450.93947826000027,None,None,450.93947826000027,None,0.5766128000000208,,,,,,,,,,,,,,,,,,,,,,,,,,,,,,,,,,,,,,,,,,,,,,,,,,,,,2,001,male,38,550,550,2022_Jul_04_0916,Experiment,2021.1.4,360.1397342163594,
images\S8_M_S_02.png,images\S8_M_S_02_scrambled.png,8,sad,-20,male,2,,227,on,2,0.5,0.75,0.5,0.847,3,226,1,1,1,2,2,32,128,162,,,,,,0,35,35,35,,,,,,,,,,,,,,,,,,,,,,,,,,,,,,,,,,,,,,,,,,,,,,,,,,,,,,,,,450.99237680000033,451.49767580000025,451.49767580000025,452.25298550000025,452.25298550000025,452.7557651000002,452.7557651000002,453.6056617000004,453.6056617000004,None,num_4,453.6056617000004,None,sad,0,Sad,454.4829249400003,None,None,454.4829249400003,None,0.85480570000027,,,,,,,,,,,,,,,,,,,,,,,,,,,,,,,,,,,,,,,,,,,,,,,,,,,,,2,001,male,38,550,550,2022_Jul_04_0916,Experiment,2021.1.4,360.1397342163594,
images\S4_M_H_01.png,images\S4_M_H_01_scrambled.png,4,happy,10,male,4,,499,off,1,0.5,0.75,0.5,0.8,3,498,1,1,1,0,0,0,0,4,,,,,,0,36,36,36,,,,,,,,,,,,,,,,,,,,,,,,,,,,,,,,,,,,,,,,,,,,,,,,,,,,,,,,,454.5939192000001,455.0965422000004,455.0965422000004,455.84917250000035,455.84917250000035,456.35170259999995,456.35170259999995,457.15708700000005,457.15708700000005,None,num_4,457.15708700000005,None,sad,0,Happy,457.84845962000026,None,None,457.84845962000026,None,0.6791249000002608,,,,,,,,,,,,,,,,,,,,,,,,,,,,,,,,,,,,,,,,,,,,,,,,,,,,,2,001,male,38,550,550,2022_Jul_04_0916,Experiment,2021.1.4,360.1397342163594,
images\S9_F_H_01.png,images\S9_F_H_01_scrambled.png,9,happy,10,female,4,,229,on,2,0.5,0.75,0.5,0.914,3,228,1,1,2,2,2,32,128,164,,,,,,0,37,37,37,,,,,,,,,,,,,,,,,,,,,,,,,,,,,,,,,,,,,,,,,,,,,,,,,,,,,,,,,457.91789540000036,458.4233064,458.4233064,459.1758520000003,459.1758520000003,459.67570509999996,459.67570509999996,460.59210440000015,460.59210440000015,None,num_6,460.59210440000015,None,happy,0,Happy,461.1919858200005,None,None,461.1919858200005,None,0.5723883999999089,,,,,,,,,,,,,,,,,,,,,,,,,,,,,,,,,,,,,,,,,,,,,,,,,,,,,2,001,male,38,550,550,2022_Jul_04_0916,Experiment,2021.1.4,360.1397342163594,
images\S6_M_S_02.png,images\S6_M_S_02_scrambled.png,6,sad,-20,male,2,,95,on,2,0.5,0.75,0.5,0.765,3,94,2,1,1,2,2,32,128,162,,,,,,0,38,38,38,,,,,,,,,,,,,,,,,,,,,,,,,,,,,,,,,,,,,,,,,,,,,,,,,,,,,,,,,461.2585280000003,461.76116500000035,461.76116500000035,462.51369030000023,462.51369030000023,463.0164228000003,463.0164228000003,463.7883171000003,463.7883171000003,None,num_4,463.7883171000003,None,sad,0,Sad,464.73247260000016,None,None,464.73247260000016,None,0.911880999999994,,,,,,,,,,,,,,,,,,,,,,,,,,,,,,,,,,,,,,,,,,,,,,,,,,,,,2,001,male,38,550,550,2022_Jul_04_0916,Experiment,2021.1.4,360.1397342163594,
images\S5_F_S_03.png,images\S5_F_S_03_scrambled.png,5,sad,-30,female,1,,210,on,2,0.5,0.75,0.5,0.784,3,209,3,1,1,2,2,32,128,161,,,,,,0,39,39,39,,,,,,,,,,,,,,,,,,,,,,,,,,,,,,,,,,,,,,,,,,,,,,,,,,,,,,,,,464.8464594000002,465.35179910000033,465.35179910000033,466.1014832000001,466.1014832000001,466.6069593000002,466.6069593000002,467.3927359000004,467.3927359000004,None,num_6,467.3927359000004,None,happy,0,Sad,468.57301792000015,None,None,468.57301792000015,None,1.1715414999998757,,,,,,,,,,,,,,,,,,,,,,,,,,,,,,,,,,,,,,,,,,,,,,,,,,,,,2,001,male,38,550,550,2022_Jul_04_0916,Experiment,2021.1.4,360.1397342163594,
images\S2_M_S_02.png,images\S2_M_S_02_scrambled.png,2,sad,-20,male,2,,131,off,1,0.5,0.75,0.5,0.932,3,130,1,1,1,0,0,0,0,2,,,,,,0,40,40,40,,,,,,,,,,,,,,,,,,,,,,,,,,,,,,,,,,,,,,,,,,,,,,,,,,,,,,,,,468.63958040000034,469.1394277000004,469.1394277000004,469.89204480000035,469.89204480000035,470.3974225000002,470.3974225000002,471.3331951,471.3331951,None,num_4,471.3331951,None,sad,0,Sad,472.1134950600004,None,None,472.1134950600004,None,0.76673159999973,,,,,,,,,,,,,,,,,,,,,,,,,,,,,,,,,,,,,,,,,,,,,,,,,,,,,2,001,male,38,550,550,2022_Jul_04_0916,Experiment,2021.1.4,360.1397342163594,
images\S10_M_S_01.png,images\S10_M_S_01_scrambled.png,10,sad,-10,male,3,,178,off,1,0.5,0.75,0.5,0.853,3,177,2,1,1,0,0,0,0,3,,,,,,0,41,41,41,,,,,,,,,,,,,,,,,,,,,,,,,,,,,,,,,,,,,,,,,,,,,,,,,,,,,,,,,472.17194530000006,472.6772919,472.6772919,473.42983649999996,473.42983649999996,473.92968280000014,473.92968280000014,474.7877074000003,474.7877074000003,None,num_6,474.7877074000003,None,happy,0,Sad,475.3431503200001,None,None,475.3431503200001,None,0.5445531000000301,,,,,,,,,,,,,,,,,,,,,,,,,,,,,,,,,,,,,,,,,,,,,,,,,,,,,2,001,male,38,550,550,2022_Jul_04_0916,Experiment,2021.1.4,360.1397342163594,
images\S4_M_H_03.png,images\S4_M_H_03_scrambled.png,4,happy,30,male,6,,501,off,1,0.5,0.75,0.5,0.948,3,500,3,1,1,0,0,0,0,6,,,,,,0,42,42,42,,,,,,,,,,,,,,,,,,,,,,,,,,,,,,,,,,,,,,,,,,,,,,,,,,,,,,,,,475.42100070000015,475.9263148,475.9263148,476.681638,476.681638,477.1870266000001,477.1870266000001,478.13672280000037,478.13672280000037,None,num_6,478.13672280000037,None,happy,0,Happy,478.82543034000025,None,None,478.82543034000025,None,0.6677377000000888,,,,,,,,,,,,,,,,,,,,,,,,,,,,,,,,,,,,,,,,,,,,,,,,,,,,,2,001,male,38,550,550,2022_Jul_04_0916,Experiment,2021.1.4,360.1397342163594,
images\S5_F_H_01.png,images\S5_F_H_01_scrambled.png,5,happy,10,female,4,,445,on,2,0.5,0.75,0.5,0.815,3,444,1,1,1,2,2,32,128,164,,,,,,0,43,43,43,,,,,,,,,,,,,,,,,,,,,,,,,,,,,,,,,,,,,,,,,,,,,,,,,,,,,,,,,478.9032064000003,479.40587800000003,479.40587800000003,480.1554661,480.1554661,480.6553065000003,480.6553065000003,481.4773537000001,481.4773537000001,None,num_4,481.4773537000001,None,sad,0,Happy,481.9911270200002,None,None,481.9911270200002,None,0.5032827999998517,,,,,,,,,,,,,,,,,,,,,,,,,,,,,,,,,,,,,,,,,,,,,,,,,,,,,2,001,male,38,550,550,2022_Jul_04_0916,Experiment,2021.1.4,360.1397342163594,
images\S5_F_H_02.png,images\S5_F_H_02_scrambled.png,5,happy,20,female,5,,86,on,2,0.5,0.75,0.5,0.882,3,85,2,2,1,2,2,32,128,165,,,,,,0,44,44,44,,,,,,,,,,,,,,,,,,,,,,,,,,,,,,,,,,,,,,,,,,,,,,,,,,,,,,,,,482.0661685,482.5686105,482.5686105,483.3212816,483.3212816,483.8266381000003,483.8266381000003,484.7123894000001,484.7123894000001,None,num_6,484.7123894000001,None,happy,0,Happy,485.16225716000014,None,None,485.16225716000014,None,0.4358096000000842,,,,,,,,,,,,,,,,,,,,,,,,,,,,,,,,,,,,,,,,,,,,,,,,,,,,,2,001,male,38,550,550,2022_Jul_04_0916,Experiment,2021.1.4,360.1397342163594,
images\S9_F_S_01.png,images\S9_F_S_01_scrambled.png,9,sad,-10,female,3,,292,off,1,0.5,0.75,0.5,0.821,3,291,1,1,1,0,0,0,0,3,,,,,,0,45,45,45,,,,,,,,,,,,,,,,,,,,,,,,,,,,,,,,,,,,,,,,,,,,,,,,,,,,,,,,,485.2233500000002,485.7262759,485.7262759,486.4814013,486.4814013,486.9811466000001,486.9811466000001,487.80620339999996,487.80620339999996,None,num_4,487.80620339999996,None,sad,0,Sad,488.2113776400005,None,None,488.2113776400005,None,0.38204099999984464,,,,,,,,,,,,,,,,,,,,,,,,,,,,,,,,,,,,,,,,,,,,,,,,,,,,,2,001,male,38,550,550,2022_Jul_04_0916,Experiment,2021.1.4,360.1397342163594,
images\S7_F_H_03.png,images\S7_F_H_03_scrambled.png,7,happy,30,female,6,,99,on,2,0.5,0.75,0.5,0.813,3,98,1,1,1,2,2,32,128,166,,,,,,0,46,46,46,,,,,,,,,,,,,,,,,,,,,,,,,,,,,,,,,,,,,,,,,,,,,,,,,,,,,,,,,488.2918440000003,488.7944644000004,488.7944644000004,489.5470100000002,489.5470100000002,490.04685210000025,490.04685210000025,490.86328360000016,490.86328360000016,None,num_6,490.86328360000016,None,happy,0,Happy,491.4659717400003,None,None,491.4659717400003,None,0.5813545999999405,,,,,,,,,,,,,,,,,,,,,,,,,,,,,,,,,,,,,,,,,,,,,,,,,,,,,2,001,male,38,550,550,2022_Jul_04_0916,Experiment,2021.1.4,360.1397342163594,
images\S10_M_S_01.png,images\S10_M_S_01_scrambled.png,10,sad,-10,male,3,,598,on,2,0.5,0.75,0.5,0.933,3,597,2,1,1,2,2,32,128,163,,,,,,0,47,47,47,,,,,,,,,,,,,,,,,,,,,,,,,,,,,,,,,,,,,,,,,,,,,,,,,,,,,,,,,491.5213997000001,492.0268665000003,492.0268665000003,492.78212110000004,492.78212110000004,493.28196100000014,493.28196100000014,494.21781480000027,494.21781480000027,None,num_6,494.21781480000027,None,happy,0,Sad,494.94537158000026,None,None,494.94537158000026,None,0.7221751999995831,,,,,,,,,,,,,,,,,,,,,,,,,,,,,,,,,,,,,,,,,,,,,,,,,,,,,2,001,male,38,550,550,2022_Jul_04_0916,Experiment,2021.1.4,360.1397342163594,
images\S10_M_S_02.png,images\S10_M_S_02_scrambled.png,10,sad,-20,male,2,,299,off,1,0.5,0.75,0.5,0.942,3,298,1,2,1,0,0,0,0,2,,,,,,0,48,48,48,,,,,,,,,,,,,,,,,,,,,,,,,,,,,,,,,,,,,,,,,,,,,,,,,,,,,,,,,494.9953357000004,495.49519320000036,495.49519320000036,496.2450103000001,496.2450103000001,496.7448553000004,496.7448553000004,497.69178660000034,497.69178660000034,None,num_6,497.69178660000034,None,happy,0,Sad,498.3165096800001,None,None,498.3165096800001,None,0.6165652999998201,,,,,,,,,,,,,,,,,,,,,,,,,,,,,,,,,,,,,,,,,,,,,,,,,,,,,2,001,male,38,550,550,2022_Jul_04_0916,Experiment,2021.1.4,360.1397342163594,
images\S6_M_H_03.png,images\S6_M_H_03_scrambled.png,6,happy,30,male,6,,273,off,1,0.5,0.75,0.5,0.913,3,272,2,1,1,0,0,0,0,6,,,,,,0,49,49,49,,,,,,,,,,,,,,,,,,,,,,,,,,,,,,,,,,,,,,,,,,,,,,,,,,,,,,,,,498.36929499999997,498.8691374,498.8691374,499.6189085000001,499.6189085000001,500.1215969,500.1215969,501.03791820000015,501.03791820000015,None,num_6,501.03791820000015,None,happy,0,Happy,501.6406766800003,None,None,501.6406766800003,None,0.5825237999997626,,,,,,,,,,,,,,,,,,,,,,,,,,,,,,,,,,,,,,,,,,,,,,,,,,,,,2,001,male,38,550,550,2022_Jul_04_0916,Experiment,2021.1.4,360.1397342163594,
images\S2_M_H_02.png,images\S2_M_H_02_scrambled.png,2,happy,20,male,5,,548,on,2,0.5,0.75,0.5,0.785,3,547,1,1,1,2,2,32,128,165,,,,,,0,50,50,50,,,,,,,,,,,,,,,,,,,,,,,,,,,,,,,,,,,,,,,,,,,,,,,,,,,,,,,,,501.6989387000003,502.20152410000037,502.20152410000037,502.95398300000033,502.95398300000033,503.4567003000002,503.4567003000002,504.2454464000002,504.2454464000002,None,num_6,504.2454464000002,None,happy,0,Happy,505.7615105200004,None,None,505.7615105200004,None,1.4867656000001261,,,,,,,,,,,,,,,,,,,,,,,,,,,,,,,,,,,,,,,,,,,,,,,,,,,,,2,001,male,38,550,550,2022_Jul_04_0916,Experiment,2021.1.4,360.1397342163594,
images\S4_M_S_03.png,images\S4_M_S_03_scrambled.png,4,sad,-30,male,1,,144,off,1,0.5,0.75,0.5,0.931,3,143,1,1,1,0,0,0,0,1,,,,,,0,51,51,51,,,,,,,,,,,,,,,,,,,,,,,,,,,,,,,,,,,,,,,,,,,,,,,,,,,,,,,,,505.82809110000017,506.33071010000003,506.33071010000003,507.0861517000003,507.0861517000003,507.58866720000015,507.58866720000015,508.5217375000002,508.5217375000002,None,num_4,508.5217375000002,None,sad,0,Sad,509.0270747000004,None,None,509.0270747000004,None,0.4741215999997621,,,,,,,,,,,,,,,,,,,,,,,,,,,,,,,,,,,,,,,,,,,,,,,,,,,,,2,001,male,38,550,550,2022_Jul_04_0916,Experiment,2021.1.4,360.1397342163594,
images\S10_M_S_01.png,images\S10_M_S_01_scrambled.png,10,sad,-10,male,3,,118,on,2,0.5,0.75,0.5,0.832,3,117,1,1,1,2,2,32,128,163,,,,,,0,52,52,52,,,,,,,,,,,,,,,,,,,,,,,,,,,,,,,,,,,,,,,,,,,,,,,,,,,,,,,,,509.08264280000003,509.5880519000002,509.5880519000002,510.3405877,510.3405877,510.84042590000035,510.84042590000035,511.6763933000002,511.6763933000002,None,num_6,511.6763933000002,None,happy,0,Sad,512.19020702,None,None,512.19020702,None,0.49622320000025866,,,,,,,,,,,,,,,,,,,,,,,,,,,,,,,,,,,,,,,,,,,,,,,,,,,,,2,001,male,38,550,550,2022_Jul_04_0916,Experiment,2021.1.4,360.1397342163594,
images\S2_M_H_02.png,images\S2_M_H_02_scrambled.png,2,happy,20,male,5,,188,on,2,0.5,0.75,0.5,0.925,3,187,2,1,1,2,2,32,128,165,,,,,,0,53,53,53,,,,,,,,,,,,,,,,,,,,,,,,,,,,,,,,,,,,,,,,,,,,,,,,,,,,,,,,,512.2512579000004,512.7537237000001,512.7537237000001,513.5063734,513.5063734,514.0117624,514.0117624,514.9420149000002,514.9420149000002,None,num_6,514.9420149000002,None,happy,0,Happy,515.4003036800002,None,None,515.4003036800002,None,0.4383732000001146,,,,,,,,,,,,,,,,,,,,,,,,,,,,,,,,,,,,,,,,,,,,,,,,,,,,,2,001,male,38,550,550,2022_Jul_04_0916,Experiment,2021.1.4,360.1397342163594,
images\S1_F_H_03.png,images\S1_F_H_03_scrambled.png,1,happy,30,female,6,,3,off,1,0.5,0.75,0.5,0.76,3,2,1,1,1,0,0,0,0,6,,,,,,0,54,54,54,,,,,,,,,,,,,,,,,,,,,,,,,,,,,,,,,,,,,,,,,,,,,,,,,,,,,,,,,515.4834462000003,515.9860700000004,515.9860700000004,516.7414775000002,516.7414775000002,517.241239,517.241239,518.0076889000002,518.0076889000002,None,num_6,518.0076889000002,None,happy,0,Happy,518.4297880200003,None,None,518.4297880200003,None,0.39648689999967246,,,,,,,,,,,,,,,,,,,,,,,,,,,,,,,,,,,,,,,,,,,,,,,,,,,,,2,001,male,38,550,550,2022_Jul_04_0916,Experiment,2021.1.4,360.1397342163594,
images\S8_M_S_01.png,images\S8_M_S_01_scrambled.png,8,sad,-10,male,3,,526,off,1,0.5,0.75,0.5,0.844,3,525,2,1,1,0,0,0,0,3,,,,,,0,55,55,55,,,,,,,,,,,,,,,,,,,,,,,,,,,,,,,,,,,,,,,,,,,,,,,,,,,,,,,,,518.5048055000002,519.0073524000004,519.0073524000004,519.7599527000002,519.7599527000002,520.2625416000001,520.2625416000001,521.1122774,521.1122774,None,num_4,521.1122774,None,sad,0,Sad,521.6898703000002,None,None,521.6898703000002,None,0.5636134000001221,,,,,,,,,,,,,,,,,,,,,,,,,,,,,,,,,,,,,,,,,,,,,,,,,,,,,2,001,male,38,550,550,2022_Jul_04_0916,Experiment,2021.1.4,360.1397342163594,
images\S10_M_H_03.png,images\S10_M_H_03_scrambled.png,10,happy,30,male,6,,237,on,2,0.5,0.75,0.5,0.804,3,236,1,1,1,2,2,32,128,166,,,,,,0,56,56,56,,,,,,,,,,,,,,,,,,,,,,,,,,,,,,,,,,,,,,,,,,,,,,,,,,,,,,,,,521.7509524000002,522.256449,522.256449,523.0117614000001,523.0117614000001,523.5171383000002,523.5171383000002,524.3253722000004,524.3253722000004,None,num_6,524.3253722000004,None,happy,0,Happy,525.1556997800001,None,None,525.1556997800001,None,0.8071148999997604,,,,,,,,,,,,,,,,,,,,,,,,,,,,,,,,,,,,,,,,,,,,,,,,,,,,,2,001,male,38,550,550,2022_Jul_04_0916,Experiment,2021.1.4,360.1397342163594,
images\S1_F_S_03.png,images\S1_F_S_03_scrambled.png,1,sad,-30,female,1,,6,off,1,0.5,0.75,0.5,0.871,3,5,1,1,1,0,0,0,0,1,,,,,,0,57,57,57,,,,,,,,,,,,,,,,,,,,,,,,,,,,,,,,,,,,,,,,,,,,,,,,,,,,,,,,,525.2111826,525.7136135000001,525.7136135000001,526.4634735,526.4634735,526.9632331000003,526.9632331000003,527.8410135000004,527.8410135000004,None,num_4,527.8410135000004,None,sad,0,Sad,528.2574023400001,None,None,528.2574023400001,None,0.3955156000001807,,,,,,,,,,,,,,,,,,,,,,,,,,,,,,,,,,,,,,,,,,,,,,,,,,,,,2,001,male,38,550,550,2022_Jul_04_0916,Experiment,2021.1.4,360.1397342163594,
images\S5_F_S_03.png,images\S5_F_S_03_scrambled.png,5,sad,-30,female,1,,270,off,1,0.5,0.75,0.5,0.796,3,269,2,1,2,0,0,0,0,1,,,,,,0,58,58,58,,,,,,,,,,,,,,,,,,,,,,,,,,,,,,,,,,,,,,,,,,,,,,,,,,,,,,,,,528.3128127,528.8154278000002,528.8154278000002,529.5679955,529.5679955,530.0678193000003,530.0678193000003,530.8676019,530.8676019,None,num_6,530.8676019,None,happy,0,Sad,531.57568202,None,None,531.57568202,None,0.6962565000003451,,,,,,,,,,,,,,,,,,,,,,,,,,,,,,,,,,,,,,,,,,,,,,,,,,,,,2,001,male,38,550,550,2022_Jul_04_0916,Experiment,2021.1.4,360.1397342163594,
images\S8_M_S_02.png,images\S8_M_S_02_scrambled.png,8,sad,-20,male,2,,107,on,2,0.5,0.75,0.5,0.934,3,106,1,1,1,2,2,32,128,162,,,,,,0,59,59,59,,,,,,,,,,,,,,,,,,,,,,,,,,,,,,,,,,,,,,,,,,,,,,,,,,,,,,,,,531.6480035,532.1505134000004,532.1505134000004,532.9060272000002,532.9060272000002,533.4113390000002,533.4113390000002,534.3498301,534.3498301,None,num_4,534.3498301,None,sad,0,Sad,534.9079865000003,None,None,534.9079865000003,None,0.5259823999999753,,,,,,,,,,,,,,,,,,,,,,,,,,,,,,,,,,,,,,,,,,,,,,,,,,,,,2,001,male,38,550,550,2022_Jul_04_0916,Experiment,2021.1.4,360.1397342163594,
images\S10_M_S_01.png,images\S10_M_S_01_scrambled.png,10,sad,-10,male,3,,58,off,1,0.5,0.75,0.5,0.854,3,57,1,1,1,0,0,0,0,3,,,,,,0,60,60,60,,,,,,,,,,,,,,,,,,,,,,,,,,,,,,,,,,,,,,,,,,,,,,,,,,,,,,,,,534.9664353000003,535.4689426,535.4689426,536.2215300000003,536.2215300000003,536.7241953000002,536.7241953000002,537.5822128,537.5822128,None,num_6,537.5822128,None,happy,0,Sad,538.0153750600003,None,None,538.0153750600003,None,0.4216989999999896,,,,,,,,,,,,,,,,,,,,,,,,,,,,,,,,,,,,,,,,,,,,,,,,,,,,,2,001,male,38,550,550,2022_Jul_04_0916,Experiment,2021.1.4,360.1397342163594,
images\S9_F_H_01.png,images\S9_F_H_01_scrambled.png,9,happy,10,female,4,,49,off,1,0.5,0.75,0.5,0.879,3,48,2,1,1,0,0,0,0,4,,,,,,0,61,61,61,,,,,,,,,,,,,,,,,,,,,,,,,,,,,,,,,,,,,,,,,,,,,,,,,,,,,,,,,538.0847934000003,538.5874134000001,538.5874134000001,539.3371784000001,539.3371784000001,539.8398759000002,539.8398759000002,540.7200869000003,540.7200869000003,None,num_6,540.7200869000003,None,happy,0,Happy,541.4309700600003,None,None,541.4309700600003,None,0.6998609000002034,,,,,,,,,,,,,,,,,,,,,,,,,,,,,,,,,,,,,,,,,,,,,,,,,,,,,2,001,male,38,550,550,2022_Jul_04_0916,Experiment,2021.1.4,360.1397342163594,
images\S4_M_S_02.png,images\S4_M_S_02_scrambled.png,4,sad,-20,male,2,,23,off,1,0.5,0.75,0.5,0.753,3,22,3,1,1,0,0,0,0,2,,,,,,0,62,62,62,,,,,,,,,,,,,,,,,,,,,,,,,,,,,,,,,,,,,,,,,,,,,,,,,,,,,,,,,541.4809700000001,541.9808347000003,541.9808347000003,542.7305951000003,542.7305951000003,543.2360911000001,543.2360911000001,543.9913048000003,543.9913048000003,None,num_4,543.9913048000003,None,sad,0,Sad,544.4301615200003,None,None,544.4301615200003,None,0.41307300000016767,,,,,,,,,,,,,,,,,,,,,,,,,,,,,,,,,,,,,,,,,,,,,,,,,,,,,2,001,male,38,550,550,2022_Jul_04_0916,Experiment,2021.1.4,360.1397342163594,
images\S5_F_S_03.png,images\S5_F_S_03_scrambled.png,5,sad,-30,female,1,,510,off,1,0.5,0.75,0.5,0.766,3,509,4,1,1,0,0,0,0,1,,,,,,0,63,63,63,,,,,,,,,,,,,,,,,,,,,,,,,,,,,,,,,,,,,,,,,,,,,,,,,,,,,,,,,544.4855997,544.9882269,544.9882269,545.7435462000003,545.7435462000003,546.2462757000003,546.2462757000003,547.0155650000002,547.0155650000002,None,num_4,547.0155650000002,None,sad,0,Sad,547.4764454400005,None,None,547.4764454400005,None,0.4367308000000776,,,,,,,,,,,,,,,,,,,,,,,,,,,,,,,,,,,,,,,,,,,,,,,,,,,,,2,001,male,38,550,550,2022_Jul_04_0916,Experiment,2021.1.4,360.1397342163594,
images\S7_F_H_01.png,images\S7_F_H_01_scrambled.png,7,happy,10,female,4,,517,off,1,0.5,0.75,0.5,0.846,3,516,5,1,1,0,0,0,0,4,,,,,,0,64,64,64,,,,,,,,,,,,,,,,,,,,,,,,,,,,,,,,,,,,,,,,,,,,,,,,,,,,,,,,,547.5290995,548.0317504,548.0317504,548.7870443000002,548.7870443000002,549.2868870000002,549.2868870000002,550.1367191000004,550.1367191000004,None,num_4,550.1367191000004,None,sad,0,Happy,550.9419178200002,None,None,550.9419178200002,None,0.7953604999997879,,,,,,,,,,,,,,,,,,,,,,,,,,,,,,,,,,,,,,,,,,,,,,,,,,,,,2,001,male,38,550,550,2022_Jul_04_0916,Experiment,2021.1.4,360.1397342163594,
images\S7_F_S_03.png,images\S7_F_S_03_scrambled.png,7,sad,-30,female,1,,42,off,1,0.5,0.75,0.5,0.789,3,41,6,2,1,0,0,0,0,1,,,,,,0,65,65,65,,,,,,,,,,,,,,,,,,,,,,,,,,,,,,,,,,,,,,,,,,,,,,,,,,,,,,,,,551.0085803000002,551.5084203000001,551.5084203000001,552.2637515000001,552.2637515000001,552.7664462000002,552.7664462000002,553.5609028000003,553.5609028000003,None,num_4,553.5609028000003,None,sad,0,Sad,554.0465525600004,None,None,554.0465525600004,None,0.4751649999998335,,,,,,,,,,,,,,,,,,,,,,,,,,,,,,,,,,,,,,,,,,,,,,,,,,,,,2,001,male,38,550,550,2022_Jul_04_0916,Experiment,2021.1.4,360.1397342163594,
images\S3_F_S_02.png,images\S3_F_S_02_scrambled.png,3,sad,-20,female,2,,317,on,2,0.5,0.75,0.5,0.927,3,316,1,1,1,2,2,32,128,162,,,,,,0,66,66,66,,,,,,,,,,,,,,,,,,,,,,,,,,,,,,,,,,,,,,,,,,,,,,,,,,,,,,,,,554.1577407,554.6574460000002,554.6574460000002,555.4072171000003,555.4072171000003,555.9099180000003,555.9099180000003,556.8373307000002,556.8373307000002,None,num_4,556.8373307000002,None,sad,0,Sad,557.4122638800002,None,None,557.4122638800002,None,0.5509359999996377,,,,,,,,,,,,,,,,,,,,,,,,,,,,,,,,,,,,,,,,,,,,,,,,,,,,,2,001,male,38,550,550,2022_Jul_04_0916,Experiment,2021.1.4,360.1397342163594,
images\S3_F_S_02.png,images\S3_F_S_02_scrambled.png,3,sad,-20,female,2,,497,off,1,0.5,0.75,0.5,0.803,3,496,1,2,2,0,0,0,0,2,,,,,,0,67,67,67,,,,,,,,,,,,,,,,,,,,,,,,,,,,,,,,,,,,,,,,,,,,,,,,,,,,,,,,,557.4843296000004,557.9869798,557.9869798,558.7367530000001,558.7367530000001,559.2421706,559.2421706,560.0446762000001,560.0446762000001,None,num_4,560.0446762000001,None,sad,0,Sad,560.6222537200002,None,None,560.6222537200002,None,0.5513569999998253,,,,,,,,,,,,,,,,,,,,,,,,,,,,,,,,,,,,,,,,,,,,,,,,,,,,,2,001,male,38,550,550,2022_Jul_04_0916,Experiment,2021.1.4,360.1397342163594,
images\S3_F_H_01.png,images\S3_F_H_01_scrambled.png,3,happy,10,female,4,,253,off,1,0.5,0.75,0.5,0.776,3,252,2,3,1,0,0,0,0,4,,,,,,0,68,68,68,,,,,,,,,,,,,,,,,,,,,,,,,,,,,,,,,,,,,,,,,,,,,,,,,,,,,,,,,560.6916976000002,561.1971317000002,561.1971317000002,561.946868,561.946868,562.452288,562.452288,563.2326044000001,563.2326044000001,None,num_4,563.2326044000001,None,sad,0,Happy,563.7712868800002,None,None,563.7712868800002,None,0.5313083999999435,,,,,,,,,,,,,,,,,,,,,,,,,,,,,,,,,,,,,,,,,,,,,,,,,,,,,2,001,male,38,550,550,2022_Jul_04_0916,Experiment,2021.1.4,360.1397342163594,
images\blank.jpg,images\blank.jpg,none,none,none,none,0,,640,on,2,0.5,0.75,0.5,0.841,0,639,1,1,1,3,3,48,192,240,,,,,,0,69,69,69,,,,,,,,,,,,,,,,,,,,,,,,,,,,,,,,,,,,,,,,,,,,,,,,,,,,,,,,,563.8797488,564.3822945000002,564.3822945000002,565.1375686000001,565.1375686000001,565.6429586000004,565.6429586000004,566.4844214,566.4844214,566.4844214,None,566.4844214,None,miss,0,,569.4890493800001,None,None,569.4890493800001,None,,,,,,,,,,,,,,,,,,,,,,,,,,,,,,,,,,,,,,,,,,,,,,,,,,,,,,2,001,male,38,550,550,2022_Jul_04_0916,Experiment,2021.1.4,360.1397342163594,
images\S5_F_S_03.png,images\S5_F_S_03_scrambled.png,5,sad,-30,female,1,,330,on,2,0.5,0.75,0.5,0.788,3,329,2,1,1,2,2,32,128,161,,,,,,0,70,70,70,,,,,,,,,,,,,,,,,,,,,,,,,,,,,,,,,,,,,,,,,,,,,,,,,,,,,,,,,569.6114480000001,570.1137917000001,570.1137917000001,570.8635640000002,570.8635640000002,571.3634017000004,571.3634017000004,572.1576245000001,572.1576245000001,None,num_4,572.1576245000001,569.6114480000001,sad,0,Sad,573.0989664600003,None,None,573.0989664600003,None,0.9263151999998627,,,,,,,,,,,,,,,,,,,,,,,,,,,,,,,,,,,,,,,,,,,,,,,,,,,,,2,001,male,38,550,550,2022_Jul_04_0916,Experiment,2021.1.4,360.1397342163594,
images\S4_M_S_01.png,images\S4_M_S_01_scrambled.png,4,sad,-10,male,3,,442,on,2,0.5,0.75,0.5,0.898,3,441,3,1,1,2,2,32,128,163,,,,,,0,71,71,71,,,,,,,,,,,,,,,,,,,,,,,,,,,,,,,,,,,,,,,,,,,,,,,,,,,,,,,,,573.1822936000003,573.6876971000002,573.6876971000002,574.4402302000003,574.4402302000003,574.9428635000004,574.9428635000004,575.8426037000004,575.8426037000004,None,num_4,575.8426037000004,None,sad,0,Sad,576.2618933600003,None,None,576.2618933600003,None,0.4093545000000631,,,,,,,,,,,,,,,,,,,,,,,,,,,,,,,,,,,,,,,,,,,,,,,,,,,,,2,001,male,38,550,550,2022_Jul_04_0916,Experiment,2021.1.4,360.1397342163594,
images\S10_M_S_03.png,images\S10_M_S_03_scrambled.png,10,sad,-30,male,1,,360,on,2,0.5,0.75,0.5,0.907,3,359,4,1,1,2,2,32,128,161,,,,,,0,72,72,72,,,,,,,,,,,,,,,,,,,,,,,,,,,,,,,,,,,,,,,,,,,,,,,,,,,,,,,,,576.3146462,576.8172973000001,576.8172973000001,577.5698866000002,577.5698866000002,578.0724391000003,578.0724391000003,578.9861724000002,578.9861724000002,None,num_4,578.9861724000002,None,sad,0,Sad,579.5525319000003,None,None,579.5525319000003,None,0.5376978000003874,,,,,,,,,,,,,,,,,,,,,,,,,,,,,,,,,,,,,,,,,,,,,,,,,,,,,2,001,male,38,550,550,2022_Jul_04_0916,Experiment,2021.1.4,360.1397342163594,
images\S6_M_H_03.png,images\S6_M_H_03_scrambled.png,6,happy,30,male,6,,153,off,1,0.5,0.75,0.5,0.894,3,152,1,1,1,0,0,0,0,6,,,,,,0,73,73,73,,,,,,,,,,,,,,,,,,,,,,,,,,,,,,,,,,,,,,,,,,,,,,,,,,,,,,,,,579.6110437000002,580.1163346000003,580.1163346000003,580.8688855,580.8688855,581.3714250000003,581.3714250000003,582.2713294,582.2713294,None,num_6,582.2713294,None,happy,0,Happy,582.7932014600002,None,None,582.7932014600002,None,0.5087748999999349,,,,,,,,,,,,,,,,,,,,,,,,,,,,,,,,,,,,,,,,,,,,,,,,,,,,,2,001,male,38,550,550,2022_Jul_04_0916,Experiment,2021.1.4,360.1397342163594,
images\S7_F_H_03.png,images\S7_F_H_03_scrambled.png,7,happy,30,female,6,,39,off,1,0.5,0.75,0.5,0.798,3,38,2,1,2,0,0,0,0,6,,,,,,0,74,74,74,,,,,,,,,,,,,,,,,,,,,,,,,,,,,,,,,,,,,,,,,,,,,,,,,,,,,,,,,582.8404214000002,583.3430479000003,583.3430479000003,584.0956031000001,584.0956031000001,584.6011058000004,584.6011058000004,585.4035211,585.4035211,None,num_6,585.4035211,None,happy,0,Happy,586.1588065600005,None,None,586.1588065600005,None,0.7442227999999886,,,,,,,,,,,,,,,,,,,,,,,,,,,,,,,,,,,,,,,,,,,,,,,,,,,,,2,001,male,38,550,550,2022_Jul_04_0916,Experiment,2021.1.4,360.1397342163594,
images\S8_M_S_01.png,images\S8_M_S_01_scrambled.png,8,sad,-10,male,3,,226,on,2,0.5,0.75,0.5,0.941,3,225,1,1,1,2,2,32,128,163,,,,,,0,75,75,75,,,,,,,,,,,,,,,,,,,,,,,,,,,,,,,,,,,,,,,,,,,,,,,,,,,,,,,,,586.2088204000001,586.7115309000001,586.7115309000001,587.4640728000004,587.4640728000004,587.9666786000003,587.9666786000003,588.9135424000001,588.9135424000001,None,num_4,588.9135424000001,None,sad,0,Sad,589.2857077600003,None,None,589.2857077600003,None,0.3623125999997683,,,,,,,,,,,,,,,,,,,,,,,,,,,,,,,,,,,,,,,,,,,,,,,,,,,,,2,001,male,38,550,550,2022_Jul_04_0916,Experiment,2021.1.4,360.1397342163594,
images\S4_M_S_02.png,images\S4_M_S_02_scrambled.png,4,sad,-20,male,2,,503,off,1,0.5,0.75,0.5,0.914,3,502,1,1,1,0,0,0,0,2,,,,,,0,76,76,76,,,,,,,,,,,,,,,,,,,,,,,,,,,,,,,,,,,,,,,,,,,,,,,,,,,,,,,,,589.3522901000001,589.8550901000003,589.8550901000003,590.6046810000003,590.6046810000003,591.1102745000003,591.1102745000003,592.0265556000004,592.0265556000004,None,num_4,592.0265556000004,None,sad,0,Sad,592.5263206000004,None,None,592.5263206000004,None,0.4812440000000606,,,,,,,,,,,,,,,,,,,,,,,,,,,,,,,,,,,,,,,,,,,,,,,,,,,,,2,001,male,38,550,550,2022_Jul_04_0916,Experiment,2021.1.4,360.1397342163594,
images\S1_F_H_03.png,images\S1_F_H_03_scrambled.png,1,happy,30,female,6,,123,off,1,0.5,0.75,0.5,0.78,3,122,2,1,1,0,0,0,0,6,,,,,,0,77,77,77,,,,,,,,,,,,,,,,,,,,,,,,,,,,,,,,,,,,,,,,,,,,,,,,,,,,,,,,,592.5762978000002,593.0817611000002,593.0817611000002,593.8314650000002,593.8314650000002,594.3369264000003,594.3369264000003,595.1227464000003,595.1227464000003,None,num_6,595.1227464000003,None,happy,0,Happy,595.7169941000002,None,None,595.7169941000002,None,0.5769327999996676,,,,,,,,,,,,,,,,,,,,,,,,,,,,,,,,,,,,,,,,,,,,,,,,,,,,,2,001,male,38,550,550,2022_Jul_04_0916,Experiment,2021.1.4,360.1397342163594,
images\S8_M_S_03.png,images\S8_M_S_03_scrambled.png,8,sad,-30,male,1,,588,on,2,0.5,0.75,0.5,0.851,3,587,1,1,1,2,2,32,128,161,,,,,,0,78,78,78,,,,,,,,,,,,,,,,,,,,,,,,,,,,,,,,,,,,,,,,,,,,,,,,,,,,,,,,,595.8254755000003,596.3279272,596.3279272,597.0804723000001,597.0804723000001,597.5859892000003,597.5859892000003,598.4412357000001,598.4412357000001,None,num_4,598.4412357000001,None,sad,0,Sad,598.9466218200001,None,None,598.9466218200001,None,0.48259139999981926,,,,,,,,,,,,,,,,,,,,,,,,,,,,,,,,,,,,,,,,,,,,,,,,,,,,,2,001,male,38,550,550,2022_Jul_04_0916,Experiment,2021.1.4,360.1397342163594,
images\S6_M_S_01.png,images\S6_M_S_01_scrambled.png,6,sad,-10,male,3,,94,on,2,0.5,0.75,0.5,0.947,3,93,2,1,1,2,2,32,128,163,,,,,,0,79,79,79,,,,,,,,,,,,,,,,,,,,,,,,,,,,,,,,,,,,,,,,,,,,,,,,,,,,,,,,,599.0131927000002,599.5159411,599.5159411,600.2683752000003,600.2683752000003,600.7711043000004,600.7711043000004,601.7207051,601.7207051,None,num_4,601.7207051,None,sad,0,Sad,602.3400444200003,None,None,602.3400444200003,None,0.5955621000002793,,,,,,,,,,,,,,,,,,,,,,,,,,,,,,,,,,,,,,,,,,,,,,,,,,,,,2,001,male,38,550,550,2022_Jul_04_0916,Experiment,2021.1.4,360.1397342163594,
images\S4_M_H_01.png,images\S4_M_H_01_scrambled.png,4,happy,10,male,4,,139,off,1,0.5,0.75,0.5,0.91,3,138,1,1,1,0,0,0,0,4,,,,,,0,80,80,80,,,,,,,,,,,,,,,,,,,,,,,,,,,,,,,,,,,,,,,,,,,,,,,,,,,,,,,,,602.4065944000004,602.9092096000004,602.9092096000004,603.6617741,603.6617741,604.1643753000003,604.1643753000003,605.0808873000001,605.0808873000001,None,num_4,605.0808873000001,None,sad,0,Happy,605.56128662,None,None,605.56128662,None,0.46730859999979657,,,,,,,,,,,,,,,,,,,,,,,,,,,,,,,,,,,,,,,,,,,,,,,,,,,,,2,001,male,38,550,550,2022_Jul_04_0916,Experiment,2021.1.4,360.1397342163594,
images\S7_F_H_02.png,images\S7_F_H_02_scrambled.png,7,happy,20,female,5,,98,on,2,0.5,0.75,0.5,0.868,3,97,1,1,1,2,2,32,128,165,,,,,,0,81,81,81,,,,,,,,,,,,,,,,,,,,,,,,,,,,,,,,,,,,,,,,,,,,,,,,,,,,,,,,,605.6779631000004,606.1804237000001,606.1804237000001,606.9302155,606.9302155,607.4357644000002,607.4357644000002,608.3075682000003,608.3075682000003,None,num_6,608.3075682000003,None,happy,0,Happy,608.9907770200003,None,None,608.9907770200003,None,0.6566001999999571,,,,,,,,,,,,,,,,,,,,,,,,,,,,,,,,,,,,,,,,,,,,,,,,,,,,,2,001,male,38,550,550,2022_Jul_04_0916,Experiment,2021.1.4,360.1397342163594,
images\S10_M_H_01.png,images\S10_M_H_01_scrambled.png,10,happy,10,male,4,,475,on,2,0.5,0.75,0.5,0.796,3,474,2,1,1,2,2,32,128,164,,,,,,0,82,82,82,,,,,,,,,,,,,,,,,,,,,,,,,,,,,,,,,,,,,,,,,,,,,,,,,,,,,,,,,609.0628723,609.5682752000002,609.5682752000002,610.3209271000001,610.3209271000001,610.8262970000001,610.8262970000001,611.6260797,611.6260797,None,num_6,611.6260797,None,happy,0,Happy,612.3480017000002,None,None,612.3480017000002,None,0.6900162000001728,,,,,,,,,,,,,,,,,,,,,,,,,,,,,,,,,,,,,,,,,,,,,,,,,,,,,2,001,male,38,550,550,2022_Jul_04_0916,Experiment,2021.1.4,360.1397342163594,
images\S8_M_S_02.png,images\S8_M_S_02_scrambled.png,8,sad,-20,male,2,,467,on,2,0.5,0.75,0.5,0.86,3,466,3,1,1,2,2,32,128,162,,,,,,0,83,83,83,,,,,,,,,,,,,,,,,,,,,,,,,,,,,,,,,,,,,,,,,,,,,,,,,,,,,,,,,612.4035069000001,612.9033658000003,612.9033658000003,613.6560363000003,613.6560363000003,614.1613108000001,614.1613108000001,615.0251168,615.0251168,None,num_4,615.0251168,None,sad,0,Sad,615.5108809200002,None,None,615.5108809200002,None,0.4585661999999502,,,,,,,,,,,,,,,,,,,,,,,,,,,,,,,,,,,,,,,,,,,,,,,,,,,,,2,001,male,38,550,550,2022_Jul_04_0916,Experiment,2021.1.4,360.1397342163594,
images\S6_M_H_01.png,images\S6_M_H_01_scrambled.png,6,happy,10,male,4,,271,off,1,0.5,0.75,0.5,0.947,3,270,1,1,1,0,0,0,0,4,,,,,,0,84,84,84,,,,,,,,,,,,,,,,,,,,,,,,,,,,,,,,,,,,,,,,,,,,,,,,,,,,,,,,,615.5830744,616.0829152000001,616.0829152000001,616.8356397000002,616.8356397000002,617.3409921000002,617.3409921000002,618.2933651000003,618.2933651000003,None,num_4,618.2933651000003,None,sad,0,Happy,618.8043060800003,None,None,618.8043060800003,None,0.5025562000000718,,,,,,,,,,,,,,,,,,,,,,,,,,,,,,,,,,,,,,,,,,,,,,,,,,,,,2,001,male,38,550,550,2022_Jul_04_0916,Experiment,2021.1.4,360.1397342163594,
images\S8_M_H_01.png,images\S8_M_H_01_scrambled.png,8,happy,10,male,4,,103,on,2,0.5,0.75,0.5,0.78,3,102,1,1,2,2,2,32,128,164,,,,,,0,85,85,85,,,,,,,,,,,,,,,,,,,,,,,,,,,,,,,,,,,,,,,,,,,,,,,,,,,,,,,,,618.8626258000004,619.3653604000001,619.3653604000001,620.1178008000002,620.1178008000002,620.6231978000001,620.6231978000001,621.4063674000004,621.4063674000004,None,num_4,621.4063674000004,None,sad,0,Happy,621.8562511200004,None,None,621.8562511200004,None,0.4378449000000728,,,,,,,,,,,,,,,,,,,,,,,,,,,,,,,,,,,,,,,,,,,,,,,,,,,,,2,001,male,38,550,550,2022_Jul_04_0916,Experiment,2021.1.4,360.1397342163594,
images\S8_M_S_02.png,images\S8_M_S_02_scrambled.png,8,sad,-20,male,2,,167,off,1,0.5,0.75,0.5,0.855,3,166,1,2,1,0,0,0,0,2,,,,,,0,86,86,86,,,,,,,,,,,,,,,,,,,,,,,,,,,,,,,,,,,,,,,,,,,,,,,,,,,,,,,,,621.9227859000002,622.4255830000002,622.4255830000002,623.1779662000004,623.1779662000004,623.6807596000003,623.6807596000003,624.5415126000003,624.5415126000003,None,num_4,624.5415126000003,None,sad,0,Sad,625.0884681600002,None,None,625.0884681600002,None,0.5343417000003683,,,,,,,,,,,,,,,,,,,,,,,,,,,,,,,,,,,,,,,,,,,,,,,,,,,,,2,001,male,38,550,550,2022_Jul_04_0916,Experiment,2021.1.4,360.1397342163594,
images\S4_M_S_02.png,images\S4_M_S_02_scrambled.png,4,sad,-20,male,2,,323,on,2,0.5,0.75,0.5,0.911,3,322,1,1,2,2,2,32,128,162,,,,,,0,87,87,87,,,,,,,,,,,,,,,,,,,,,,,,,,,,,,,,,,,,,,,,,,,,,,,,,,,,,,,,,625.1385182000004,625.6411764,625.6411764,626.3964688000001,626.3964688000001,626.9018700000001,626.9018700000001,627.8154243000004,627.8154243000004,None,num_4,627.8154243000004,None,sad,0,Sad,628.3654248800001,None,None,628.3654248800001,None,0.5244830999999976,,,,,,,,,,,,,,,,,,,,,,,,,,,,,,,,,,,,,,,,,,,,,,,,,,,,,2,001,male,38,550,550,2022_Jul_04_0916,Experiment,2021.1.4,360.1397342163594,
images\S6_M_S_02.png,images\S6_M_S_02_scrambled.png,6,sad,-20,male,2,,395,off,1,0.5,0.75,0.5,0.874,3,394,1,1,3,0,0,0,0,2,,,,,,0,88,88,88,,,,,,,,,,,,,,,,,,,,,,,,,,,,,,,,,,,,,,,,,,,,,,,,,,,,,,,,,628.4179947000002,628.9208215000003,628.9208215000003,629.6760750000003,629.6760750000003,630.1814173000002,630.1814173000002,631.0616665000002,631.0616665000002,None,num_4,631.0616665000002,None,sad,0,Sad,631.9753275600002,None,None,631.9753275600002,None,0.9021785999998428,,,,,,,,,,,,,,,,,,,,,,,,,,,,,,,,,,,,,,,,,,,,,,,,,,,,,2,001,male,38,550,550,2022_Jul_04_0916,Experiment,2021.1.4,360.1397342163594,
images\S8_M_S_01.png,images\S8_M_S_01_scrambled.png,8,sad,-10,male,3,,106,on,2,0.5,0.75,0.5,0.857,3,105,1,1,1,2,2,32,128,163,,,,,,0,89,89,89,,,,,,,,,,,,,,,,,,,,,,,,,,,,,,,,,,,,,,,,,,,,,,,,,,,,,,,,,632.0418813000001,632.5472947000003,632.5472947000003,633.2998491000003,633.2998491000003,633.8024554000003,633.8024554000003,634.6661604000001,634.6661604000001,None,num_4,634.6661604000001,None,sad,0,Sad,635.2355521800002,None,None,635.2355521800002,None,0.5463467999998102,,,,,,,,,,,,,,,,,,,,,,,,,,,,,,,,,,,,,,,,,,,,,,,,,,,,,2,001,male,38,550,550,2022_Jul_04_0916,Experiment,2021.1.4,360.1397342163594,
images\S5_F_S_02.png,images\S5_F_S_02_scrambled.png,5,sad,-20,female,2,,29,off,1,0.5,0.75,0.5,0.904,3,28,1,1,1,0,0,0,0,2,,,,,,0,90,90,90,,,,,,,,,,,,,,,,,,,,,,,,,,,,,,,,,,,,,,,,,,,,,,,,,,,,,,,,,635.3491924,635.8518679000003,635.8518679000003,636.6071455000001,636.6071455000001,637.1099532000003,637.1099532000003,638.0207882,638.0207882,None,num_4,638.0207882,None,sad,0,Sad,638.4317477600003,None,None,638.4317477600003,None,0.3994474999999511,,,,,,,,,,,,,,,,,,,,,,,,,,,,,,,,,,,,,,,,,,,,,,,,,,,,,2,001,male,38,550,550,2022_Jul_04_0916,Experiment,2021.1.4,360.1397342163594,
images\S6_M_H_01.png,images\S6_M_H_01_scrambled.png,6,happy,10,male,4,,391,off,1,0.5,0.75,0.5,0.88,3,390,2,1,1,0,0,0,0,4,,,,,,0,91,91,91,,,,,,,,,,,,,,,,,,,,,,,,,,,,,,,,,,,,,,,,,,,,,,,,,,,,,,,,,638.4982173000003,639.0009656000002,639.0009656000002,639.7562514000001,639.7562514000001,640.2560187000004,640.2560187000004,641.1419181000001,641.1419181000001,None,num_4,641.1419181000001,None,sad,0,Happy,641.4334143800004,None,None,641.4334143800004,None,0.2858169999999518,,,,,,,,,,,,,,,,,,,,,,,,,,,,,,,,,,,,,,,,,,,,,,,,,,,,,2,001,male,38,550,550,2022_Jul_04_0916,Experiment,2021.1.4,360.1397342163594,
images\S7_F_S_01.png,images\S7_F_S_01_scrambled.png,7,sad,-10,female,3,,40,off,1,0.5,0.75,0.5,0.802,3,39,3,1,1,0,0,0,0,3,,,,,,0,92,92,92,,,,,,,,,,,,,,,,,,,,,,,,,,,,,,,,,,,,,,,,,,,,,,,,,,,,,,,,,641.4834645000001,641.9861247000003,641.9861247000003,642.7414236,642.7414236,643.2467817000002,643.2467817000002,644.0520827,644.0520827,None,num_4,644.0520827,None,sad,0,Sad,644.5104222800003,None,None,644.5104222800003,None,0.4398221999999805,,,,,,,,,,,,,,,,,,,,,,,,,,,,,,,,,,,,,,,,,,,,,,,,,,,,,2,001,male,38,550,550,2022_Jul_04_0916,Experiment,2021.1.4,360.1397342163594,
images\S4_M_H_03.png,images\S4_M_H_03_scrambled.png,4,happy,30,male,6,,201,on,2,0.5,0.75,0.5,0.903,3,200,1,1,1,2,2,32,128,166,,,,,,0,93,93,93,,,,,,,,,,,,,,,,,,,,,,,,,,,,,,,,,,,,,,,,,,,,,,,,,,,,,,,,,644.5630099,645.0684202000002,645.0684202000002,645.8181983,645.8181983,646.3209775,646.3209775,647.2261554000002,647.2261554000002,None,num_6,647.2261554000002,None,happy,0,Happy,647.8286254600008,None,None,647.8286254600008,None,0.5774055000001681,,,,,,,,,,,,,,,,,,,,,,,,,,,,,,,,,,,,,,,,,,,,,,,,,,,,,2,001,male,38,550,550,2022_Jul_04_0916,Experiment,2021.1.4,360.1397342163594,
images\S6_M_H_03.png,images\S6_M_H_03_scrambled.png,6,happy,30,male,6,,213,on,2,0.5,0.75,0.5,0.896,3,212,2,1,2,2,2,32,128,166,,,,,,0,94,94,94,,,,,,,,,,,,,,,,,,,,,,,,,,,,,,,,,,,,,,,,,,,,,,,,,,,,,,,,,647.8842097000002,648.3868610000004,648.3868610000004,649.1394445999999,649.1394445999999,649.6449701000006,649.6449701000006,650.5472967000001,650.5472967000001,None,num_6,650.5472967000001,None,happy,0,Happy,650.9693516600001,None,None,650.9693516600001,None,0.4088675000002695,,,,,,,,,,,,,,,,,,,,,,,,,,,,,,,,,,,,,,,,,,,,,,,,,,,,,2,001,male,38,550,550,2022_Jul_04_0916,Experiment,2021.1.4,360.1397342163594,
images\S8_M_S_02.png,images\S8_M_S_02_scrambled.png,8,sad,-20,male,2,,527,off,1,0.5,0.75,0.5,0.836,3,526,1,1,1,0,0,0,0,2,,,,,,0,95,95,95,,,,,,,,,,,,,,,,,,,,,,,,,,,,,,,,,,,,,,,,,,,,,,,,,,,,,,,,,651.0193577000005,651.5219957000004,651.5219957000004,652.2745915999999,652.2745915999999,652.7771343999998,652.7771343999998,653.6159391000006,653.6159391000006,None,num_4,653.6159391000006,None,sad,0,Sad,654.0211817200003,None,None,654.0211817200003,None,0.37986650000038935,,,,,,,,,,,,,,,,,,,,,,,,,,,,,,,,,,,,,,,,,,,,,,,,,,,,,2,001,male,38,550,550,2022_Jul_04_0916,Experiment,2021.1.4,360.1397342163594,
images\S5_F_S_01.png,images\S5_F_S_01_scrambled.png,5,sad,-10,female,3,,328,on,2,0.5,0.75,0.5,0.774,3,327,1,1,1,2,2,32,128,163,,,,,,0,96,96,96,,,,,,,,,,,,,,,,,,,,,,,,,,,,,,,,,,,,,,,,,,,,,,,,,,,,,,,,,654.0878501000002,654.5932537000003,654.5932537000003,655.3458977000005,655.3458977000005,655.8512661,655.8512661,656.6287308000005,656.6287308000005,None,num_4,656.6287308000005,None,sad,0,Sad,657.6700378,None,None,657.6700378,None,1.0067922999996881,,,,,,,,,,,,,,,,,,,,,,,,,,,,,,,,,,,,,,,,,,,,,,,,,,,,,2,001,male,38,550,550,2022_Jul_04_0916,Experiment,2021.1.4,360.1397342163594,
images\blank.jpg,images\blank.jpg,none,none,none,none,0,,647,on,2,0.5,0.75,0.5,0.796,0,646,2,1,1,3,3,48,192,240,,,,,,0,97,97,97,,,,,,,,,,,,,,,,,,,,,,,,,,,,,,,,,,,,,,,,,,,,,,,,,,,,,,,,,657.7731549000005,658.2756216000002,658.2756216000002,659.0252268999998,659.0252268999998,659.5250552000002,659.5250552000002,660.3250063999999,660.3250063999999,660.3250063999999,None,660.3250063999999,None,miss,0,,663.3268254799998,None,None,663.3268254799998,None,,,,,,,,,,,,,,,,,,,,,,,,,,,,,,,,,,,,,,,,,,,,,,,,,,,,,,2,001,male,38,550,550,2022_Jul_04_0916,Experiment,2021.1.4,360.1397342163594,
images\blank.jpg,images\blank.jpg,none,none,none,none,0,,607,on,2,0.5,0.75,0.5,0.925,0,606,3,2,2,3,3,48,192,240,,,,,,0,98,98,98,,,,,,,,,,,,,,,,,,,,,,,,,,,,,,,,,,,,,,,,,,,,,,,,,,,,,,,,,663.3655480000002,663.8681673000006,663.8681673000006,664.6208368000002,664.6208368000002,665.1261936000005,665.1261936000005,666.0564503999999,666.0564503999999,666.0564503999999,None,666.0564503999999,663.3655480000002,miss,0,,669.0582899800004,None,None,669.0582899800004,None,,,,,,,,,,,,,,,,,,,,,,,,,,,,,,,,,,,,,,,,,,,,,,,,,,,,,,2,001,male,38,550,550,2022_Jul_04_0916,Experiment,2021.1.4,360.1397342163594,
images\S6_M_H_03.png,images\S6_M_H_03_scrambled.png,6,happy,30,male,6,,93,on,2,0.5,0.75,0.5,0.943,3,92,4,1,1,2,2,32,128,166,,,,,,0,99,99,99,,,,,,,,,,,,,,,,,,,,,,,,,,,,,,,,,,,,,,,,,,,,,,,,,,,,,,,,,669.1779164000004,669.6802684999998,669.6802684999998,670.4300360000002,670.4300360000002,670.9355922,670.9355922,671.8823758000003,671.8823758000003,None,num_6,671.8823758000003,669.1779164000004,happy,0,Happy,672.2822643600003,None,None,672.2822643600003,None,0.38531890000012936,,,,,,,,,,,,,,,,,,,,,,,,,,,,,,,,,,,,,,,,,,,,,,,,,,,,,2,001,male,38,550,550,2022_Jul_04_0916,Experiment,2021.1.4,360.1397342163594,
images\S7_F_H_02.png,images\S7_F_H_02_scrambled.png,7,happy,20,female,5,,398,off,1,0.5,0.75,0.5,0.826,3,397,1,1,1,0,0,0,0,5,,,,,,0,100,100,100,,,,,,,,,,,,,,,,,,,,,,,,,,,,,,,,,,,,,,,,,,,,,,,,,,,,,,,,,672.3322141000003,672.8376263000005,672.8376263000005,673.5903203000003,673.5903203000003,674.0956338000001,674.0956338000001,674.9259710000001,674.9259710000001,None,num_6,674.9259710000001,None,happy,0,Happy,675.4645637600007,None,None,675.4645637600007,None,0.5256692000002658,,,,,,,,,,,,,,,,,,,,,,,,,,,,,,,,,,,,,,,,,,,,,,,,,,,,,2,001,male,38,550,550,2022_Jul_04_0916,Experiment,2021.1.4,360.1397342163594,
images\S2_M_S_03.png,images\S2_M_S_03_scrambled.png,2,sad,-30,male,1,,372,off,1,0.5,0.75,0.5,0.786,3,371,2,1,1,0,0,0,0,1,,,,,,0,101,101,101,,,,,,,,,,,,,,,,,,,,,,,,,,,,,,,,,,,,,,,,,,,,,,,,,,,,,,,,,675.5478888000002,676.0532900000003,676.0532900000003,676.8059386,676.8059386,677.305672,677.305672,678.0971224,678.0971224,None,num_4,678.0971224,None,sad,0,Sad,678.6330362600003,None,None,678.6330362600003,None,0.5223039000002245,,,,,,,,,,,,,,,,,,,,,,,,,,,,,,,,,,,,,,,,,,,,,,,,,,,,,2,001,male,38,550,550,2022_Jul_04_0916,Experiment,2021.1.4,360.1397342163594,
images\blank.jpg,images\blank.jpg,none,none,none,none,0,,634,on,2,0.5,0.75,0.5,0.782,0,633,1,1,1,3,3,48,192,240,,,,,,0,102,102,102,,,,,,,,,,,,,,,,,,,,,,,,,,,,,,,,,,,,,,,,,,,,,,,,,,,,,,,,,678.7223494000004,679.2273002000006,679.2273002000006,679.9826764000004,679.9826764000004,680.4854243000004,680.4854243000004,681.2711948000001,681.2711948000001,681.2711948000001,None,681.2711948000001,None,miss,0,,684.2730630799999,None,None,684.2730630799999,None,,,,,,,,,,,,,,,,,,,,,,,,,,,,,,,,,,,,,,,,,,,,,,,,,,,,,,2,001,male,38,550,550,2022_Jul_04_0916,Experiment,2021.1.4,360.1397342163594,
images\S2_M_S_03.png,images\S2_M_S_03_scrambled.png,2,sad,-30,male,1,,132,off,1,0.5,0.75,0.5,0.817,3,131,1,1,1,0,0,0,0,1,,,,,,0,103,103,103,,,,,,,,,,,,,,,,,,,,,,,,,,,,,,,,,,,,,,,,,,,,,,,,,,,,,,,,,684.3953145999999,684.8977888000004,684.8977888000004,685.6503343999998,685.6503343999998,686.1559540000003,686.1559540000003,686.9750945000001,686.9750945000001,None,num_4,686.9750945000001,684.3953145999999,sad,0,Sad,687.4664161600004,None,None,687.4664161600004,None,0.47683020000022225,,,,,,,,,,,,,,,,,,,,,,,,,,,,,,,,,,,,,,,,,,,,,,,,,,,,,2,001,male,38,550,550,2022_Jul_04_0916,Experiment,2021.1.4,360.1397342163594,
images\S2_M_H_03.png,images\S2_M_H_03_scrambled.png,2,happy,30,male,6,,69,on,2,0.5,0.75,0.5,0.846,3,68,1,2,1,2,2,32,128,166,,,,,,0,104,104,104,,,,,,,,,,,,,,,,,,,,,,,,,,,,,,,,,,,,,,,,,,,,,,,,,,,,,,,,,687.5497431999997,688.0495999999998,688.0495999999998,688.7993472000003,688.7993472000003,689.3020228999999,689.3020228999999,690.1517790000003,690.1517790000003,None,num_6,690.1517790000003,None,happy,0,Happy,690.8849773800005,None,None,690.8849773800005,None,0.7080197000004773,,,,,,,,,,,,,,,,,,,,,,,,,,,,,,,,,,,,,,,,,,,,,,,,,,,,,2,001,male,38,550,550,2022_Jul_04_0916,Experiment,2021.1.4,360.1397342163594,
images\S10_M_S_03.png,images\S10_M_S_03_scrambled.png,10,sad,-30,male,1,,420,off,1,0.5,0.75,0.5,0.813,3,419,1,1,1,0,0,0,0,1,,,,,,0,105,105,105,,,,,,,,,,,,,,,,,,,,,,,,,,,,,,,,,,,,,,,,,,,,,,,,,,,,,,,,,690.9375771999999,691.4403744000006,691.4403744000006,692.1927589000002,692.1927589000002,692.6955397000006,692.6955397000006,693.5147308,693.5147308,None,num_4,693.5147308,None,sad,0,Sad,694.5892292600003,None,None,694.5892292600003,None,1.0649798000004012,,,,,,,,,,,,,,,,,,,,,,,,,,,,,,,,,,,,,,,,,,,,,,,,,,,,,2,001,male,38,550,550,2022_Jul_04_0916,Experiment,2021.1.4,360.1397342163594,
images\S7_F_H_03.png,images\S7_F_H_03_scrambled.png,7,happy,30,female,6,,459,on,2,0.5,0.75,0.5,0.77,3,458,1,1,1,2,2,32,128,166,,,,,,0,106,106,106,,,,,,,,,,,,,,,,,,,,,,,,,,,,,,,,,,,,,,,,,,,,,,,,,,,,,,,,,694.6392133000004,695.1418668000001,695.1418668000001,695.8945482000004,695.8945482000004,696.3969976000003,696.3969976000003,697.1689879999999,697.1689879999999,None,num_6,697.1689879999999,None,happy,0,Happy,697.90207402,None,None,697.90207402,None,0.7068302999996376,,,,,,,,,,,,,,,,,,,,,,,,,,,,,,,,,,,,,,,,,,,,,,,,,,,,,2,001,male,38,550,550,2022_Jul_04_0916,Experiment,2021.1.4,360.1397342163594,
images\S7_F_S_01.png,images\S7_F_S_01_scrambled.png,7,sad,-10,female,3,,220,on,2,0.5,0.75,0.5,0.927,3,219,2,2,1,2,2,32,128,163,,,,,,0,107,107,107,,,,,,,,,,,,,,,,,,,,,,,,,,,,,,,,,,,,,,,,,,,,,,,,,,,,,,,,,697.9742627,698.4769861999998,698.4769861999998,699.2295272000006,699.2295272000006,699.7320773000006,699.7320773000006,700.6680233000002,700.6680233000002,None,num_4,700.6680233000002,None,sad,0,Sad,701.1344091200004,None,None,701.1344091200004,None,0.4400527999996484,,,,,,,,,,,,,,,,,,,,,,,,,,,,,,,,,,,,,,,,,,,,,,,,,,,,,2,001,male,38,550,550,2022_Jul_04_0916,Experiment,2021.1.4,360.1397342163594,
images\S3_F_H_03.png,images\S3_F_H_03_scrambled.png,3,happy,30,female,6,,195,on,2,0.5,0.75,0.5,0.802,3,194,3,1,1,2,2,32,128,166,,,,,,0,108,108,108,,,,,,,,,,,,,,,,,,,,,,,,,,,,,,,,,,,,,,,,,,,,,,,,,,,,,,,,,701.2456769000005,701.7481214000004,701.7481214000004,702.4978949000001,702.4978949000001,703.0007141000001,703.0007141000001,703.8059340000004,703.8059340000004,None,num_6,703.8059340000004,None,happy,0,Happy,704.4861494200001,None,None,704.4861494200001,None,0.6538702999996531,,,,,,,,,,,,,,,,,,,,,,,,,,,,,,,,,,,,,,,,,,,,,,,,,,,,,2,001,male,38,550,550,2022_Jul_04_0916,Experiment,2021.1.4,360.1397342163594,
images\S9_F_H_03.png,images\S9_F_H_03_scrambled.png,9,happy,30,female,6,,411,off,1,0.5,0.75,0.5,0.891,3,410,1,1,2,0,0,0,0,6,,,,,,0,109,109,109,,,,,,,,,,,,,,,,,,,,,,,,,,,,,,,,,,,,,,,,,,,,,,,,,,,,,,,,,704.5528158000002,705.0556181000006,705.0556181000006,705.8108795000003,705.8108795000003,706.3162348999999,706.3162348999999,707.2105280999999,707.2105280999999,None,num_6,707.2105280999999,None,happy,0,Happy,707.7463429200003,None,None,707.7463429200003,None,0.5132242999998198,,,,,,,,,,,,,,,,,,,,,,,,,,,,,,,,,,,,,,,,,,,,,,,,,,,,,2,001,male,38,550,550,2022_Jul_04_0916,Experiment,2021.1.4,360.1397342163594,
images\S9_F_S_03.png,images\S9_F_S_03_scrambled.png,9,sad,-30,female,1,,354,on,2,0.5,0.75,0.5,0.853,3,353,1,2,1,2,2,32,128,161,,,,,,0,110,110,110,,,,,,,,,,,,,,,,,,,,,,,,,,,,,,,,,,,,,,,,,,,,,,,,,,,,,,,,,707.8158698000002,708.3155364999998,708.3155364999998,709.0709664999999,709.0709664999999,709.5763523999999,709.5763523999999,710.4316236999998,710.4316236999998,None,num_4,710.4316236999998,None,sad,0,Sad,710.9258467600004,None,None,710.9258467600004,None,0.48379860000022745,,,,,,,,,,,,,,,,,,,,,,,,,,,,,,,,,,,,,,,,,,,,,,,,,,,,,2,001,male,38,550,550,2022_Jul_04_0916,Experiment,2021.1.4,360.1397342163594,
images\S2_M_S_02.png,images\S2_M_S_02_scrambled.png,2,sad,-20,male,2,,311,on,2,0.5,0.75,0.5,0.863,3,310,2,1,1,2,2,32,128,162,,,,,,0,111,111,111,,,,,,,,,,,,,,,,,,,,,,,,,,,,,,,,,,,,,,,,,,,,,,,,,,,,,,,,,710.9758340000003,711.4756680000005,711.4756680000005,712.2254391000001,712.2254391000001,712.7309502000003,712.7309502000003,713.5972670000006,713.5972670000006,None,num_4,713.5972670000006,None,sad,0,Sad,714.5581364200003,None,None,714.5581364200003,None,0.9346802999998545,,,,,,,,,,,,,,,,,,,,,,,,,,,,,,,,,,,,,,,,,,,,,,,,,,,,,2,001,male,38,550,550,2022_Jul_04_0916,Experiment,2021.1.4,360.1397342163594,
images\S8_M_H_02.png,images\S8_M_H_02_scrambled.png,8,happy,20,male,5,,284,off,1,0.5,0.75,0.5,0.887,3,283,1,1,1,0,0,0,0,5,,,,,,0,112,112,112,,,,,,,,,,,,,,,,,,,,,,,,,,,,,,,,,,,,,,,,,,,,,,,,,,,,,,,,,714.6691317999998,715.1717647,715.1717647,715.9215249000003,715.9215249000003,716.4269932000002,716.4269932000002,717.3211850000002,717.3211850000002,None,num_6,717.3211850000002,None,happy,0,Happy,717.8820191599999,None,None,717.8820191599999,None,0.5465567000001101,,,,,,,,,,,,,,,,,,,,,,,,,,,,,,,,,,,,,,,,,,,,,,,,,,,,,2,001,male,38,550,550,2022_Jul_04_0916,Experiment,2021.1.4,360.1397342163594,
images\S5_F_H_03.png,images\S5_F_H_03_scrambled.png,5,happy,30,female,6,,567,on,2,0.5,0.75,0.5,0.753,3,566,1,1,1,2,2,32,128,166,,,,,,0,113,113,113,,,,,,,,,,,,,,,,,,,,,,,,,,,,,,,,,,,,,,,,,,,,,,,,,,,,,,,,,717.9571343000002,718.4568468000002,718.4568468000002,719.2066299000003,719.2066299000003,719.7064667999998,719.7064667999998,720.4648474,720.4648474,None,num_6,720.4648474,None,happy,0,Happy,721.3116729600007,None,None,721.3116729600007,None,0.8351243999995859,,,,,,,,,,,,,,,,,,,,,,,,,,,,,,,,,,,,,,,,,,,,,,,,,,,,,2,001,male,38,550,550,2022_Jul_04_0916,Experiment,2021.1.4,360.1397342163594,
images\S2_M_S_02.png,images\S2_M_S_02_scrambled.png,2,sad,-20,male,2,,551,on,2,0.5,0.75,0.5,0.773,3,550,2,1,1,2,2,32,128,162,,,,,,0,114,114,114,,,,,,,,,,,,,,,,,,,,,,,,,,,,,,,,,,,,,,,,,,,,,,,,,,,,,,,,,721.3615129000004,721.8641404000005,721.8641404000005,722.6138991000003,722.6138991000003,723.1165885000005,723.1165885000005,723.8913554000005,723.8913554000005,None,num_4,723.8913554000005,None,sad,0,Sad,724.5551559799999,None,None,724.5551559799999,None,0.6406450000004043,,,,,,,,,,,,,,,,,,,,,,,,,,,,,,,,,,,,,,,,,,,,,,,,,,,,,2,001,male,38,550,550,2022_Jul_04_0916,Experiment,2021.1.4,360.1397342163594,
images\S2_M_H_02.png,images\S2_M_H_02_scrambled.png,2,happy,20,male,5,,308,on,2,0.5,0.75,0.5,0.847,3,307,3,2,1,2,2,32,128,165,,,,,,0,115,115,115,,,,,,,,,,,,,,,,,,,,,,,,,,,,,,,,,,,,,,,,,,,,,,,,,,,,,,,,,724.6107162000003,725.1160015,725.1160015,725.8684528999997,725.8684528999997,726.3711591000006,726.3711591000006,727.2209282999997,727.2209282999997,None,num_6,727.2209282999997,None,happy,0,Happy,727.7652667800005,None,None,727.7652667800005,None,0.518855799999983,,,,,,,,,,,,,,,,,,,,,,,,,,,,,,,,,,,,,,,,,,,,,,,,,,,,,2,001,male,38,550,550,2022_Jul_04_0916,Experiment,2021.1.4,360.1397342163594,
images\S8_M_S_03.png,images\S8_M_S_03_scrambled.png,8,sad,-30,male,1,,168,off,1,0.5,0.75,0.5,0.89,3,167,1,1,1,0,0,0,0,1,,,,,,0,116,116,116,,,,,,,,,,,,,,,,,,,,,,,,,,,,,,,,,,,,,,,,,,,,,,,,,,,,,,,,,727.8235165000001,728.3260234000004,728.3260234000004,729.0814197000004,729.0814197000004,729.5840463999998,729.5840463999998,730.4781505000005,730.4781505000005,None,num_4,730.4781505000005,None,sad,0,Sad,731.0362746200004,None,None,731.0362746200004,None,0.5335464999998294,,,,,,,,,,,,,,,,,,,,,,,,,,,,,,,,,,,,,,,,,,,,,,,,,,,,,2,001,male,38,550,550,2022_Jul_04_0916,Experiment,2021.1.4,360.1397342163594,
images\S2_M_S_01.png,images\S2_M_S_01_scrambled.png,2,sad,-10,male,3,,310,on,2,0.5,0.75,0.5,0.852,3,309,1,1,1,2,2,32,128,163,,,,,,0,117,117,117,,,,,,,,,,,,,,,,,,,,,,,,,,,,,,,,,,,,,,,,,,,,,,,,,,,,,,,,,731.0918428,731.5972524000003,731.5972524000003,732.3497978,732.3497978,732.8496244000003,732.8496244000003,733.7049139000005,733.7049139000005,None,num_4,733.7049139000005,None,sad,0,Sad,734.3547076599999,None,None,734.3547076599999,None,0.6347679000000426,,,,,,,,,,,,,,,,,,,,,,,,,,,,,,,,,,,,,,,,,,,,,,,,,,,,,2,001,male,38,550,550,2022_Jul_04_0916,Experiment,2021.1.4,360.1397342163594,
images\S2_M_S_01.png,images\S2_M_S_01_scrambled.png,2,sad,-10,male,3,,550,on,2,0.5,0.75,0.5,0.765,3,549,2,2,2,2,2,32,128,163,,,,,,0,118,118,118,,,,,,,,,,,,,,,,,,,,,,,,,,,,,,,,,,,,,,,,,,,,,,,,,,,,,,,,,734.4047117000005,734.9073398000005,734.9073398000005,735.6600644000005,735.6600644000005,736.1654135000003,736.1654135000003,736.9372748000001,736.9372748000001,None,num_4,736.9372748000001,None,sad,0,Sad,737.3454635600002,None,None,737.3454635600002,None,0.3943000999997821,,,,,,,,,,,,,,,,,,,,,,,,,,,,,,,,,,,,,,,,,,,,,,,,,,,,,2,001,male,38,550,550,2022_Jul_04_0916,Experiment,2021.1.4,360.1397342163594,
images\S1_F_S_02.png,images\S1_F_S_02_scrambled.png,1,sad,-20,female,2,,65,on,2,0.5,0.75,0.5,0.922,3,64,3,1,1,2,2,32,128,162,,,,,,0,119,119,119,,,,,,,,,,,,,,,,,,,,,,,,,,,,,,,,,,,,,,,,,,,,,,,,,,,,,,,,,737.3982227000001,737.9008457000004,737.9008457000004,738.6562392000001,738.6562392000001,739.1560172000004,739.1560172000004,740.0808421000006,740.0808421000006,None,num_4,740.0808421000006,None,sad,0,Sad,740.54724946,None,None,740.54724946,None,0.43477880000045843,,,,,,,,,,,,,,,,,,,,,,,,,,,,,,,,,,,,,,,,,,,,,,,,,,,,,2,001,male,38,550,550,2022_Jul_04_0916,Experiment,2021.1.4,360.1397342163594,
images\S4_M_S_01.png,images\S4_M_S_01_scrambled.png,4,sad,-10,male,3,,202,on,2,0.5,0.75,0.5,0.907,3,201,4,1,1,2,2,32,128,163,,,,,,0,120,120,120,,,,,,,,,,,,,,,,,,,,,,,,,,,,,,,,,,,,,,,,,,,,,,,,,,,,,,,,,740.6084612999998,741.1137475999999,741.1137475999999,741.8663425999998,741.8663425999998,742.3689134000001,742.3689134000001,743.2799281000002,743.2799281000002,None,num_4,743.2799281000002,None,sad,0,Sad,743.7184828600003,None,None,743.7184828600003,None,0.42747419999977865,,,,,,,,,,,,,,,,,,,,,,,,,,,,,,,,,,,,,,,,,,,,,,,,,,,,,2,001,male,38,550,550,2022_Jul_04_0916,Experiment,2021.1.4,360.1397342163594,
images\S5_F_H_03.png,images\S5_F_H_03_scrambled.png,5,happy,30,female,6,,447,on,2,0.5,0.75,0.5,0.787,3,446,5,1,1,2,2,32,128,166,,,,,,0,121,121,121,,,,,,,,,,,,,,,,,,,,,,,,,,,,,,,,,,,,,,,,,,,,,,,,,,,,,,,,,743.7685320000005,744.2711903000004,744.2711903000004,745.0264915000002,745.0264915000002,745.5318866000002,745.5318866000002,746.3261001000005,746.3261001000005,None,num_6,746.3261001000005,None,happy,0,Happy,746.80643066,None,None,746.80643066,None,0.46934909999981755,,,,,,,,,,,,,,,,,,,,,,,,,,,,,,,,,,,,,,,,,,,,,,,,,,,,,2,001,male,38,550,550,2022_Jul_04_0916,Experiment,2021.1.4,360.1397342163594,
images\S10_M_H_02.png,images\S10_M_H_02_scrambled.png,10,happy,20,male,5,,236,on,2,0.5,0.75,0.5,0.858,3,235,6,1,1,2,2,32,128,165,,,,,,0,122,122,122,,,,,,,,,,,,,,,,,,,,,,,,,,,,,,,,,,,,,,,,,,,,,,,,,,,,,,,,,746.8564120000005,747.3590319999998,747.3590319999998,748.1088271000003,748.1088271000003,748.6114573999998,748.6114573999998,749.4722880000004,749.4722880000004,None,num_6,749.4722880000004,None,happy,0,Happy,749.9860512199999,None,None,749.9860512199999,None,0.49107220000041707,,,,,,,,,,,,,,,,,,,,,,,,,,,,,,,,,,,,,,,,,,,,,,,,,,,,,2,001,male,38,550,550,2022_Jul_04_0916,Experiment,2021.1.4,360.1397342163594,
images\S3_F_H_02.png,images\S3_F_H_02_scrambled.png,3,happy,20,female,5,,194,on,2,0.5,0.75,0.5,0.879,3,193,7,1,2,2,2,32,128,165,,,,,,0,123,123,123,,,,,,,,,,,,,,,,,,,,,,,,,,,,,,,,,,,,,,,,,,,,,,,,,,,,,,,,,750.0998580999999,750.6054556000004,750.6054556000004,751.3607029999998,751.3607029999998,751.8660676000004,751.8660676000004,752.7518878000005,752.7518878000005,None,num_6,752.7518878000005,None,happy,0,Happy,753.2210940199999,None,None,753.2210940199999,None,0.44351860000006127,,,,,,,,,,,,,,,,,,,,,,,,,,,,,,,,,,,,,,,,,,,,,,,,,,,,,2,001,male,38,550,550,2022_Jul_04_0916,Experiment,2021.1.4,360.1397342163594,
images\S3_F_S_03.png,images\S3_F_S_03_scrambled.png,3,sad,-30,female,1,,258,off,1,0.5,0.75,0.5,0.793,3,257,1,2,1,0,0,0,0,1,,,,,,0,124,124,124,,,,,,,,,,,,,,,,,,,,,,,,,,,,,,,,,,,,,,,,,,,,,,,,,,,,,,,,,753.2794337999999,753.7821073,753.7821073,754.5318173000001,754.5318173000001,755.0372437000001,755.0372437000001,755.8342662,755.8342662,None,num_4,755.8342662,None,sad,0,Sad,756.2146573000005,None,None,756.2146573000005,None,0.36139599999933125,,,,,,,,,,,,,,,,,,,,,,,,,,,,,,,,,,,,,,,,,,,,,,,,,,,,,2,001,male,38,550,550,2022_Jul_04_0916,Experiment,2021.1.4,360.1397342163594,
images\S5_F_H_01.png,images\S5_F_H_01_scrambled.png,5,happy,10,female,4,,25,off,1,0.5,0.75,0.5,0.755,3,24,2,1,1,0,0,0,0,4,,,,,,0,125,125,125,,,,,,,,,,,,,,,,,,,,,,,,,,,,,,,,,,,,,,,,,,,,,,,,,,,,,,,,,756.284064,756.7866768999997,756.7866768999997,757.5393911000006,757.5393911000006,758.0418463000001,758.0418463000001,758.7999408000001,758.7999408000001,None,num_6,758.7999408000001,None,happy,0,Happy,759.2221118600002,None,None,759.2221118600002,None,0.4043762000001152,,,,,,,,,,,,,,,,,,,,,,,,,,,,,,,,,,,,,,,,,,,,,,,,,,,,,2,001,male,38,550,550,2022_Jul_04_0916,Experiment,2021.1.4,360.1397342163594,
images\S8_M_H_03.png,images\S8_M_H_03_scrambled.png,8,happy,30,male,6,,165,off,1,0.5,0.75,0.5,0.838,3,164,3,1,1,0,0,0,0,6,,,,,,0,126,126,126,,,,,,,,,,,,,,,,,,,,,,,,,,,,,,,,,,,,,,,,,,,,,,,,,,,,,,,,,759.2997950000004,759.8024368000001,759.8024368000001,760.5549842000005,760.5549842000005,761.0548279999998,761.0548279999998,761.8962811000006,761.8962811000006,None,num_6,761.8962811000006,None,happy,0,Happy,762.2766346600002,None,None,762.2766346600002,None,0.35511870000027557,,,,,,,,,,,,,,,,,,,,,,,,,,,,,,,,,,,,,,,,,,,,,,,,,,,,,2,001,male,38,550,550,2022_Jul_04_0916,Experiment,2021.1.4,360.1397342163594,
images\S5_F_S_01.png,images\S5_F_S_01_scrambled.png,5,sad,-10,female,3,,208,on,2,0.5,0.75,0.5,0.95,3,207,1,1,1,2,2,32,128,163,,,,,,0,127,127,127,,,,,,,,,,,,,,,,,,,,,,,,,,,,,,,,,,,,,,,,,,,,,,,,,,,,,,,,,762.3378205000004,762.8405388000006,762.8405388000006,763.5957815000006,763.5957815000006,764.1011600000006,764.1011600000006,765.0563794000004,765.0563794000004,None,num_6,765.0563794000004,None,happy,0,Sad,765.4286095200001,None,None,765.4286095200001,None,0.3634863999996014,,,,,,,,,,,,,,,,,,,,,,,,,,,,,,,,,,,,,,,,,,,,,,,,,,,,,2,001,male,38,550,550,2022_Jul_04_0916,Experiment,2021.1.4,360.1397342163594,
images\S3_F_S_01.png,images\S3_F_S_01_scrambled.png,3,sad,-10,female,3,,256,off,1,0.5,0.75,0.5,0.909,3,255,1,1,2,0,0,0,0,3,,,,,,0,128,128,128,,,,,,,,,,,,,,,,,,,,,,,,,,,,,,,,,,,,,,,,,,,,,,,,,,,,,,,,,765.4895509000003,765.9921938000002,765.9921938000002,766.7419349000006,766.7419349000006,767.2473572000004,767.2473572000004,768.1610323999998,768.1610323999998,None,num_4,768.1610323999998,None,sad,0,Sad,768.7218636600002,None,None,768.7218636600002,None,0.5469733999998425,,,,,,,,,,,,,,,,,,,,,,,,,,,,,,,,,,,,,,,,,,,,,,,,,,,,,2,001,male,38,550,550,2022_Jul_04_0916,Experiment,2021.1.4,360.1397342163594,
images\S3_F_S_01.png,images\S3_F_S_01_scrambled.png,3,sad,-10,female,3,,136,off,1,0.5,0.75,0.5,0.784,3,135,2,2,3,0,0,0,0,3,,,,,,0,129,129,129,,,,,,,,,,,,,,,,,,,,,,,,,,,,,,,,,,,,,,,,,,,,,,,,,,,,,,,,,768.7718705000002,769.2772810000001,769.2772810000001,770.0325996000006,770.0325996000006,770.5353264,770.5353264,771.3238547000005,771.3238547000005,None,num_4,771.3238547000005,None,sad,0,Sad,771.8098013600003,None,None,771.8098013600003,None,0.4716994000000341,,,,,,,,,,,,,,,,,,,,,,,,,,,,,,,,,,,,,,,,,,,,,,,,,,,,,2,001,male,38,550,550,2022_Jul_04_0916,Experiment,2021.1.4,360.1397342163594,
images\S6_M_S_02.png,images\S6_M_S_02_scrambled.png,6,sad,-20,male,2,,455,on,2,0.5,0.75,0.5,0.751,3,454,1,1,1,2,2,32,128,162,,,,,,0,130,130,130,,,,,,,,,,,,,,,,,,,,,,,,,,,,,,,,,,,,,,,,,,,,,,,,,,,,,,,,,771.8598007000005,772.3653739000006,772.3653739000006,773.1206447,773.1206447,773.6260072,773.6260072,774.3813370000003,774.3813370000003,None,num_4,774.3813370000003,None,sad,0,Sad,774.8727749000004,None,space,774.8727749000004,None,0.462583700000323,32.60993400000007,,,,,,,,,,,,,,,,,,,,,,,,,,,,,,,,,,,,,,,,,,,,,,,,,,,,2,001,male,38,550,550,2022_Jul_04_0916,Experiment,2021.1.4,360.1397342163594,
images\S6_M_H_01.png,images\S6_M_H_01_scrambled.png,6,happy,10,male,4,,571,on,2,0.5,0.75,0.5,0.849,3,570,2,2,1,2,2,32,128,164,,,,,,0,131,131,131,,,,,,,,,,,,,,,,,,,,,,,,,,,,,,,,,,,,,,,,,,,,,,,,,,,,,,,,,807.5404100000001,808.0459358000003,808.0459358000003,808.7956332999997,808.7956332999997,809.2983286000003,809.2983286000003,810.1479787000003,810.1479787000003,None,num_4,810.1479787000003,None,sad,0,Happy,810.50627322,None,None,810.50627322,None,0.3354708999995637,,,,,,,,,,,,,,,,,,,,,,,,,,,,,,,,,,,,,,,,,,,,,,,,,,,,,2,001,male,38,550,550,2022_Jul_04_0916,Experiment,2021.1.4,360.1397342163594,
images\S6_M_H_01.png,images\S6_M_H_01_scrambled.png,6,happy,10,male,4,,451,on,2,0.5,0.75,0.5,0.823,3,450,3,3,2,2,2,32,128,164,,,,,,0,132,132,132,,,,,,,,,,,,,,,,,,,,,,,,,,,,,,,,,,,,,,,,,,,,,,,,,,,,,,,,,810.5728457999999,811.0726869000005,811.0726869000005,811.8254307000002,811.8254307000002,812.3251028,812.3251028,813.1498768000006,813.1498768000006,None,num_4,813.1498768000006,None,sad,0,Happy,813.5470186200006,None,None,813.5470186200006,None,0.381660600000032,,,,,,,,,,,,,,,,,,,,,,,,,,,,,,,,,,,,,,,,,,,,,,,,,,,,,2,001,male,38,550,550,2022_Jul_04_0916,Experiment,2021.1.4,360.1397342163594,
images\S2_M_S_02.png,images\S2_M_S_02_scrambled.png,2,sad,-20,male,2,,71,on,2,0.5,0.75,0.5,0.757,3,70,4,1,1,2,2,32,128,162,,,,,,0,133,133,133,,,,,,,,,,,,,,,,,,,,,,,,,,,,,,,,,,,,,,,,,,,,,,,,,,,,,,,,,813.6107937000002,814.1162844000005,814.1162844000005,814.8715827000001,814.8715827000001,815.3741370000002,815.3741370000002,816.1350132000002,816.1350132000002,None,num_4,816.1350132000002,None,sad,0,Sad,816.4350560800005,None,None,816.4350560800005,None,0.2767735999996148,,,,,,,,,,,,,,,,,,,,,,,,,,,,,,,,,,,,,,,,,,,,,,,,,,,,,2,001,male,38,550,550,2022_Jul_04_0916,Experiment,2021.1.4,360.1397342163594,
images\S4_M_S_03.png,images\S4_M_S_03_scrambled.png,4,sad,-30,male,1,,504,off,1,0.5,0.75,0.5,0.906,3,503,1,1,1,0,0,0,0,1,,,,,,0,134,134,134,,,,,,,,,,,,,,,,,,,,,,,,,,,,,,,,,,,,,,,,,,,,,,,,,,,,,,,,,816.4876896999999,816.9905186000001,816.9905186000001,817.7428501999998,817.7428501999998,818.2455980999998,818.2455980999998,819.1563740000006,819.1563740000006,None,num_4,819.1563740000006,None,sad,0,Sad,819.7338974599999,None,None,819.7338974599999,None,0.5668452999998408,,,,,,,,,,,,,,,,,,,,,,,,,,,,,,,,,,,,,,,,,,,,,,,,,,,,,2,001,male,38,550,550,2022_Jul_04_0916,Experiment,2021.1.4,360.1397342163594,
images\S4_M_H_01.png,images\S4_M_H_01_scrambled.png,4,happy,10,male,4,,259,off,1,0.5,0.75,0.5,0.888,3,258,2,2,1,0,0,0,0,4,,,,,,0,135,135,135,,,,,,,,,,,,,,,,,,,,,,,,,,,,,,,,,,,,,,,,,,,,,,,,,,,,,,,,,819.7811148000005,820.2837298,820.2837298,821.0335023000002,821.0335023000002,821.5333528000006,821.5333528000006,822.4275447000005,822.4275447000005,None,num_4,822.4275447000005,None,sad,0,Happy,822.8218167199999,None,None,822.8218167199999,None,0.3839226999998573,,,,,,,,,,,,,,,,,,,,,,,,,,,,,,,,,,,,,,,,,,,,,,,,,,,,,2,001,male,38,550,550,2022_Jul_04_0916,Experiment,2021.1.4,360.1397342163594,
images\S2_M_H_03.png,images\S2_M_H_03_scrambled.png,2,happy,30,male,6,,429,on,2,0.5,0.75,0.5,0.763,3,428,1,1,1,2,2,32,128,166,,,,,,0,136,136,136,,,,,,,,,,,,,,,,,,,,,,,,,,,,,,,,,,,,,,,,,,,,,,,,,,,,,,,,,822.8884842000002,823.3911760000005,823.3911760000005,824.1408808000001,824.1408808000001,824.6463035000002,824.6463035000002,825.4155683000004,825.4155683000004,None,num_6,825.4155683000004,None,happy,0,Happy,825.9069694000004,None,None,825.9069694000004,None,0.4599668999999267,,,,,,,,,,,,,,,,,,,,,,,,,,,,,,,,,,,,,,,,,,,,,,,,,,,,,2,001,male,38,550,550,2022_Jul_04_0916,Experiment,2021.1.4,360.1397342163594,
images\S2_M_S_02.png,images\S2_M_S_02_scrambled.png,2,sad,-20,male,2,,11,off,1,0.5,0.75,0.5,0.827,3,10,1,2,1,0,0,0,0,2,,,,,,0,137,137,137,,,,,,,,,,,,,,,,,,,,,,,,,,,,,,,,,,,,,,,,,,,,,,,,,,,,,,,,,825.9625356000001,826.4651737999998,826.4651737999998,827.2149388000003,827.2149388000003,827.7204352000003,827.7204352000003,828.5506275000002,828.5506275000002,None,num_4,828.5506275000002,None,sad,0,Sad,829.0894330200005,None,None,829.0894330200005,None,0.5169249000000491,,,,,,,,,,,,,,,,,,,,,,,,,,,,,,,,,,,,,,,,,,,,,,,,,,,,,2,001,male,38,550,550,2022_Jul_04_0916,Experiment,2021.1.4,360.1397342163594,
images\S1_F_H_03.png,images\S1_F_H_03_scrambled.png,1,happy,30,female,6,,63,on,2,0.5,0.75,0.5,0.78,3,62,1,1,1,2,2,32,128,166,,,,,,0,138,138,138,,,,,,,,,,,,,,,,,,,,,,,,,,,,,,,,,,,,,,,,,,,,,,,,,,,,,,,,,829.1448804000006,829.6447301000003,829.6447301000003,830.3945571999998,830.3945571999998,830.9000141000001,830.9000141000001,831.6858539,831.6858539,None,num_6,831.6858539,None,happy,0,Happy,832.35221466,None,None,832.35221466,None,0.6532194000001255,,,,,,,,,,,,,,,,,,,,,,,,,,,,,,,,,,,,,,,,,,,,,,,,,,,,,2,001,male,38,550,550,2022_Jul_04_0916,Experiment,2021.1.4,360.1397342163594,
images\S4_M_H_02.png,images\S4_M_H_02_scrambled.png,4,happy,20,male,5,,260,off,1,0.5,0.75,0.5,0.914,3,259,1,1,1,0,0,0,0,5,,,,,,0,139,139,139,,,,,,,,,,,,,,,,,,,,,,,,,,,,,,,,,,,,,,,,,,,,,,,,,,,,,,,,,832.4633040000003,832.9660172999997,832.9660172999997,833.7156998000005,833.7156998000005,834.2211804000003,834.2211804000003,835.1375539000005,835.1375539000005,None,num_6,835.1375539000005,None,happy,0,Happy,835.8346172200005,None,None,835.8346172200005,None,0.6739781999995103,,,,,,,,,,,,,,,,,,,,,,,,,,,,,,,,,,,,,,,,,,,,,,,,,,,,,2,001,male,38,550,550,2022_Jul_04_0916,Experiment,2021.1.4,360.1397342163594,
images\S7_F_S_01.png,images\S7_F_S_01_scrambled.png,7,sad,-10,female,3,,580,on,2,0.5,0.75,0.5,0.827,3,579,1,1,1,2,2,32,128,163,,,,,,0,140,140,140,,,,,,,,,,,,,,,,,,,,,,,,,,,,,,,,,,,,,,,,,,,,,,,,,,,,,,,,,835.9011321000003,836.4065559000005,836.4065559000005,837.1562969000001,837.1562969000001,837.6562157000003,837.6562157000003,838.4864764999998,838.4864764999998,None,num_4,838.4864764999998,None,sad,0,Sad,839.2167497000005,None,None,839.2167497000005,None,0.7009319999997388,,,,,,,,,,,,,,,,,,,,,,,,,,,,,,,,,,,,,,,,,,,,,,,,,,,,,2,001,male,38,550,550,2022_Jul_04_0916,Experiment,2021.1.4,360.1397342163594,
