image_face,image_scram,avatar,emo,emotion,sex,trigeeg,dac,trial_no,NMES,stimtime,baseline,iti,face,scr_face,resp_time,index,count_NMES,count_avatar,count_emotion,dac1,dac2,dac1_output,dac2_output,trigs_out,nmes,practice_trials.thisRepN,practice_trials.thisTrialN,practice_trials.thisN,practice_trials.thisIndex,real_trials.thisRepN,real_trials.thisTrialN,real_trials.thisN,real_trials.thisIndex,trials.thisRepN,trials.thisTrialN,trials.thisN,trials.thisIndex,position,Welcome.started,Welcome.stopped,Welcome_resp.keys,Welcome_resp.rt,text_2.started,text_2.stopped,form_2.index,form_2.itemText,form_2.type,form_2.response,form_2.rt,key_resp_4.keys,key_resp_4.rt,key_resp_4.started,key_resp_4.stopped,instructions.started,instructions.stopped,end_instr.keys,end_instr.rt,instructions_2.started,instructions_2.stopped,end_instr_2.keys,end_instr_2.rt,end_instr_2.started,end_instr_2.stopped,instruct_keypress.started,instruct_keypress.stopped,end_instruct_keypress.keys,end_instruct_keypress.rt,start_practice.started,start_practice.stopped,start_practice_resp.keys,start_practice_resp.rt,prac_baseline.started,prac_baseline.stopped,prac_iti.started,prac_iti.stopped,prac_stimulus.started,prac_stimulus.stopped,prac_scram_stim.started,prac_scram_stim.stopped,prac_stimulus_resp.started,prac_stimulus_resp.stopped,prac_resp.keys,prac_resp.rt,prac_resp.started,prac_resp.stopped,transition_to_real.started,transition_to_real.stopped,end_transition_to_real.keys,end_transition_to_real.rt,fixation_cross.started,fixation_cross.stopped,tr_iti.started,tr_iti.stopped,stimulus.started,stimulus.stopped,scram_stim.started,scram_stim.stopped,response_txt.started,response_txt.stopped,response.keys,response.rt,response.started,response.stopped,participant_Resp,grouping,corAnswer,break_msg.started,break_msg.stopped,end_break.keys,end_break.started,end_break.stopped,end_break.rt,text.started,text.stopped,key_resp_3.keys,key_resp_3.rt,key_resp_3.started,key_resp_3.stopped,fix_cross_comf.started,fix_cross_comf.stopped,stimulation_comf.started,stimulation_comf.stopped,rate_instr.started,rate_instr.stopped,comfort_rating.response,comfort_rating.rt,comfort_rating.started,comfort_rating.stopped,resp_form.keys,resp_form.rt,resp_form.started,resp_form.stopped,survey_instructions.started,survey_instructions.stopped,key_resp_2.keys,key_resp_2.rt,key_resp_2.started,key_resp_2.stopped,form.index,form.itemText,form.type,form.response,form.rt,key_resp.keys,key_resp.rt,key_resp.started,key_resp.stopped,text_3.started,text_3.stopped,rate_smile.response,rate_smile.rt,rate_smile.started,rate_smile.stopped,key_resp_5.keys,key_resp_5.rt,key_resp_5.started,key_resp_5.stopped,end_msg.started,end_msg.stopped,end_resp.keys,end_resp.rt,end_resp.started,end_resp.stopped,participant,session,gender,age,LEFT,RIGHT,date,expName,psychopyVersion,frameRate,
,,,,,,,,,,,,,,,,,,,,,,,,,,,,,,,,,,,,,,S-H,29.858499500000107,None,num_add,4.823490599999786,,,,,,,,,,,,,,,,,,,,,,,,,,,,,,,,,,,,,,,,,,,,,,,,,,,,,,,,,,,,,,,,,,,,,,,,,,,,,,,,,,,,,,,,,,,,,,,,,,,,,,,,,,,,,,,,,,,,,,,,,,30,001,0,24,500,450,2022_Oct_25_1043,Experiment,2021.1.4,359.9737939112416,
,,,,,,,,,,,,,,,,,,,,,,,,,,,,,,,,,,,,,,,,,,,34.69054330000017,36.72605899999962,1,"This scale consistes of a number of words that describe different feelings and emotion. Read each item and then list the number from the scale below each word. Indicate (by clicking) to what extend you feel this way RIGHT NOW, that is, AT THE PRESENT MOMENT.",description,,,,,,,,,,,,,,,,,,,,,,,,,,,,,,,,,,,,,,,,,,,,,,,,,,,,,,,,,,,,,,,,,,,,,,,,,,,,,,,,,,,,,,,,,,,,,,,,,,,,,,,,,,,,,,,,,,,,,30,001,0,24,500,450,2022_Oct_25_1043,Experiment,2021.1.4,359.9737939112416,
,,,,,,,,,,,,,,,,,,,,,,,,,,,,,,,,,,,,,,,,,,,,,2,Interested,rating,4.0,4.071394999999939,,,,,,,,,,,,,,,,,,,,,,,,,,,,,,,,,,,,,,,,,,,,,,,,,,,,,,,,,,,,,,,,,,,,,,,,,,,,,,,,,,,,,,,,,,,,,,,,,,,,,,,,,,,,,,,,,,,30,001,0,24,500,450,2022_Oct_25_1043,Experiment,2021.1.4,359.9737939112416,
,,,,,,,,,,,,,,,,,,,,,,,,,,,,,,,,,,,,,,,,,,,,,3,Distressed,rating,1.0,6.537225400000352,,,,,,,,,,,,,,,,,,,,,,,,,,,,,,,,,,,,,,,,,,,,,,,,,,,,,,,,,,,,,,,,,,,,,,,,,,,,,,,,,,,,,,,,,,,,,,,,,,,,,,,,,,,,,,,,,,,30,001,0,24,500,450,2022_Oct_25_1043,Experiment,2021.1.4,359.9737939112416,
,,,,,,,,,,,,,,,,,,,,,,,,,,,,,,,,,,,,,,,,,,,,,4,Excited,rating,4.0,9.83990780000022,,,,,,,,,,,,,,,,,,,,,,,,,,,,,,,,,,,,,,,,,,,,,,,,,,,,,,,,,,,,,,,,,,,,,,,,,,,,,,,,,,,,,,,,,,,,,,,,,,,,,,,,,,,,,,,,,,,30,001,0,24,500,450,2022_Oct_25_1043,Experiment,2021.1.4,359.9737939112416,
,,,,,,,,,,,,,,,,,,,,,,,,,,,,,,,,,,,,,,,,,,,,,5,Upset,rating,1.0,12.905721000000085,,,,,,,,,,,,,,,,,,,,,,,,,,,,,,,,,,,,,,,,,,,,,,,,,,,,,,,,,,,,,,,,,,,,,,,,,,,,,,,,,,,,,,,,,,,,,,,,,,,,,,,,,,,,,,,,,,,30,001,0,24,500,450,2022_Oct_25_1043,Experiment,2021.1.4,359.9737939112416,
,,,,,,,,,,,,,,,,,,,,,,,,,,,,,,,,,,,,,,,,,,,,,6,Strong,rating,4.0,17.344029699999737,,,,,,,,,,,,,,,,,,,,,,,,,,,,,,,,,,,,,,,,,,,,,,,,,,,,,,,,,,,,,,,,,,,,,,,,,,,,,,,,,,,,,,,,,,,,,,,,,,,,,,,,,,,,,,,,,,,30,001,0,24,500,450,2022_Oct_25_1043,Experiment,2021.1.4,359.9737939112416,
,,,,,,,,,,,,,,,,,,,,,,,,,,,,,,,,,,,,,,,,,,,,,7,Guilty,rating,1.0,12.603748800000176,,,,,,,,,,,,,,,,,,,,,,,,,,,,,,,,,,,,,,,,,,,,,,,,,,,,,,,,,,,,,,,,,,,,,,,,,,,,,,,,,,,,,,,,,,,,,,,,,,,,,,,,,,,,,,,,,,,30,001,0,24,500,450,2022_Oct_25_1043,Experiment,2021.1.4,359.9737939112416,
,,,,,,,,,,,,,,,,,,,,,,,,,,,,,,,,,,,,,,,,,,,,,8,Scared,rating,1.0,11.639990299999226,,,,,,,,,,,,,,,,,,,,,,,,,,,,,,,,,,,,,,,,,,,,,,,,,,,,,,,,,,,,,,,,,,,,,,,,,,,,,,,,,,,,,,,,,,,,,,,,,,,,,,,,,,,,,,,,,,,30,001,0,24,500,450,2022_Oct_25_1043,Experiment,2021.1.4,359.9737939112416,
,,,,,,,,,,,,,,,,,,,,,,,,,,,,,,,,,,,,,,,,,,,,,9,Hostile,rating,1.0,11.280763400000069,,,,,,,,,,,,,,,,,,,,,,,,,,,,,,,,,,,,,,,,,,,,,,,,,,,,,,,,,,,,,,,,,,,,,,,,,,,,,,,,,,,,,,,,,,,,,,,,,,,,,,,,,,,,,,,,,,,30,001,0,24,500,450,2022_Oct_25_1043,Experiment,2021.1.4,359.9737939112416,
,,,,,,,,,,,,,,,,,,,,,,,,,,,,,,,,,,,,,,,,,,,,,10,Enthusiastic,rating,4.0,9.259890799999994,,,,,,,,,,,,,,,,,,,,,,,,,,,,,,,,,,,,,,,,,,,,,,,,,,,,,,,,,,,,,,,,,,,,,,,,,,,,,,,,,,,,,,,,,,,,,,,,,,,,,,,,,,,,,,,,,,,30,001,0,24,500,450,2022_Oct_25_1043,Experiment,2021.1.4,359.9737939112416,
,,,,,,,,,,,,,,,,,,,,,,,,,,,,,,,,,,,,,,,,,,,,,11,Proud,rating,3.0,9.46985770000083,,,,,,,,,,,,,,,,,,,,,,,,,,,,,,,,,,,,,,,,,,,,,,,,,,,,,,,,,,,,,,,,,,,,,,,,,,,,,,,,,,,,,,,,,,,,,,,,,,,,,,,,,,,,,,,,,,,30,001,0,24,500,450,2022_Oct_25_1043,Experiment,2021.1.4,359.9737939112416,
,,,,,,,,,,,,,,,,,,,,,,,,,,,,,,,,,,,,,,,,,,,,,12,Irritable,rating,1.0,7.5495465000003605,,,,,,,,,,,,,,,,,,,,,,,,,,,,,,,,,,,,,,,,,,,,,,,,,,,,,,,,,,,,,,,,,,,,,,,,,,,,,,,,,,,,,,,,,,,,,,,,,,,,,,,,,,,,,,,,,,,30,001,0,24,500,450,2022_Oct_25_1043,Experiment,2021.1.4,359.9737939112416,
,,,,,,,,,,,,,,,,,,,,,,,,,,,,,,,,,,,,,,,,,,,,,13,Alert,rating,4.0,8.551091899999847,,,,,,,,,,,,,,,,,,,,,,,,,,,,,,,,,,,,,,,,,,,,,,,,,,,,,,,,,,,,,,,,,,,,,,,,,,,,,,,,,,,,,,,,,,,,,,,,,,,,,,,,,,,,,,,,,,,30,001,0,24,500,450,2022_Oct_25_1043,Experiment,2021.1.4,359.9737939112416,
,,,,,,,,,,,,,,,,,,,,,,,,,,,,,,,,,,,,,,,,,,,,,14,Ashamed,rating,1.0,10.091998500000045,,,,,,,,,,,,,,,,,,,,,,,,,,,,,,,,,,,,,,,,,,,,,,,,,,,,,,,,,,,,,,,,,,,,,,,,,,,,,,,,,,,,,,,,,,,,,,,,,,,,,,,,,,,,,,,,,,,30,001,0,24,500,450,2022_Oct_25_1043,Experiment,2021.1.4,359.9737939112416,
,,,,,,,,,,,,,,,,,,,,,,,,,,,,,,,,,,,,,,,,,,,,,15,Inspired,rating,3.0,8.257191199999397,,,,,,,,,,,,,,,,,,,,,,,,,,,,,,,,,,,,,,,,,,,,,,,,,,,,,,,,,,,,,,,,,,,,,,,,,,,,,,,,,,,,,,,,,,,,,,,,,,,,,,,,,,,,,,,,,,,30,001,0,24,500,450,2022_Oct_25_1043,Experiment,2021.1.4,359.9737939112416,
,,,,,,,,,,,,,,,,,,,,,,,,,,,,,,,,,,,,,,,,,,,,,16,Nervous,rating,1.0,8.69140090000019,,,,,,,,,,,,,,,,,,,,,,,,,,,,,,,,,,,,,,,,,,,,,,,,,,,,,,,,,,,,,,,,,,,,,,,,,,,,,,,,,,,,,,,,,,,,,,,,,,,,,,,,,,,,,,,,,,,30,001,0,24,500,450,2022_Oct_25_1043,Experiment,2021.1.4,359.9737939112416,
,,,,,,,,,,,,,,,,,,,,,,,,,,,,,,,,,,,,,,,,,,,,,17,Determined,rating,4.0,8.50104250000004,,,,,,,,,,,,,,,,,,,,,,,,,,,,,,,,,,,,,,,,,,,,,,,,,,,,,,,,,,,,,,,,,,,,,,,,,,,,,,,,,,,,,,,,,,,,,,,,,,,,,,,,,,,,,,,,,,,30,001,0,24,500,450,2022_Oct_25_1043,Experiment,2021.1.4,359.9737939112416,
,,,,,,,,,,,,,,,,,,,,,,,,,,,,,,,,,,,,,,,,,,,,,18,Attentive,rating,4.0,7.676178199999413,,,,,,,,,,,,,,,,,,,,,,,,,,,,,,,,,,,,,,,,,,,,,,,,,,,,,,,,,,,,,,,,,,,,,,,,,,,,,,,,,,,,,,,,,,,,,,,,,,,,,,,,,,,,,,,,,,,30,001,0,24,500,450,2022_Oct_25_1043,Experiment,2021.1.4,359.9737939112416,
,,,,,,,,,,,,,,,,,,,,,,,,,,,,,,,,,,,,,,,,,,,,,19,Jittery,rating,1.0,8.847967200000312,,,,,,,,,,,,,,,,,,,,,,,,,,,,,,,,,,,,,,,,,,,,,,,,,,,,,,,,,,,,,,,,,,,,,,,,,,,,,,,,,,,,,,,,,,,,,,,,,,,,,,,,,,,,,,,,,,,30,001,0,24,500,450,2022_Oct_25_1043,Experiment,2021.1.4,359.9737939112416,
,,,,,,,,,,,,,,,,,,,,,,,,,,,,,,,,,,,,,,,,,,,,,20,Active,rating,4.0,8.660947599999417,,,,,,,,,,,,,,,,,,,,,,,,,,,,,,,,,,,,,,,,,,,,,,,,,,,,,,,,,,,,,,,,,,,,,,,,,,,,,,,,,,,,,,,,,,,,,,,,,,,,,,,,,,,,,,,,,,,30,001,0,24,500,450,2022_Oct_25_1043,Experiment,2021.1.4,359.9737939112416,
,,,,,,,,,,,,,,,,,,,,,,,,,,,,,,,,,,,,,,,,,,,,,21,Afraid,rating,1.0,8.998049599999831,,,,,,,,,,,,,,,,,,,,,,,,,,,,,,,,,,,,,,,,,,,,,,,,,,,,,,,,,,,,,,,,,,,,,,,,,,,,,,,,,,,,,,,,,,,,,,,,,,,,,,,,,,,,,,,,,,,30,001,0,24,500,450,2022_Oct_25_1043,Experiment,2021.1.4,359.9737939112416,
,,,,,,,,,,,,,,,,,,,,,,,,,,,,,,,,,,,,,,,,,,,,,22,Press the + button to submit your answers,description,,,,,,,,,,,,,,,,,,,,,,,,,,,,,,,,,,,,,,,,,,,,,,,,,,,,,,,,,,,,,,,,,,,,,,,,,,,,,,,,,,,,,,,,,,,,,,,,,,,,,,,,,,,,,,,,,,,,,30,001,0,24,500,450,2022_Oct_25_1043,Experiment,2021.1.4,359.9737939112416,
,,,,,,,,,,,,,,,,,,,,,,,,,,,,,,,,,,,,,,,,,,,,,,,,,,num_add,49.730951300000015,44.743072199999915,None,,,,,,,,,,,,,,,,,,,,,,,,,,,,,,,,,,,,,,,,,,,,,,,,,,,,,,,,,,,,,,,,,,,,,,,,,,,,,,,,,,,,,,,,,,,,,,,,,,,,,,,,,,,,,,,30,001,0,24,500,450,2022_Oct_25_1043,Experiment,2021.1.4,359.9737939112416,
,,,,,,,,,,,,,,,,,,,,,,,,,,,,,,,,,,,,,,,,,,,,,,,,,,,,,,94.49451319999935,None,num_add,1.619520399999601,,,,,,,,,,,,,,,,,,,,,,,,,,,,,,,,,,,,,,,,,,,,,,,,,,,,,,,,,,,,,,,,,,,,,,,,,,,,,,,,,,,,,,,,,,,,,,,,,,,,,,,,,,,30,001,0,24,500,450,2022_Oct_25_1043,Experiment,2021.1.4,359.9737939112416,
,,,,,,,,,,,,,,,,,,,,,,,,,,,,,,,,,,,,,,,,,,,,,,,,,,,,,,,,,,96.12449969999943,None,num_add,2.581546399999752,96.12449969999943,None,,,,,,,,,,,,,,,,,,,,,,,,,,,,,,,,,,,,,,,,,,,,,,,,,,,,,,,,,,,,,,,,,,,,,,,,,,,,,,,,,,,,,,,,,,,,,,,,,,,,,30,001,0,24,500,450,2022_Oct_25_1043,Experiment,2021.1.4,359.9737939112416,
,,,,,,,,,,,,,,,,,,,,,,,,,,,,,,,,,,,,,,,,,,,,,,,,,,,,,,,,,,,,,,,,98.72925369999939,None,num_add,1.200973700000759,,,,,,,,,,,,,,,,,,,,,,,,,,,,,,,,,,,,,,,,,,,,,,,,,,,,,,,,,,,,,,,,,,,,,,,,,,,,,,,,,,,,,,,,,,,,,,,,,30,001,0,24,500,450,2022_Oct_25_1043,Experiment,2021.1.4,359.9737939112416,
,,,,,,,,,,,,,,,,,,,,,,,,,,,,,,,,,,,,,,,,,,,,,,,,,,,,,,,,,,,,,,,,,,,,99.94276739999987,None,space,9.859209199999896,,,,,,,,,,,,,,,,,,,,,,,,,,,,,,,,,,,,,,,,,,,,,,,,,,,,,,,,,,,,,,,,,,,,,,,,,,,,,,,,,,,,,,,,,,,,,30,001,0,24,500,450,2022_Oct_25_1043,Experiment,2021.1.4,359.9737939112416,
images\S22_M_S_03.png,images\S22_M_S_03_scrambled.png,22,Sad,0.3,M,0,0,practice,on,2,0.5,0.75,0.5,0.794,3,,,,,,,,,,,0,0,0,7,,,,,,,,,,,,,,,,,,,,,,,,,,,,,,,,,,,,,,,,,,,109.93415050000021,110.43676919999962,110.43676919999962,111.19211429999996,111.19211429999996,111.69192810000004,111.69192810000004,112.48890659999961,112.48890659999961,None,num_4,0.4097170000004553,112.48890659999961,None,,,,,,,,,,,,,,,,,,,,,,,,,,,,,,,,,,,,,,,,,,,,,,,,,,,,,,,,,,,,,,,,,,,,,,,,,,,,,,,30,001,0,24,500,450,2022_Oct_25_1043,Experiment,2021.1.4,359.9737939112416,
images\S22_M_S_02.png,images\S22_M_S_02_scrambled.png,22,Sad,0.2,M,0,0,practice,on,2,0.5,0.75,0.5,0.783,3,,,,,,,,,,,0,1,1,6,,,,,,,,,,,,,,,,,,,,,,,,,,,,,,,,,,,,,,,,,,,112.95557069999995,113.46092189999945,113.46092189999945,114.21062989999973,114.21062989999973,114.71604779999961,114.71604779999961,115.50187709999955,115.50187709999955,None,num_4,0.2846668000001955,115.50187709999955,None,,,,,,,,,,,,,,,,,,,,,,,,,,,,,,,,,,,,,,,,,,,,,,,,,,,,,,,,,,,,,,,,,,,,,,,,,,,,,,,30,001,0,24,500,450,2022_Oct_25_1043,Experiment,2021.1.4,359.9737939112416,
images\S21_F_H_02.png,images\S21_F_H_02_scrambled.png,21,Happy,-0.2,F,0,0,practice,off,1,0.5,0.75,0.5,0.91,3,,,,,,,,,,,0,2,2,1,,,,,,,,,,,,,,,,,,,,,,,,,,,,,,,,,,,,,,,,,,,115.8406632999995,116.3405243999996,116.3405243999996,117.0902701999994,117.0902701999994,117.5957983999997,117.5957983999997,118.5093251999997,118.5093251999997,None,num_6,0.4853339000001142,118.5093251999997,None,,,,,,,,,,,,,,,,,,,,,,,,,,,,,,,,,,,,,,,,,,,,,,,,,,,,,,,,,,,,,,,,,,,,,,,,,,,,,,,30,001,0,24,500,450,2022_Oct_25_1043,Experiment,2021.1.4,359.9737939112416,
images\S22_M_S_03.png,images\S22_M_S_03_scrambled.png,22,Sad,0.3,M,0,0,practice,on,2,0.5,0.75,0.5,0.87,3,,,,,,,,,,,0,3,3,4,,,,,,,,,,,,,,,,,,,,,,,,,,,,,,,,,,,,,,,,,,,119.05356070000016,119.55619899999965,119.55619899999965,120.30597919999946,120.30597919999946,120.81140549999964,120.81140549999964,121.68614129999969,121.68614129999969,None,num_4,0.3083190999996077,121.68614129999969,None,,,,,,,,,,,,,,,,,,,,,,,,,,,,,,,,,,,,,,,,,,,,,,,,,,,,,,,,,,,,,,,,,,,,,,,,,,,,,,,30,001,0,24,500,450,2022_Oct_25_1043,Experiment,2021.1.4,359.9737939112416,
images\S22_M_S_01.png,images\S22_M_S_01_scrambled.png,22,Sad,0.1,M,0,0,practice,on,2,0.5,0.75,0.5,0.867,3,,,,,,,,,,,0,4,4,5,,,,,,,,,,,,,,,,,,,,,,,,,,,,,,,,,,,,,,,,,,,122.04708699999992,122.55251529999987,122.55251529999987,123.30516850000004,123.30516850000004,123.80490680000003,123.80490680000003,124.676872,124.676872,None,num_4,0.2856806999998298,124.676872,None,,,,,,,,,,,,,,,,,,,,,,,,,,,,,,,,,,,,,,,,,,,,,,,,,,,,,,,,,,,,,,,,,,,,,,,,,,,,,,,30,001,0,24,500,450,2022_Oct_25_1043,Experiment,2021.1.4,359.9737939112416,
images\S22_M_H_02.png,images\S22_M_H_02_scrambled.png,22,Happy,-0.2,M,0,0,practice,off,1,0.5,0.75,0.5,0.883,3,,,,,,,,,,,0,5,5,2,,,,,,,,,,,,,,,,,,,,,,,,,,,,,,,,,,,,,,,,,,,125.01284349999969,125.5156092999996,125.5156092999996,126.27089029999934,126.27089029999934,126.77623429999949,126.77623429999949,127.66207229999964,127.66207229999964,None,num_6,0.3644952000004196,127.66207229999964,None,,,,,,,,,,,,,,,,,,,,,,,,,,,,,,,,,,,,,,,,,,,,,,,,,,,,,,,,,,,,,,,,,,,,,,,,,,,,,,,30,001,0,24,500,450,2022_Oct_25_1043,Experiment,2021.1.4,359.9737939112416,
images\S22_M_S_02.png,images\S22_M_S_02_scrambled.png,22,Sad,0.2,M,0,0,practice,off,1,0.5,0.75,0.5,0.751,3,,,,,,,,,,,0,6,6,3,,,,,,,,,,,,,,,,,,,,,,,,,,,,,,,,,,,,,,,,,,,128.10078299999986,128.6062505,128.6062505,129.35873829999946,129.35873829999946,129.86139730000014,129.86139730000014,130.61672279999948,130.61672279999948,None,num_6,0.3779400000003079,130.61672279999948,None,,,,,,,,,,,,,,,,,,,,,,,,,,,,,,,,,,,,,,,,,,,,,,,,,,,,,,,,,,,,,,,,,,,,,,,,,,,,,,,30,001,0,24,500,450,2022_Oct_25_1043,Experiment,2021.1.4,359.9737939112416,
images\S21_F_H_01.png,images\S21_F_H_01_scrambled.png,21,Happy,-0.1,F,0,0,practice,off,1,0.5,0.75,0.5,0.853,3,,,,,,,,,,,0,7,7,0,,,,,,,,,,,,,,,,,,,,,,,,,,,,,,,,,,,,,,,,,,,131.0443180000002,131.54416570000012,131.54416570000012,132.29394700000012,132.29394700000012,132.79382819999955,132.79382819999955,133.6491178999995,133.6491178999995,None,num_6,0.3293942000000243,133.6491178999995,None,,,,,,,,,,,,,,,,,,,,,,,,,,,,,,,,,,,,,,,,,,,,,,,,,,,,,,,,,,,,,,,,,,,,,,,,,,,,,,,30,001,0,24,500,450,2022_Oct_25_1043,Experiment,2021.1.4,359.9737939112416,
,,,,,,,,,,,,,,,,,,,,,,,,,,,,,,,,,,,,,,,,,,,,,,,,,,,,,,,,,,,,,,,,,,,,,,,,,,,,,,,,,,,,,,134.01008589999947,None,space,34.64795740000045,,,,,,,,,,,,,,,,,,,,,,,,,,,,,,,,,,,,,,,,,,,,,,,,,,,,,,,,,,,,,,,,,,,,,,,,,,,30,001,0,24,500,450,2022_Oct_25_1043,Experiment,2021.1.4,359.9737939112416,
images\S1_F_S_01.png,images\S1_F_S_01_scrambled.png,1,sad,-10,female,3,,124,off,1,0.5,0.75,0.5,0.791,3,123,1,1,1,0,0,0,0,3,,,,,,0,0,0,0,,,,,,,,,,,,,,,,,,,,,,,,,,,,,,,,,,,,,,,,,,,,,,,,,,,,,,,,,169.1076398999994,169.61309410000013,169.61309410000013,170.3684174,170.3684174,170.8738005999994,170.8738005999994,171.6680434,171.6680434,None,num_6,0.5665416000001642,171.6680434,None,happy,0,Sad,172.26782376000062,None,None,172.26782376000062,None,,,,,,,,,,,,,,,,,,,,,,,,,,,,,,,,,,,,,,,,,,,,,,,,,,,,,30,001,0,24,500,450,2022_Oct_25_1043,Experiment,2021.1.4,359.9737939112416,
images\S4_M_H_02.png,images\S4_M_H_02_scrambled.png,4,happy,20,male,5,,80,on,2,0.5,0.75,0.5,0.756,3,79,1,1,1,2,2,32,128,165,,,,,,0,1,1,1,,,,,,,,,,,,,,,,,,,,,,,,,,,,,,,,,,,,,,,,,,,,,,,,,,,,,,,,,172.32054069999958,172.8203982999994,172.8203982999994,173.57302379999965,173.57302379999965,174.07837729999937,174.07837729999937,174.83924239999942,174.83924239999942,None,num_6,0.3153113000007579,174.83924239999942,None,happy,0,Happy,175.16961882000012,None,None,175.16961882000012,None,,,,,,,,,,,,,,,,,,,,,,,,,,,,,,,,,,,,,,,,,,,,,,,,,,,,,30,001,0,24,500,450,2022_Oct_25_1043,Experiment,2021.1.4,359.9737939112416,
images\blank.jpg,images\blank.jpg,none,none,none,none,0,,626,on,2,0.5,0.75,0.5,0.879,0,625,2,1,1,3,3,48,192,240,,,,,,0,2,2,2,,,,,,,,,,,,,,,,,,,,,,,,,,,,,,,,,,,,,,,,,,,,,,,,,,,,,,,,,175.25615519999974,175.75837429999956,175.75837429999956,176.5137354999997,176.5137354999997,177.01912300000004,177.01912300000004,177.90227939999932,177.90227939999932,177.90227939999932,None,,177.90227939999932,None,miss,0,,180.90403177999968,None,None,180.90403177999968,None,,,,,,,,,,,,,,,,,,,,,,,,,,,,,,,,,,,,,,,,,,,,,,,,,,,,,30,001,0,24,500,450,2022_Oct_25_1043,Experiment,2021.1.4,359.9737939112416,
images\S9_F_S_01.png,images\S9_F_S_01_scrambled.png,9,sad,-10,female,3,,292,off,1,0.5,0.75,0.5,0.821,3,291,1,1,1,0,0,0,0,3,,,,,,0,3,3,3,,,,,,,,,,,,,,,,,,,,,,,,,,,,,,,,,,,,,,,,,,,,,,,,,,,,,,,,,181.02087399999982,181.52608369999962,181.52608369999962,182.2786301999995,182.2786301999995,182.78121620000002,182.78121620000002,183.60599329999968,183.60599329999968,None,num_6,0.26871590000064316,183.60599329999968,181.02087399999982,happy,0,Sad,183.88644705999957,None,None,183.88644705999957,None,,,,,,,,,,,,,,,,,,,,,,,,,,,,,,,,,,,,,,,,,,,,,,,,,,,,,30,001,0,24,500,450,2022_Oct_25_1043,Experiment,2021.1.4,359.9737939112416,
images\S7_F_S_03.png,images\S7_F_S_03_scrambled.png,7,sad,-30,female,1,,342,on,2,0.5,0.75,0.5,0.867,3,341,1,1,1,2,2,32,128,161,,,,,,0,4,4,4,,,,,,,,,,,,,,,,,,,,,,,,,,,,,,,,,,,,,,,,,,,,,,,,,,,,,,,,,183.93364139999994,184.4334859999999,184.4334859999999,185.1860603999994,185.1860603999994,185.69146699999965,185.69146699999965,186.56065249999938,186.56065249999938,None,num_4,0.3060976999995546,186.56065249999938,None,sad,0,Sad,186.89386162000054,None,None,186.89386162000054,None,,,,,,,,,,,,,,,,,,,,,,,,,,,,,,,,,,,,,,,,,,,,,,,,,,,,,30,001,0,24,500,450,2022_Oct_25_1043,Experiment,2021.1.4,359.9737939112416,
images\S5_F_S_03.png,images\S5_F_S_03_scrambled.png,5,sad,-30,female,1,,510,off,1,0.5,0.75,0.5,0.766,3,509,1,1,2,0,0,0,0,1,,,,,,0,5,5,5,,,,,,,,,,,,,,,,,,,,,,,,,,,,,,,,,,,,,,,,,,,,,,,,,,,,,,,,,186.94938490000004,187.45486769999934,187.45486769999934,188.20457429999988,188.20457429999988,188.70718489999945,188.70718489999945,189.4763812000001,189.4763812000001,None,num_4,0.5742866000000504,189.4763812000001,None,sad,0,Sad,190.0761986399999,None,None,190.0761986399999,None,,,,,,,,,,,,,,,,,,,,,,,,,,,,,,,,,,,,,,,,,,,,,,,,,,,,,30,001,0,24,500,450,2022_Oct_25_1043,Experiment,2021.1.4,359.9737939112416,
images\S9_F_H_03.png,images\S9_F_H_03_scrambled.png,9,happy,30,female,6,,51,off,1,0.5,0.75,0.5,0.906,3,50,2,1,1,0,0,0,0,6,,,,,,0,6,6,6,,,,,,,,,,,,,,,,,,,,,,,,,,,,,,,,,,,,,,,,,,,,,,,,,,,,,,,,,190.1318298999995,190.6371307999998,190.6371307999998,191.3897864999999,191.3897864999999,191.89513720000014,191.89513720000014,192.80595769999945,192.80595769999945,None,num_6,0.2925857000000178,192.80595769999945,None,happy,0,Happy,193.10862971999975,None,None,193.10862971999975,None,,,,,,,,,,,,,,,,,,,,,,,,,,,,,,,,,,,,,,,,,,,,,,,,,,,,,30,001,0,24,500,450,2022_Oct_25_1043,Experiment,2021.1.4,359.9737939112416,
images\S9_F_S_01.png,images\S9_F_S_01_scrambled.png,9,sad,-10,female,3,,172,off,1,0.5,0.75,0.5,0.777,3,171,3,2,1,0,0,0,0,3,,,,,,0,7,7,7,,,,,,,,,,,,,,,,,,,,,,,,,,,,,,,,,,,,,,,,,,,,,,,,,,,,,,,,,193.15581079999993,193.65856970000004,193.65856970000004,194.40820879999956,194.40820879999956,194.9108669999996,194.9108669999996,195.69117039999946,195.69117039999946,None,num_6,0.31191060000037396,195.69117039999946,None,happy,0,Sad,196.0162243400001,None,None,196.0162243400001,None,,,,,,,,,,,,,,,,,,,,,,,,,,,,,,,,,,,,,,,,,,,,,,,,,,,,,30,001,0,24,500,450,2022_Oct_25_1043,Experiment,2021.1.4,359.9737939112416,
images\S1_F_S_02.png,images\S1_F_S_02_scrambled.png,1,sad,-20,female,2,,185,on,2,0.5,0.75,0.5,0.858,3,184,1,1,1,2,2,32,128,162,,,,,,0,8,8,8,,,,,,,,,,,,,,,,,,,,,,,,,,,,,,,,,,,,,,,,,,,,,,,,,,,,,,,,,196.07990960000006,196.57977599999958,196.57977599999958,197.33513949999997,197.33513949999997,197.83774549999998,197.83774549999998,198.70136339999954,198.70136339999954,None,num_6,0.2692782999993142,198.70136339999954,None,happy,0,Sad,198.97905653999996,None,None,198.97905653999996,None,,,,,,,,,,,,,,,,,,,,,,,,,,,,,,,,,,,,,,,,,,,,,,,,,,,,,30,001,0,24,500,450,2022_Oct_25_1043,Experiment,2021.1.4,359.9737939112416,
images\S10_M_S_01.png,images\S10_M_S_01_scrambled.png,10,sad,-10,male,3,,358,on,2,0.5,0.75,0.5,0.796,3,357,2,1,1,2,2,32,128,163,,,,,,0,9,9,9,,,,,,,,,,,,,,,,,,,,,,,,,,,,,,,,,,,,,,,,,,,,,,,,,,,,,,,,,199.04289739999967,199.54553690000012,199.54553690000012,200.29527899999994,200.29527899999994,200.8007250999999,200.8007250999999,201.60048629999983,201.60048629999983,None,num_6,0.31407450000006065,201.60048629999983,None,happy,0,Sad,201.91979925999965,None,None,201.91979925999965,None,,,,,,,,,,,,,,,,,,,,,,,,,,,,,,,,,,,,,,,,,,,,,,,,,,,,,30,001,0,24,500,450,2022_Oct_25_1043,Experiment,2021.1.4,359.9737939112416,
images\S10_M_H_01.png,images\S10_M_H_01_scrambled.png,10,happy,10,male,4,,235,on,2,0.5,0.75,0.5,0.913,3,234,3,2,1,2,2,32,128,164,,,,,,0,10,10,10,,,,,,,,,,,,,,,,,,,,,,,,,,,,,,,,,,,,,,,,,,,,,,,,,,,,,,,,,202.00309560000005,202.50293929999953,202.50293929999953,203.2527227999999,203.2527227999999,203.75535909999962,203.75535909999962,204.67463749999933,204.67463749999933,None,num_6,0.23994599999969068,204.67463749999933,None,happy,0,Happy,204.9299677200004,None,None,204.9299677200004,None,,,,,,,,,,,,,,,,,,,,,,,,,,,,,,,,,,,,,,,,,,,,,,,,,,,,,30,001,0,24,500,450,2022_Oct_25_1043,Experiment,2021.1.4,359.9737939112416,
images\S8_M_H_03.png,images\S8_M_H_03_scrambled.png,8,happy,30,male,6,,165,off,1,0.5,0.75,0.5,0.838,3,164,1,1,1,0,0,0,0,6,,,,,,0,11,11,11,,,,,,,,,,,,,,,,,,,,,,,,,,,,,,,,,,,,,,,,,,,,,,,,,,,,,,,,,205.0132819999999,205.51590739999938,205.51590739999938,206.26567419999992,206.26567419999992,206.76833350000015,206.76833350000015,207.6069252999996,207.6069252999996,None,num_6,0.25194509999982984,207.6069252999996,None,happy,0,Happy,207.87085412000013,None,None,207.87085412000013,None,,,,,,,,,,,,,,,,,,,,,,,,,,,,,,,,,,,,,,,,,,,,,,,,,,,,,30,001,0,24,500,450,2022_Oct_25_1043,Experiment,2021.1.4,359.9737939112416,
images\S9_F_H_01.png,images\S9_F_H_01_scrambled.png,9,happy,10,female,4,,409,off,1,0.5,0.75,0.5,0.886,3,408,2,1,1,0,0,0,0,4,,,,,,0,12,12,12,,,,,,,,,,,,,,,,,,,,,,,,,,,,,,,,,,,,,,,,,,,,,,,,,,,,,,,,,207.9845882999998,208.49006989999998,208.49006989999998,209.24255509999966,209.24255509999966,209.74520930000017,209.74520930000017,210.63099359999978,210.63099359999978,None,num_6,0.21200109999972483,210.63099359999978,None,happy,0,Happy,210.85590672000015,None,None,210.85590672000015,None,,,,,,,,,,,,,,,,,,,,,,,,,,,,,,,,,,,,,,,,,,,,,,,,,,,,,30,001,0,24,500,450,2022_Oct_25_1043,Experiment,2021.1.4,359.9737939112416,
images\S2_M_H_01.png,images\S2_M_H_01_scrambled.png,2,happy,10,male,4,,307,on,2,0.5,0.75,0.5,0.856,3,306,1,1,2,2,2,32,128,164,,,,,,0,13,13,13,,,,,,,,,,,,,,,,,,,,,,,,,,,,,,,,,,,,,,,,,,,,,,,,,,,,,,,,,210.96700839999994,211.46684829999958,211.46684829999958,212.2194196999999,212.2194196999999,212.72491290000016,212.72491290000016,213.58568819999982,213.58568819999982,None,num_4,0.4093387000002622,213.58568819999982,None,sad,0,Happy,214.00497163999998,None,None,214.00497163999998,None,,,,,,,,,,,,,,,,,,,,,,,,,,,,,,,,,,,,,,,,,,,,,,,,,,,,,30,001,0,24,500,450,2022_Oct_25_1043,Experiment,2021.1.4,359.9737939112416,
images\S3_F_H_01.png,images\S3_F_H_01_scrambled.png,3,happy,10,female,4,,253,off,1,0.5,0.75,0.5,0.776,3,252,1,1,3,0,0,0,0,4,,,,,,0,14,14,14,,,,,,,,,,,,,,,,,,,,,,,,,,,,,,,,,,,,,,,,,,,,,,,,,,,,,,,,,214.11604259999967,214.62146080000002,214.62146080000002,215.37410949999958,215.37410949999958,215.87386090000018,215.87386090000018,216.65428579999934,216.65428579999934,None,num_6,0.5243880999996691,216.65428579999934,None,happy,0,Happy,217.19285581999955,None,None,217.19285581999955,None,,,,,,,,,,,,,,,,,,,,,,,,,,,,,,,,,,,,,,,,,,,,,,,,,,,,,30,001,0,24,500,450,2022_Oct_25_1043,Experiment,2021.1.4,359.9737939112416,
images\S8_M_S_01.png,images\S8_M_S_01_scrambled.png,8,sad,-10,male,3,,526,off,1,0.5,0.75,0.5,0.844,3,525,2,1,1,0,0,0,0,3,,,,,,0,15,15,15,,,,,,,,,,,,,,,,,,,,,,,,,,,,,,,,,,,,,,,,,,,,,,,,,,,,,,,,,217.30116459999954,217.80659229999947,217.80659229999947,218.56189949999953,218.56189949999953,219.06173579999995,219.06173579999995,219.91151119999995,219.91151119999995,None,num_6,0.7470776000000114,219.91151119999995,None,happy,0,Sad,220.66680156000018,None,None,220.66680156000018,None,,,,,,,,,,,,,,,,,,,,,,,,,,,,,,,,,,,,,,,,,,,,,,,,,,,,,30,001,0,24,500,450,2022_Oct_25_1043,Experiment,2021.1.4,359.9737939112416,
images\S8_M_H_01.png,images\S8_M_H_01_scrambled.png,8,happy,10,male,4,,43,off,1,0.5,0.75,0.5,0.837,3,42,3,2,1,0,0,0,0,4,,,,,,0,16,16,16,,,,,,,,,,,,,,,,,,,,,,,,,,,,,,,,,,,,,,,,,,,,,,,,,,,,,,,,,220.77510669999992,221.27498930000002,221.27498930000002,222.0247417999999,222.0247417999999,222.53017,222.53017,223.37154969999938,223.37154969999938,None,num_6,0.4947621999999683,223.37154969999938,None,happy,0,Happy,223.87971522000024,None,None,223.87971522000024,None,,,,,,,,,,,,,,,,,,,,,,,,,,,,,,,,,,,,,,,,,,,,,,,,,,,,,30,001,0,24,500,450,2022_Oct_25_1043,Experiment,2021.1.4,359.9737939112416,
images\S1_F_S_02.png,images\S1_F_S_02_scrambled.png,1,sad,-20,female,2,,65,on,2,0.5,0.75,0.5,0.922,3,64,1,1,1,2,2,32,128,162,,,,,,0,17,17,17,,,,,,,,,,,,,,,,,,,,,,,,,,,,,,,,,,,,,,,,,,,,,,,,,,,,,,,,,223.92692389999957,224.4296628000002,224.4296628000002,225.18494800000008,225.18494800000008,225.6903070999997,225.6903070999997,226.6150480999995,226.6150480999995,None,num_4,0.7635465999992448,226.6150480999995,None,sad,0,Sad,227.39252792000005,None,None,227.39252792000005,None,,,,,,,,,,,,,,,,,,,,,,,,,,,,,,,,,,,,,,,,,,,,,,,,,,,,,30,001,0,24,500,450,2022_Oct_25_1043,Experiment,2021.1.4,359.9737939112416,
images\S4_M_H_01.png,images\S4_M_H_01_scrambled.png,4,happy,10,male,4,,79,on,2,0.5,0.75,0.5,0.943,3,78,2,1,1,2,2,32,128,164,,,,,,0,18,18,18,,,,,,,,,,,,,,,,,,,,,,,,,,,,,,,,,,,,,,,,,,,,,,,,,,,,,,,,,227.4758310999996,227.98125359999995,227.98125359999995,228.7337749999997,228.7337749999997,229.23639189999994,229.23639189999994,230.1861272999995,230.1861272999995,None,num_4,0.3044542999996338,230.1861272999995,None,sad,0,Happy,230.50264293999962,None,None,230.50264293999962,None,,,,,,,,,,,,,,,,,,,,,,,,,,,,,,,,,,,,,,,,,,,,,,,,,,,,,30,001,0,24,500,450,2022_Oct_25_1043,Experiment,2021.1.4,359.9737939112416,
images\S10_M_H_02.png,images\S10_M_H_02_scrambled.png,10,happy,20,male,5,,596,on,2,0.5,0.75,0.5,0.94,3,595,3,1,1,2,2,32,128,165,,,,,,0,19,19,19,,,,,,,,,,,,,,,,,,,,,,,,,,,,,,,,,,,,,,,,,,,,,,,,,,,,,,,,,230.59155589999955,231.09426910000002,231.09426910000002,231.84393099999943,231.84393099999943,232.3438030999996,232.3438030999996,233.28792889999932,233.28792889999932,None,num_6,0.2667082999996637,233.28792889999932,None,happy,0,Happy,233.57952963999978,None,None,233.57952963999978,None,,,,,,,,,,,,,,,,,,,,,,,,,,,,,,,,,,,,,,,,,,,,,,,,,,,,,30,001,0,24,500,450,2022_Oct_25_1043,Experiment,2021.1.4,359.9737939112416,
images\S2_M_S_03.png,images\S2_M_S_03_scrambled.png,2,sad,-30,male,1,,312,on,2,0.5,0.75,0.5,0.95,3,311,4,1,1,2,2,32,128,161,,,,,,0,20,20,20,,,,,,,,,,,,,,,,,,,,,,,,,,,,,,,,,,,,,,,,,,,,,,,,,,,,,,,,,233.69885749999958,234.20156570000017,234.20156570000017,234.9541137999995,234.9541137999995,235.45962770000006,235.45962770000006,236.4119928,236.4119928,None,num_4,0.2948561000002883,236.4119928,None,sad,0,Sad,236.73412722000037,None,None,236.73412722000037,None,,,,,,,,,,,,,,,,,,,,,,,,,,,,,,,,,,,,,,,,,,,,,,,,,,,,,30,001,0,24,500,450,2022_Oct_25_1043,Experiment,2021.1.4,359.9737939112416,
images\S1_F_H_02.png,images\S1_F_H_02_scrambled.png,1,happy,20,female,5,,122,off,1,0.5,0.75,0.5,0.751,3,121,1,1,1,0,0,0,0,5,,,,,,0,21,21,21,,,,,,,,,,,,,,,,,,,,,,,,,,,,,,,,,,,,,,,,,,,,,,,,,,,,,,,,,236.8257397999996,237.33116119999977,237.33116119999977,238.0837217999997,238.0837217999997,238.5863018,238.5863018,239.34165539999958,239.34165539999958,None,num_6,0.24532490000001417,239.34165539999958,None,happy,0,Happy,239.61655822000037,None,None,239.61655822000037,None,,,,,,,,,,,,,,,,,,,,,,,,,,,,,,,,,,,,,,,,,,,,,,,,,,,,,30,001,0,24,500,450,2022_Oct_25_1043,Experiment,2021.1.4,359.9737939112416,
images\S8_M_S_02.png,images\S8_M_S_02_scrambled.png,8,sad,-20,male,2,,47,off,1,0.5,0.75,0.5,0.884,3,46,2,1,1,0,0,0,0,2,,,,,,0,22,22,22,,,,,,,,,,,,,,,,,,,,,,,,,,,,,,,,,,,,,,,,,,,,,,,,,,,,,,,,,239.72761829999945,240.23023980000016,240.23023980000016,240.98001229999954,240.98001229999954,241.48268009999993,241.48268009999993,242.36851389999993,242.36851389999993,None,num_4,0.3707576999995581,242.36851389999993,None,sad,0,Sad,242.7629350599999,None,None,242.7629350599999,None,,,,,,,,,,,,,,,,,,,,,,,,,,,,,,,,,,,,,,,,,,,,,,,,,,,,,30,001,0,24,500,450,2022_Oct_25_1043,Experiment,2021.1.4,359.9737939112416,
images\blank.jpg,images\blank.jpg,none,none,none,none,0,,622,on,2,0.5,0.75,0.5,0.763,0,621,1,1,1,3,3,48,192,240,,,,,,0,23,23,23,,,,,,,,,,,,,,,,,,,,,,,,,,,,,,,,,,,,,,,,,,,,,,,,,,,,,,,,,242.84914799999933,243.35150329999942,243.35150329999942,244.10407469999973,244.10407469999973,244.6095519999999,244.6095519999999,245.37880119999954,245.37880119999954,245.37880119999954,None,,245.37880119999954,None,miss,0,,248.38058017999964,None,None,248.38058017999964,None,,,,,,,,,,,,,,,,,,,,,,,,,,,,,,,,,,,,,,,,,,,,,,,,,,,,,30,001,0,24,500,450,2022_Oct_25_1043,Experiment,2021.1.4,359.9737939112416,
images\S2_M_S_01.png,images\S2_M_S_01_scrambled.png,2,sad,-10,male,3,,250,off,1,0.5,0.75,0.5,0.778,3,249,1,1,1,0,0,0,0,3,,,,,,0,24,24,24,,,,,,,,,,,,,,,,,,,,,,,,,,,,,,,,,,,,,,,,,,,,,,,,,,,,,,,,,248.54463059999944,249.04697289999967,249.04697289999967,249.79966819999936,249.79966819999936,250.29939579999973,250.29939579999973,251.07980809999935,251.07980809999935,None,num_6,0.2748301999999967,251.07980809999935,248.54463059999944,happy,0,Sad,251.36575815999947,None,None,251.36575815999947,None,,,,,,,,,,,,,,,,,,,,,,,,,,,,,,,,,,,,,,,,,,,,,,,,,,,,,30,001,0,24,500,450,2022_Oct_25_1043,Experiment,2021.1.4,359.9737939112416,
images\S1_F_S_01.png,images\S1_F_S_01_scrambled.png,1,sad,-10,female,3,,184,on,2,0.5,0.75,0.5,0.826,3,183,1,1,2,2,2,32,128,163,,,,,,0,25,25,25,,,,,,,,,,,,,,,,,,,,,,,,,,,,,,,,,,,,,,,,,,,,,,,,,,,,,,,,,251.42135150000013,251.92400439999983,251.92400439999983,252.67928909999955,252.67928909999955,253.1847028000002,253.1847028000002,254.0149438999997,254.0149438999997,None,num_6,0.4114292000003843,254.0149438999997,None,happy,0,Sad,254.4342138599999,None,None,254.4342138599999,None,,,,,,,,,,,,,,,,,,,,,,,,,,,,,,,,,,,,,,,,,,,,,,,,,,,,,30,001,0,24,500,450,2022_Oct_25_1043,Experiment,2021.1.4,359.9737939112416,
images\S5_F_S_01.png,images\S5_F_S_01_scrambled.png,5,sad,-10,female,3,,328,on,2,0.5,0.75,0.5,0.774,3,327,2,1,3,2,2,32,128,163,,,,,,0,26,26,26,,,,,,,,,,,,,,,,,,,,,,,,,,,,,,,,,,,,,,,,,,,,,,,,,,,,,,,,,254.54251449999992,255.04515609999999,255.04515609999999,255.7949440000002,255.7949440000002,256.30035399999997,256.30035399999997,257.0806511999999,257.0806511999999,None,num_6,0.3058129999999437,257.0806511999999,None,happy,0,Sad,257.3944074599998,None,None,257.3944074599998,None,,,,,,,,,,,,,,,,,,,,,,,,,,,,,,,,,,,,,,,,,,,,,,,,,,,,,30,001,0,24,500,450,2022_Oct_25_1043,Experiment,2021.1.4,359.9737939112416,
images\S7_F_H_03.png,images\S7_F_H_03_scrambled.png,7,happy,30,female,6,,579,on,2,0.5,0.75,0.5,0.814,3,578,3,1,1,2,2,32,128,166,,,,,,0,27,27,27,,,,,,,,,,,,,,,,,,,,,,,,,,,,,,,,,,,,,,,,,,,,,,,,,,,,,,,,,257.50550289999956,258.00534699999935,258.00534699999935,258.7551070999998,258.7551070999998,259.2605403999996,259.2605403999996,260.0797954999998,260.0797954999998,None,num_6,0.3308028000001286,260.0797954999998,None,happy,0,Happy,260.4407366000005,None,None,260.4407366000005,None,,,,,,,,,,,,,,,,,,,,,,,,,,,,,,,,,,,,,,,,,,,,,,,,,,,,,30,001,0,24,500,450,2022_Oct_25_1043,Experiment,2021.1.4,359.9737939112416,
images\S6_M_H_03.png,images\S6_M_H_03_scrambled.png,6,happy,30,male,6,,153,off,1,0.5,0.75,0.5,0.894,3,152,1,1,2,0,0,0,0,6,,,,,,0,28,28,28,,,,,,,,,,,,,,,,,,,,,,,,,,,,,,,,,,,,,,,,,,,,,,,,,,,,,,,,,260.5490162999995,261.0516484,261.0516484,261.8069706999995,261.8069706999995,262.30971020000015,262.30971020000015,263.20655290000013,263.20655290000013,None,num_6,0.5159781000002113,263.20655290000013,None,happy,0,Happy,263.73415191999976,None,None,263.73415191999976,None,,,,,,,,,,,,,,,,,,,,,,,,,,,,,,,,,,,,,,,,,,,,,,,,,,,,,30,001,0,24,500,450,2022_Oct_25_1043,Experiment,2021.1.4,359.9737939112416,
images\S4_M_H_03.png,images\S4_M_H_03_scrambled.png,4,happy,30,male,6,,21,off,1,0.5,0.75,0.5,0.832,3,20,2,1,3,0,0,0,0,6,,,,,,0,29,29,29,,,,,,,,,,,,,,,,,,,,,,,,,,,,,,,,,,,,,,,,,,,,,,,,,,,,,,,,,263.82022099999995,264.32284979999986,264.32284979999986,265.0754374999997,265.0754374999997,265.57801949999975,265.57801949999975,266.41666499999974,266.41666499999974,None,num_6,0.5142482999999629,266.41666499999974,None,happy,0,Happy,266.9526038600005,None,None,266.9526038600005,None,,,,,,,,,,,,,,,,,,,,,,,,,,,,,,,,,,,,,,,,,,,,,,,,,,,,,30,001,0,24,500,450,2022_Oct_25_1043,Experiment,2021.1.4,359.9737939112416,
images\S10_M_H_01.png,images\S10_M_H_01_scrambled.png,10,happy,10,male,4,,535,off,1,0.5,0.75,0.5,0.797,3,534,3,1,1,0,0,0,0,4,,,,,,0,30,30,30,,,,,,,,,,,,,,,,,,,,,,,,,,,,,,,,,,,,,,,,,,,,,,,,,,,,,,,,,267.0081332999998,267.5136668999994,267.5136668999994,268.2660743999995,268.2660743999995,268.7687298999999,268.7687298999999,269.5656829999998,269.5656829999998,None,num_6,0.3969254000003275,269.5656829999998,None,happy,0,Happy,269.97665321999995,None,None,269.97665321999995,None,,,,,,,,,,,,,,,,,,,,,,,,,,,,,,,,,,,,,,,,,,,,,,,,,,,,,30,001,0,24,500,450,2022_Oct_25_1043,Experiment,2021.1.4,359.9737939112416,
images\S5_F_H_03.png,images\S5_F_H_03_scrambled.png,5,happy,30,female,6,,387,off,1,0.5,0.75,0.5,0.925,3,386,4,1,1,0,0,0,0,6,,,,,,0,31,31,31,,,,,,,,,,,,,,,,,,,,,,,,,,,,,,,,,,,,,,,,,,,,,,,,,,,,,,,,,270.0599818999999,270.5626066999994,270.5626066999994,271.31514679999964,271.31514679999964,271.8205803000001,271.8205803000001,272.75085149999995,272.75085149999995,None,num_6,0.39628410000022996,272.75085149999995,None,happy,0,Happy,273.16743588000026,None,None,273.16743588000026,None,,,,,,,,,,,,,,,,,,,,,,,,,,,,,,,,,,,,,,,,,,,,,,,,,,,,,30,001,0,24,500,450,2022_Oct_25_1043,Experiment,2021.1.4,359.9737939112416,
images\S1_F_S_01.png,images\S1_F_S_01_scrambled.png,1,sad,-10,female,3,,244,off,1,0.5,0.75,0.5,0.818,3,243,5,1,1,0,0,0,0,3,,,,,,0,32,32,32,,,,,,,,,,,,,,,,,,,,,,,,,,,,,,,,,,,,,,,,,,,,,,,,,,,,,,,,,273.2201043999994,273.71995809999953,273.71995809999953,274.47533269999985,274.47533269999985,274.9807258999999,274.9807258999999,275.8054704999995,275.8054704999995,None,num_6,0.42912280000018654,275.8054704999995,None,happy,0,Sad,276.2441609599995,None,None,276.2441609599995,None,,,,,,,,,,,,,,,,,,,,,,,,,,,,,,,,,,,,,,,,,,,,,,,,,,,,,30,001,0,24,500,450,2022_Oct_25_1043,Experiment,2021.1.4,359.9737939112416,
images\S10_M_S_03.png,images\S10_M_S_03_scrambled.png,10,sad,-30,male,1,,180,off,1,0.5,0.75,0.5,0.904,3,179,6,1,1,0,0,0,0,1,,,,,,0,33,33,33,,,,,,,,,,,,,,,,,,,,,,,,,,,,,,,,,,,,,,,,,,,,,,,,,,,,,,,,,276.33027260000017,276.83570859999963,276.83570859999963,277.5882563999994,277.5882563999994,278.0908793999997,278.0908793999997,279.00169619999997,279.00169619999997,None,num_4,0.29693090000000666,279.00169619999997,None,sad,0,Sad,279.31267792,None,None,279.31267792,None,,,,,,,,,,,,,,,,,,,,,,,,,,,,,,,,,,,,,,,,,,,,,,,,,,,,,30,001,0,24,500,450,2022_Oct_25_1043,Experiment,2021.1.4,359.9737939112416,
images\S7_F_S_01.png,images\S7_F_S_01_scrambled.png,7,sad,-10,female,3,,460,on,2,0.5,0.75,0.5,0.865,3,459,1,1,1,2,2,32,128,163,,,,,,0,34,34,34,,,,,,,,,,,,,,,,,,,,,,,,,,,,,,,,,,,,,,,,,,,,,,,,,,,,,,,,,279.3987763999994,279.9014261000002,279.9014261000002,280.6567404999996,280.6567404999996,281.1594710999998,281.1594710999998,282.0313304000001,282.0313304000001,None,num_4,0.6193733999998585,282.0313304000001,None,sad,0,Sad,282.66445431999983,None,None,282.66445431999983,None,,,,,,,,,,,,,,,,,,,,,,,,,,,,,,,,,,,,,,,,,,,,,,,,,,,,,30,001,0,24,500,450,2022_Oct_25_1043,Experiment,2021.1.4,359.9737939112416,
images\S1_F_H_02.png,images\S1_F_H_02_scrambled.png,1,happy,20,female,5,,62,on,2,0.5,0.75,0.5,0.788,3,61,2,1,1,2,2,32,128,165,,,,,,0,35,35,35,,,,,,,,,,,,,,,,,,,,,,,,,,,,,,,,,,,,,,,,,,,,,,,,,,,,,,,,,282.71165070000006,283.2142641999999,283.2142641999999,283.96966879999945,283.96966879999945,284.4750791999995,284.4750791999995,285.2664472999995,285.2664472999995,None,num_6,0.2722321000001102,285.2664472999995,None,happy,0,Happy,285.5635717599997,None,None,285.5635717599997,None,,,,,,,,,,,,,,,,,,,,,,,,,,,,,,,,,,,,,,,,,,,,,,,,,,,,,30,001,0,24,500,450,2022_Oct_25_1043,Experiment,2021.1.4,359.9737939112416,
images\S7_F_H_02.png,images\S7_F_H_02_scrambled.png,7,happy,20,female,5,,518,off,1,0.5,0.75,0.5,0.906,3,517,1,1,2,0,0,0,0,5,,,,,,0,36,36,36,,,,,,,,,,,,,,,,,,,,,,,,,,,,,,,,,,,,,,,,,,,,,,,,,,,,,,,,,285.67184670000006,286.1746028999996,286.1746028999996,286.92703960000017,286.92703960000017,287.42965639999966,287.42965639999966,288.34052259999953,288.34052259999953,None,num_6,0.3261787000001277,288.34052259999953,None,happy,0,Happy,288.69036874000045,None,None,288.69036874000045,None,,,,,,,,,,,,,,,,,,,,,,,,,,,,,,,,,,,,,,,,,,,,,,,,,,,,,30,001,0,24,500,450,2022_Oct_25_1043,Experiment,2021.1.4,359.9737939112416,
images\S5_F_S_03.png,images\S5_F_S_03_scrambled.png,5,sad,-30,female,1,,330,on,2,0.5,0.75,0.5,0.788,3,329,1,1,1,2,2,32,128,161,,,,,,0,37,37,37,,,,,,,,,,,,,,,,,,,,,,,,,,,,,,,,,,,,,,,,,,,,,,,,,,,,,,,,,288.7403513999998,289.2401930999995,289.2401930999995,289.99555899999996,289.99555899999996,290.49815020000005,290.49815020000005,291.28970219999974,291.28970219999974,None,num_4,0.2569510999992417,291.28970219999974,None,sad,0,Sad,291.56455618000035,None,None,291.56455618000035,None,,,,,,,,,,,,,,,,,,,,,,,,,,,,,,,,,,,,,,,,,,,,,,,,,,,,,30,001,0,24,500,450,2022_Oct_25_1043,Experiment,2021.1.4,359.9737939112416,
images\S5_F_S_03.png,images\S5_F_S_03_scrambled.png,5,sad,-30,female,1,,150,off,1,0.5,0.75,0.5,0.826,3,149,1,2,2,0,0,0,0,1,,,,,,0,38,38,38,,,,,,,,,,,,,,,,,,,,,,,,,,,,,,,,,,,,,,,,,,,,,,,,,,,,,,,,,291.6117009999998,292.11709989999963,292.11709989999963,292.8724277000001,292.8724277000001,293.37509749999936,293.37509749999936,294.20534319999933,294.20534319999933,None,num_4,0.6132834999998522,294.20534319999933,None,sad,0,Sad,294.8301947199996,None,None,294.8301947199996,None,,,,,,,,,,,,,,,,,,,,,,,,,,,,,,,,,,,,,,,,,,,,,,,,,,,,,30,001,0,24,500,450,2022_Oct_25_1043,Experiment,2021.1.4,359.9737939112416,
images\S10_M_S_03.png,images\S10_M_S_03_scrambled.png,10,sad,-30,male,1,,300,off,1,0.5,0.75,0.5,0.874,3,299,2,1,3,0,0,0,0,1,,,,,,0,39,39,39,,,,,,,,,,,,,,,,,,,,,,,,,,,,,,,,,,,,,,,,,,,,,,,,,,,,,,,,,294.88023069999963,295.3800027999996,295.3800027999996,296.1297681999995,296.1297681999995,296.63520679999965,296.63520679999965,297.5154800999999,297.5154800999999,None,num_4,0.6151587999993353,297.5154800999999,None,sad,0,Sad,298.1485814200003,None,None,298.1485814200003,None,,,,,,,,,,,,,,,,,,,,,,,,,,,,,,,,,,,,,,,,,,,,,,,,,,,,,30,001,0,24,500,450,2022_Oct_25_1043,Experiment,2021.1.4,359.9737939112416,
images\S8_M_S_02.png,images\S8_M_S_02_scrambled.png,8,sad,-20,male,2,,467,on,2,0.5,0.75,0.5,0.86,3,466,1,1,1,2,2,32,128,162,,,,,,0,40,40,40,,,,,,,,,,,,,,,,,,,,,,,,,,,,,,,,,,,,,,,,,,,,,,,,,,,,,,,,,298.1957849999999,298.6956252,298.6956252,299.44816660000015,299.44816660000015,299.95083149999937,299.95083149999937,300.8172193999999,300.8172193999999,None,num_4,0.3536125999999058,300.8172193999999,None,sad,0,Sad,301.1811185200002,None,None,301.1811185200002,None,,,,,,,,,,,,,,,,,,,,,,,,,,,,,,,,,,,,,,,,,,,,,,,,,,,,,30,001,0,24,500,450,2022_Oct_25_1043,Experiment,2021.1.4,359.9737939112416,
images\S7_F_S_02.png,images\S7_F_S_02_scrambled.png,7,sad,-20,female,2,,221,on,2,0.5,0.75,0.5,0.787,3,220,2,1,2,2,2,32,128,162,,,,,,0,41,41,41,,,,,,,,,,,,,,,,,,,,,,,,,,,,,,,,,,,,,,,,,,,,,,,,,,,,,,,,,301.26705630000015,301.7697088999994,301.7697088999994,302.5222477999996,302.5222477999996,303.0249662999995,303.0249662999995,303.8163058,303.8163058,None,num_6,0.8348831000002974,303.8163058,None,happy,0,Sad,304.6661716399995,None,None,304.6661716399995,None,,,,,,,,,,,,,,,,,,,,,,,,,,,,,,,,,,,,,,,,,,,,,,,,,,,,,30,001,0,24,500,450,2022_Oct_25_1043,Experiment,2021.1.4,359.9737939112416,
images\S10_M_H_02.png,images\S10_M_H_02_scrambled.png,10,happy,20,male,5,,416,off,1,0.5,0.75,0.5,0.827,3,415,1,1,1,0,0,0,0,5,,,,,,0,42,42,42,,,,,,,,,,,,,,,,,,,,,,,,,,,,,,,,,,,,,,,,,,,,,,,,,,,,,,,,,304.72988540000006,305.2353235999999,305.2353235999999,305.99062479999975,305.99062479999975,306.4960353999995,306.4960353999995,307.3263073999997,307.3263073999997,None,num_6,0.4527934000007008,307.3263073999997,None,happy,0,Happy,307.8039238400002,None,None,307.8039238400002,None,,,,,,,,,,,,,,,,,,,,,,,,,,,,,,,,,,,,,,,,,,,,,,,,,,,,,30,001,0,24,500,450,2022_Oct_25_1043,Experiment,2021.1.4,359.9737939112416,
images\S10_M_S_01.png,images\S10_M_S_01_scrambled.png,10,sad,-10,male,3,,418,off,1,0.5,0.75,0.5,0.842,3,417,2,2,1,0,0,0,0,3,,,,,,0,43,43,43,,,,,,,,,,,,,,,,,,,,,,,,,,,,,,,,,,,,,,,,,,,,,,,,,,,,,,,,,307.8567089999997,308.36212329999944,308.36212329999944,309.1147805999999,309.1147805999999,309.6201123000001,309.6201123000001,310.46435399999973,310.46435399999973,None,num_6,0.4582589999999982,310.46435399999973,None,happy,0,Sad,310.9307396600001,None,None,310.9307396600001,None,,,,,,,,,,,,,,,,,,,,,,,,,,,,,,,,,,,,,,,,,,,,,,,,,,,,,30,001,0,24,500,450,2022_Oct_25_1043,Experiment,2021.1.4,359.9737939112416,
images\S4_M_S_03.png,images\S4_M_S_03_scrambled.png,4,sad,-30,male,1,,204,on,2,0.5,0.75,0.5,0.846,3,203,1,1,1,2,2,32,128,161,,,,,,0,44,44,44,,,,,,,,,,,,,,,,,,,,,,,,,,,,,,,,,,,,,,,,,,,,,,,,,,,,,,,,,311.01684639999985,311.51960189999954,311.51960189999954,312.27487239999937,312.27487239999937,312.7802529999999,312.7802529999999,313.63001649999933,313.63001649999933,None,num_4,0.012677200000325684,313.63001649999933,None,sad,0,Sad,313.6688835599997,None,None,313.6688835599997,None,,,,,,,,,,,,,,,,,,,,,,,,,,,,,,,,,,,,,,,,,,,,,,,,,,,,,30,001,0,24,500,450,2022_Oct_25_1043,Experiment,2021.1.4,359.9737939112416,
images\S8_M_S_03.png,images\S8_M_S_03_scrambled.png,8,sad,-30,male,1,,408,off,1,0.5,0.75,0.5,0.89,3,407,1,1,2,0,0,0,0,1,,,,,,0,45,45,45,,,,,,,,,,,,,,,,,,,,,,,,,,,,,,,,,,,,,,,,,,,,,,,,,,,,,,,,,313.78265180000017,314.2852783999997,314.2852783999997,315.04063529999985,315.04063529999985,315.54328499999974,315.54328499999974,316.4402313999999,316.4402313999999,None,num_4,0.25059970000074827,316.4402313999999,None,sad,0,Sad,316.7039812199999,None,None,316.7039812199999,None,,,,,,,,,,,,,,,,,,,,,,,,,,,,,,,,,,,,,,,,,,,,,,,,,,,,,30,001,0,24,500,450,2022_Oct_25_1043,Experiment,2021.1.4,359.9737939112416,
images\S10_M_H_02.png,images\S10_M_H_02_scrambled.png,10,happy,20,male,5,,116,on,2,0.5,0.75,0.5,0.778,3,115,1,1,1,2,2,32,128,165,,,,,,0,46,46,46,,,,,,,,,,,,,,,,,,,,,,,,,,,,,,,,,,,,,,,,,,,,,,,,,,,,,,,,,316.7511982999995,317.2510335999996,317.2510335999996,318.00080459999936,318.00080459999936,318.5006561,318.5006561,319.28099250000014,319.28099250000014,None,num_6,0.32976500000040687,319.28099250000014,None,happy,0,Happy,319.6253347199998,None,None,319.6253347199998,None,,,,,,,,,,,,,,,,,,,,,,,,,,,,,,,,,,,,,,,,,,,,,,,,,,,,,30,001,0,24,500,450,2022_Oct_25_1043,Experiment,2021.1.4,359.9737939112416,
images\S1_F_H_01.png,images\S1_F_H_01_scrambled.png,1,happy,10,female,4,,61,on,2,0.5,0.75,0.5,0.779,3,60,2,1,1,2,2,32,128,164,,,,,,0,47,47,47,,,,,,,,,,,,,,,,,,,,,,,,,,,,,,,,,,,,,,,,,,,,,,,,,,,,,,,,,319.70583929999975,320.20845969999937,320.20845969999937,320.9582306000002,320.9582306000002,321.46089739999934,321.46089739999934,322.2440848999995,322.2440848999995,None,num_6,2.870589999999538,322.2440848999995,None,happy,0,Happy,325.13197571999973,None,None,325.13197571999973,None,,,,,,,,,,,,,,,,,,,,,,,,,,,,,,,,,,,,,,,,,,,,,,,,,,,,,30,001,0,24,500,450,2022_Oct_25_1043,Experiment,2021.1.4,359.9737939112416,
images\S8_M_S_03.png,images\S8_M_S_03_scrambled.png,8,sad,-30,male,1,,528,off,1,0.5,0.75,0.5,0.804,3,527,1,1,1,0,0,0,0,1,,,,,,0,48,48,48,,,,,,,,,,,,,,,,,,,,,,,,,,,,,,,,,,,,,,,,,,,,,,,,,,,,,,,,,325.1791604,325.68456849999984,325.68456849999984,326.43989129999954,326.43989129999954,326.9397266999995,326.9397266999995,327.7478551999993,327.7478551999993,None,num_4,0.5107850000003964,327.7478551999993,None,sad,0,Sad,328.27264092000024,None,None,328.27264092000024,None,,,,,,,,,,,,,,,,,,,,,,,,,,,,,,,,,,,,,,,,,,,,,,,,,,,,,30,001,0,24,500,450,2022_Oct_25_1043,Experiment,2021.1.4,359.9737939112416,
images\S8_M_S_02.png,images\S8_M_S_02_scrambled.png,8,sad,-20,male,2,,407,off,1,0.5,0.75,0.5,0.838,3,406,2,2,1,0,0,0,0,2,,,,,,0,49,49,49,,,,,,,,,,,,,,,,,,,,,,,,,,,,,,,,,,,,,,,,,,,,,,,,,,,,,,,,,328.3198689000001,328.8224823999999,328.8224823999999,329.5778094999996,329.5778094999996,330.0804346999994,330.0804346999994,330.9219893999998,330.9219893999998,None,num_4,0.5927297999996881,330.9219893999998,None,sad,0,Sad,331.52719161999977,None,None,331.52719161999977,None,,,,,,,,,,,,,,,,,,,,,,,,,,,,,,,,,,,,,,,,,,,,,,,,,,,,,30,001,0,24,500,450,2022_Oct_25_1043,Experiment,2021.1.4,359.9737939112416,
images\S3_F_S_01.png,images\S3_F_S_01_scrambled.png,3,sad,-10,female,3,,376,off,1,0.5,0.75,0.5,0.793,3,375,3,1,1,0,0,0,0,3,,,,,,0,50,50,50,,,,,,,,,,,,,,,,,,,,,,,,,,,,,,,,,,,,,,,,,,,,,,,,,,,,,,,,,331.6132981999999,332.1160476999994,332.1160476999994,332.8713461999996,332.8713461999996,333.3710839999994,333.3710839999994,334.1708533000001,334.1708533000001,None,num_4,0.5116772999999739,334.1708533000001,None,sad,0,Sad,334.69292712000043,None,None,334.69292712000043,None,,,,,,,,,,,,,,,,,,,,,,,,,,,,,,,,,,,,,,,,,,,,,,,,,,,,,30,001,0,24,500,450,2022_Oct_25_1043,Experiment,2021.1.4,359.9737939112416,
images\S4_M_H_02.png,images\S4_M_H_02_scrambled.png,4,happy,20,male,5,,560,on,2,0.5,0.75,0.5,0.787,3,559,1,1,1,2,2,32,128,165,,,,,,0,51,51,51,,,,,,,,,,,,,,,,,,,,,,,,,,,,,,,,,,,,,,,,,,,,,,,,,,,,,,,,,334.7428885999998,335.24831600000016,335.24831600000016,336.0008625999999,336.0008625999999,336.50349069999993,336.50349069999993,337.29493379999985,337.29493379999985,None,num_6,0.47553700000025856,337.29493379999985,None,happy,0,Happy,337.78641192000015,None,None,337.78641192000015,None,,,,,,,,,,,,,,,,,,,,,,,,,,,,,,,,,,,,,,,,,,,,,,,,,,,,,30,001,0,24,500,450,2022_Oct_25_1043,Experiment,2021.1.4,359.9737939112416,
images\S4_M_H_01.png,images\S4_M_H_01_scrambled.png,4,happy,10,male,4,,139,off,1,0.5,0.75,0.5,0.91,3,138,1,2,1,0,0,0,0,4,,,,,,0,52,52,52,,,,,,,,,,,,,,,,,,,,,,,,,,,,,,,,,,,,,,,,,,,,,,,,,,,,,,,,,337.83639069999936,338.3390030999999,338.3390030999999,339.09170469999935,339.09170469999935,339.59142859999974,339.59142859999974,340.5050119999996,340.5050119999996,None,num_6,0.5536148000001049,340.5050119999996,None,happy,0,Happy,341.06875352000026,None,None,341.06875352000026,None,,,,,,,,,,,,,,,,,,,,,,,,,,,,,,,,,,,,,,,,,,,,,,,,,,,,,30,001,0,24,500,450,2022_Oct_25_1043,Experiment,2021.1.4,359.9737939112416,
images\S3_F_S_03.png,images\S3_F_S_03_scrambled.png,3,sad,-30,female,1,,378,off,1,0.5,0.75,0.5,0.876,3,377,2,1,1,0,0,0,0,1,,,,,,0,53,53,53,,,,,,,,,,,,,,,,,,,,,,,,,,,,,,,,,,,,,,,,,,,,,,,,,,,,,,,,,341.1520335999994,341.6546736999999,341.6546736999999,342.4100054999999,342.4100054999999,342.91272260000005,342.91272260000005,343.7929763000002,343.7929763000002,None,num_4,0.4575328000000809,343.7929763000002,None,sad,0,Sad,344.26224841999993,None,None,344.26224841999993,None,,,,,,,,,,,,,,,,,,,,,,,,,,,,,,,,,,,,,,,,,,,,,,,,,,,,,30,001,0,24,500,450,2022_Oct_25_1043,Experiment,2021.1.4,359.9737939112416,
images\blank.jpg,images\blank.jpg,none,none,none,none,0,,618,on,2,0.5,0.75,0.5,0.947,0,617,1,1,1,3,3,48,192,240,,,,,,0,54,54,54,,,,,,,,,,,,,,,,,,,,,,,,,,,,,,,,,,,,,,,,,,,,,,,,,,,,,,,,,344.34572339999977,344.8481293999994,344.8481293999994,345.59790220000014,345.59790220000014,346.1033470000002,346.1033470000002,347.0530619000001,347.0530619000001,347.0530619000001,None,,347.0530619000001,None,miss,0,,350.05209678,None,None,350.05209678,None,,,,,,,,,,,,,,,,,,,,,,,,,,,,,,,,,,,,,,,,,,,,,,,,,,,,,30,001,0,24,500,450,2022_Oct_25_1043,Experiment,2021.1.4,359.9737939112416,
images\S8_M_H_02.png,images\S8_M_H_02_scrambled.png,8,happy,20,male,5,,404,off,1,0.5,0.75,0.5,0.795,3,403,1,1,1,0,0,0,0,5,,,,,,0,55,55,55,,,,,,,,,,,,,,,,,,,,,,,,,,,,,,,,,,,,,,,,,,,,,,,,,,,,,,,,,350.20491539999966,350.7046501999994,350.7046501999994,351.46001669999987,351.46001669999987,351.96264209999936,351.96264209999936,352.75958939999964,352.75958939999964,None,num_6,0.35508519999984856,352.75958939999964,350.20491539999966,happy,0,Happy,353.1289117200002,None,None,353.1289117200002,None,,,,,,,,,,,,,,,,,,,,,,,,,,,,,,,,,,,,,,,,,,,,,,,,,,,,,30,001,0,24,500,450,2022_Oct_25_1043,Experiment,2021.1.4,359.9737939112416,
images\S7_F_H_02.png,images\S7_F_H_02_scrambled.png,7,happy,20,female,5,,338,on,2,0.5,0.75,0.5,0.816,3,337,1,1,2,2,2,32,128,165,,,,,,0,56,56,56,,,,,,,,,,,,,,,,,,,,,,,,,,,,,,,,,,,,,,,,,,,,,,,,,,,,,,,,,353.1789007999996,353.6815311999999,353.6815311999999,354.4313014999998,354.4313014999998,354.93400549999933,354.93400549999933,355.7532309999997,355.7532309999997,None,num_6,0.48932129999957397,355.7532309999997,None,happy,0,Happy,356.25301492,None,None,356.25301492,None,,,,,,,,,,,,,,,,,,,,,,,,,,,,,,,,,,,,,,,,,,,,,,,,,,,,,30,001,0,24,500,450,2022_Oct_25_1043,Experiment,2021.1.4,359.9737939112416,
images\S6_M_H_01.png,images\S6_M_H_01_scrambled.png,6,happy,10,male,4,,151,off,1,0.5,0.75,0.5,0.775,3,150,1,1,1,0,0,0,0,4,,,,,,0,57,57,57,,,,,,,,,,,,,,,,,,,,,,,,,,,,,,,,,,,,,,,,,,,,,,,,,,,,,,,,,356.3418137999997,356.84443439999995,356.84443439999995,357.59420259999933,357.59420259999933,358.09964599999967,358.09964599999967,358.8799623999994,358.8799623999994,None,num_6,1.2427494999992632,358.8799623999994,None,happy,0,Happy,360.13788491999986,None,None,360.13788491999986,None,,,,,,,,,,,,,,,,,,,,,,,,,,,,,,,,,,,,,,,,,,,,,,,,,,,,,30,001,0,24,500,450,2022_Oct_25_1043,Experiment,2021.1.4,359.9737939112416,
images\S8_M_S_02.png,images\S8_M_S_02_scrambled.png,8,sad,-20,male,2,,587,on,2,0.5,0.75,0.5,0.775,3,586,1,1,1,2,2,32,128,162,,,,,,0,58,58,58,,,,,,,,,,,,,,,,,,,,,,,,,,,,,,,,,,,,,,,,,,,,,,,,,,,,,,,,,360.1850806000002,360.6905085999997,360.6905085999997,361.4431598000001,361.4431598000001,361.94856660000005,361.94856660000005,362.728873,362.728873,None,num_6,1.305711599999995,362.728873,None,happy,0,Sad,364.0423920399999,None,None,364.0423920399999,None,,,,,,,,,,,,,,,,,,,,,,,,,,,,,,,,,,,,,,,,,,,,,,,,,,,,,30,001,0,24,500,450,2022_Oct_25_1043,Experiment,2021.1.4,359.9737939112416,
images\S8_M_H_03.png,images\S8_M_H_03_scrambled.png,8,happy,30,male,6,,405,off,1,0.5,0.75,0.5,0.788,3,404,1,2,1,0,0,0,0,6,,,,,,0,59,59,59,,,,,,,,,,,,,,,,,,,,,,,,,,,,,,,,,,,,,,,,,,,,,,,,,,,,,,,,,364.10062469999957,364.60327959999995,364.60327959999995,365.35293099999944,365.35293099999944,365.85841059999984,365.85841059999984,366.64976149999984,366.64976149999984,None,num_6,0.6729229000002306,366.64976149999984,None,happy,0,Happy,367.33563362000024,None,None,367.33563362000024,None,,,,,,,,,,,,,,,,,,,,,,,,,,,,,,,,,,,,,,,,,,,,,,,,,,,,,30,001,0,24,500,450,2022_Oct_25_1043,Experiment,2021.1.4,359.9737939112416,
images\S6_M_H_03.png,images\S6_M_H_03_scrambled.png,6,happy,30,male,6,,393,off,1,0.5,0.75,0.5,0.796,3,392,2,1,2,0,0,0,0,6,,,,,,0,60,60,60,,,,,,,,,,,,,,,,,,,,,,,,,,,,,,,,,,,,,,,,,,,,,,,,,,,,,,,,,367.3828930999998,367.88553369999954,367.88553369999954,368.6408520999994,368.6408520999994,369.14624209999965,369.14624209999965,369.94319899999937,369.94319899999937,None,num_6,0.7955105000000913,369.94319899999937,None,happy,0,Happy,370.75126592,None,None,370.75126592,None,,,,,,,,,,,,,,,,,,,,,,,,,,,,,,,,,,,,,,,,,,,,,,,,,,,,,30,001,0,24,500,450,2022_Oct_25_1043,Experiment,2021.1.4,359.9737939112416,
images\S4_M_S_02.png,images\S4_M_S_02_scrambled.png,4,sad,-20,male,2,,443,on,2,0.5,0.75,0.5,0.894,3,442,1,1,1,2,2,32,128,162,,,,,,0,61,61,61,,,,,,,,,,,,,,,,,,,,,,,,,,,,,,,,,,,,,,,,,,,,,,,,,,,,,,,,,370.83459969999967,371.33720749999975,371.33720749999975,372.08698579999964,372.08698579999964,372.58969949999937,372.58969949999937,373.4865725999998,373.4865725999998,None,num_4,0.6600597999995443,373.4865725999998,None,sad,0,Sad,374.16133642000005,None,None,374.16133642000005,None,,,,,,,,,,,,,,,,,,,,,,,,,,,,,,,,,,,,,,,,,,,,,,,,,,,,,30,001,0,24,500,450,2022_Oct_25_1043,Experiment,2021.1.4,359.9737939112416,
images\S4_M_H_03.png,images\S4_M_H_03_scrambled.png,4,happy,30,male,6,,201,on,2,0.5,0.75,0.5,0.903,3,200,2,2,1,2,2,32,128,166,,,,,,0,62,62,62,,,,,,,,,,,,,,,,,,,,,,,,,,,,,,,,,,,,,,,,,,,,,,,,,,,,,,,,,374.2085613999998,374.7083937999996,374.7083937999996,375.4638611999999,375.4638611999999,375.96638019999955,375.96638019999955,376.87163340000006,376.87163340000006,None,num_4,2.3071030000000974,376.87163340000006,None,sad,0,Happy,379.1875574600002,None,None,379.1875574600002,None,,,,,,,,,,,,,,,,,,,,,,,,,,,,,,,,,,,,,,,,,,,,,,,,,,,,,30,001,0,24,500,450,2022_Oct_25_1043,Experiment,2021.1.4,359.9737939112416,
images\S10_M_S_01.png,images\S10_M_S_01_scrambled.png,10,sad,-10,male,3,,238,on,2,0.5,0.75,0.5,0.811,3,237,3,1,1,2,2,32,128,163,,,,,,0,63,63,63,,,,,,,,,,,,,,,,,,,,,,,,,,,,,,,,,,,,,,,,,,,,,,,,,,,,,,,,,379.23479880000014,379.73744089999946,379.73744089999946,380.4927485999997,380.4927485999997,380.99546740000005,380.99546740000005,381.8118106000002,381.8118106000002,None,num_6,0.7587806999999884,381.8118106000002,None,happy,0,Sad,382.57820325999944,None,None,382.57820325999944,None,,,,,,,,,,,,,,,,,,,,,,,,,,,,,,,,,,,,,,,,,,,,,,,,,,,,,30,001,0,24,500,450,2022_Oct_25_1043,Experiment,2021.1.4,359.9737939112416,
images\S4_M_S_02.png,images\S4_M_S_02_scrambled.png,4,sad,-20,male,2,,383,off,1,0.5,0.75,0.5,0.783,3,382,1,1,1,0,0,0,0,2,,,,,,0,64,64,64,,,,,,,,,,,,,,,,,,,,,,,,,,,,,,,,,,,,,,,,,,,,,,,,,,,,,,,,,382.6254091999999,383.1252580999999,383.1252580999999,383.87785110000004,383.87785110000004,384.3804291999995,384.3804291999995,385.16629079999984,385.16629079999984,None,num_4,1.4682819999998173,385.16629079999984,None,sad,0,Sad,386.6491567199999,None,None,386.6491567199999,None,,,,,,,,,,,,,,,,,,,,,,,,,,,,,,,,,,,,,,,,,,,,,,,,,,,,,30,001,0,24,500,450,2022_Oct_25_1043,Experiment,2021.1.4,359.9737939112416,
images\S10_M_S_01.png,images\S10_M_S_01_scrambled.png,10,sad,-10,male,3,,298,off,1,0.5,0.75,0.5,0.903,3,297,2,1,1,0,0,0,0,3,,,,,,0,65,65,65,,,,,,,,,,,,,,,,,,,,,,,,,,,,,,,,,,,,,,,,,,,,,,,,,,,,,,,,,386.69638679999935,387.19902360000015,387.19902360000015,387.9515685999995,387.9515685999995,388.45703129999947,388.45703129999947,389.3622379999997,389.3622379999997,None,num_6,0.36052139999992505,389.3622379999997,None,happy,0,Sad,389.7315582599998,None,None,389.7315582599998,None,,,,,,,,,,,,,,,,,,,,,,,,,,,,,,,,,,,,,,,,,,,,,,,,,,,,,30,001,0,24,500,450,2022_Oct_25_1043,Experiment,2021.1.4,359.9737939112416,
images\S7_F_H_03.png,images\S7_F_H_03_scrambled.png,7,happy,30,female,6,,459,on,2,0.5,0.75,0.5,0.77,3,458,1,1,1,2,2,32,128,166,,,,,,0,66,66,66,,,,,,,,,,,,,,,,,,,,,,,,,,,,,,,,,,,,,,,,,,,,,,,,,,,,,,,,,389.7787677999995,390.28138339999987,390.28138339999987,391.03116259999933,391.03116259999933,391.5366948000001,391.5366948000001,392.3141869000001,392.3141869000001,None,num_6,0.8805350000002363,392.3141869000001,None,happy,0,Happy,393.20554802000044,None,None,393.20554802000044,None,,,,,,,,,,,,,,,,,,,,,,,,,,,,,,,,,,,,,,,,,,,,,,,,,,,,,30,001,0,24,500,450,2022_Oct_25_1043,Experiment,2021.1.4,359.9737939112416,
images\S6_M_H_01.png,images\S6_M_H_01_scrambled.png,6,happy,10,male,4,,331,on,2,0.5,0.75,0.5,0.791,3,330,2,1,1,2,2,32,128,164,,,,,,0,67,67,67,,,,,,,,,,,,,,,,,,,,,,,,,,,,,,,,,,,,,,,,,,,,,,,,,,,,,,,,,393.2609745999998,393.7636971000002,393.7636971000002,394.5190192,394.5190192,395.01882190000015,395.01882190000015,395.8130637999993,395.8130637999993,None,num_6,1.1500353000001269,395.8130637999993,None,happy,0,Happy,396.9822463600002,None,None,396.9822463600002,None,,,,,,,,,,,,,,,,,,,,,,,,,,,,,,,,,,,,,,,,,,,,,,,,,,,,,30,001,0,24,500,450,2022_Oct_25_1043,Experiment,2021.1.4,359.9737939112416,
images\S1_F_S_02.png,images\S1_F_S_02_scrambled.png,1,sad,-20,female,2,,425,on,2,0.5,0.75,0.5,0.752,3,424,3,1,1,2,2,32,128,162,,,,,,0,68,68,68,,,,,,,,,,,,,,,,,,,,,,,,,,,,,,,,,,,,,,,,,,,,,,,,,,,,,,,,,397.03209629999947,397.53197180000006,397.53197180000006,398.2873947999997,398.2873947999997,398.7871430999994,398.7871430999994,399.5425753999998,399.5425753999998,None,num_6,0.7721699999992779,399.5425753999998,None,happy,0,Sad,400.3227530600001,None,None,400.3227530600001,None,,,,,,,,,,,,,,,,,,,,,,,,,,,,,,,,,,,,,,,,,,,,,,,,,,,,,30,001,0,24,500,450,2022_Oct_25_1043,Experiment,2021.1.4,359.9737939112416,
images\S9_F_S_02.png,images\S9_F_S_02_scrambled.png,9,sad,-20,female,2,,173,off,1,0.5,0.75,0.5,0.948,3,172,1,1,2,0,0,0,0,2,,,,,,0,69,69,69,,,,,,,,,,,,,,,,,,,,,,,,,,,,,,,,,,,,,,,,,,,,,,,,,,,,,,,,,400.40606339999977,400.90872489999947,400.90872489999947,401.658461,401.658461,402.16389359999994,402.16389359999994,403.11636949999956,403.11636949999956,None,num_6,0.9582186000006914,403.11636949999956,None,happy,0,Sad,404.07994006000024,None,None,404.07994006000024,None,,,,,,,,,,,,,,,,,,,,,,,,,,,,,,,,,,,,,,,,,,,,,,,,,,,,,30,001,0,24,500,450,2022_Oct_25_1043,Experiment,2021.1.4,359.9737939112416,
images\S7_F_S_01.png,images\S7_F_S_01_scrambled.png,7,sad,-10,female,3,,160,off,1,0.5,0.75,0.5,0.81,3,159,2,1,1,0,0,0,0,3,,,,,,0,70,70,70,,,,,,,,,,,,,,,,,,,,,,,,,,,,,,,,,,,,,,,,,,,,,,,,,,,,,,,,,404.12991669999974,404.63253749999967,404.63253749999967,405.38229880000017,405.38229880000017,405.8878423999995,405.8878423999995,406.7013514999999,406.7013514999999,None,num_6,0.33334819999981846,406.7013514999999,None,happy,0,Sad,407.04015886000013,None,None,407.04015886000013,None,,,,,,,,,,,,,,,,,,,,,,,,,,,,,,,,,,,,,,,,,,,,,,,,,,,,,30,001,0,24,500,450,2022_Oct_25_1043,Experiment,2021.1.4,359.9737939112416,
images\S5_F_H_01.png,images\S5_F_H_01_scrambled.png,5,happy,10,female,4,,325,on,2,0.5,0.75,0.5,0.897,3,324,1,1,1,2,2,32,128,164,,,,,,0,71,71,71,,,,,,,,,,,,,,,,,,,,,,,,,,,,,,,,,,,,,,,,,,,,,,,,,,,,,,,,,407.1262259999994,407.62884589999976,407.62884589999976,408.37861299999986,408.37861299999986,408.8812329000002,408.8812329000002,409.7837448999999,409.7837448999999,None,num_6,1.0348070000000007,409.7837448999999,None,happy,0,Happy,410.83066951999973,None,None,410.83066951999973,None,,,,,,,,,,,,,,,,,,,,,,,,,,,,,,,,,,,,,,,,,,,,,,,,,,,,,30,001,0,24,500,450,2022_Oct_25_1043,Experiment,2021.1.4,359.9737939112416,
images\S10_M_S_03.png,images\S10_M_S_03_scrambled.png,10,sad,-30,male,1,,600,on,2,0.5,0.75,0.5,0.911,3,599,2,1,1,2,2,32,128,161,,,,,,0,72,72,72,,,,,,,,,,,,,,,,,,,,,,,,,,,,,,,,,,,,,,,,,,,,,,,,,,,,,,,,,410.87784829999964,411.3777100999996,411.3777100999996,412.1274910000002,412.1274910000002,412.63294589999987,412.63294589999987,413.54927549999957,413.54927549999957,None,num_4,0.4374083000002429,413.54927549999957,None,sad,0,Sad,413.99911882,None,None,413.99911882,None,,,,,,,,,,,,,,,,,,,,,,,,,,,,,,,,,,,,,,,,,,,,,,,,,,,,,30,001,0,24,500,450,2022_Oct_25_1043,Experiment,2021.1.4,359.9737939112416,
images\S7_F_H_01.png,images\S7_F_H_01_scrambled.png,7,happy,10,female,4,,457,on,2,0.5,0.75,0.5,0.846,3,456,3,1,1,2,2,32,128,164,,,,,,0,73,73,73,,,,,,,,,,,,,,,,,,,,,,,,,,,,,,,,,,,,,,,,,,,,,,,,,,,,,,,,,414.08242429999973,414.58790749999935,414.58790749999935,415.3376051999994,415.3376051999994,415.8402099999994,415.8402099999994,416.68996789999983,416.68996789999983,None,num_4,0.9127099999996062,416.68996789999983,None,sad,0,Happy,417.6118694599994,None,None,417.6118694599994,None,,,,,,,,,,,,,,,,,,,,,,,,,,,,,,,,,,,,,,,,,,,,,,,,,,,,,30,001,0,24,500,450,2022_Oct_25_1043,Experiment,2021.1.4,359.9737939112416,
images\S7_F_H_01.png,images\S7_F_H_01_scrambled.png,7,happy,10,female,4,,37,off,1,0.5,0.75,0.5,0.851,3,36,1,2,2,0,0,0,0,4,,,,,,0,74,74,74,,,,,,,,,,,,,,,,,,,,,,,,,,,,,,,,,,,,,,,,,,,,,,,,,,,,,,,,,417.6590994999997,418.1645281000001,418.1645281000001,418.9171962999999,418.9171962999999,419.4197015999998,419.4197015999998,420.2778408999993,420.2778408999993,None,num_4,2.3569962000001397,420.2778408999993,None,sad,0,Happy,422.6436726599999,None,None,422.6436726599999,None,,,,,,,,,,,,,,,,,,,,,,,,,,,,,,,,,,,,,,,,,,,,,,,,,,,,,30,001,0,24,500,450,2022_Oct_25_1043,Experiment,2021.1.4,359.9737939112416,
images\S10_M_S_01.png,images\S10_M_S_01_scrambled.png,10,sad,-10,male,3,,538,off,1,0.5,0.75,0.5,0.823,3,537,2,1,1,0,0,0,0,3,,,,,,0,75,75,75,,,,,,,,,,,,,,,,,,,,,,,,,,,,,,,,,,,,,,,,,,,,,,,,,,,,,,,,,422.6908910000002,423.1935496999995,423.1935496999995,423.9488725000001,423.9488725000001,424.4542615999999,424.4542615999999,425.2790213999997,425.2790213999997,None,num_6,0.459757399999944,425.2790213999997,None,happy,0,Sad,425.7482826600002,None,None,425.7482826600002,None,,,,,,,,,,,,,,,,,,,,,,,,,,,,,,,,,,,,,,,,,,,,,,,,,,,,,30,001,0,24,500,450,2022_Oct_25_1043,Experiment,2021.1.4,359.9737939112416,
images\S10_M_H_01.png,images\S10_M_H_01_scrambled.png,10,happy,10,male,4,,55,off,1,0.5,0.75,0.5,0.833,3,54,3,2,1,0,0,0,0,4,,,,,,0,76,76,76,,,,,,,,,,,,,,,,,,,,,,,,,,,,,,,,,,,,,,,,,,,,,,,,,,,,,,,,,425.79549619999943,426.2981669999999,426.2981669999999,427.0478985,427.0478985,427.55334519999997,427.55334519999997,428.38913109999976,428.38913109999976,None,num_6,0.5015764999998282,428.38913109999976,None,happy,0,Happy,428.9056647200003,None,None,428.9056647200003,None,,,,,,,,,,,,,,,,,,,,,,,,,,,,,,,,,,,,,,,,,,,,,,,,,,,,,30,001,0,24,500,450,2022_Oct_25_1043,Experiment,2021.1.4,359.9737939112416,
images\S8_M_H_02.png,images\S8_M_H_02_scrambled.png,8,happy,20,male,5,,104,on,2,0.5,0.75,0.5,0.949,3,103,1,1,1,2,2,32,128,165,,,,,,0,77,77,77,,,,,,,,,,,,,,,,,,,,,,,,,,,,,,,,,,,,,,,,,,,,,,,,,,,,,,,,,428.95285239999976,429.45546639999975,429.45546639999975,430.2052847999994,430.2052847999994,430.70509779999975,430.70509779999975,431.6603669999995,431.6603669999995,None,num_6,0.43832079999992857,431.6603669999995,None,happy,0,Happy,432.12966490000053,None,None,432.12966490000053,None,,,,,,,,,,,,,,,,,,,,,,,,,,,,,,,,,,,,,,,,,,,,,,,,,,,,,30,001,0,24,500,450,2022_Oct_25_1043,Experiment,2021.1.4,359.9737939112416,
images\S3_F_H_03.png,images\S3_F_H_03_scrambled.png,3,happy,30,female,6,,195,on,2,0.5,0.75,0.5,0.802,3,194,2,1,1,2,2,32,128,166,,,,,,0,78,78,78,,,,,,,,,,,,,,,,,,,,,,,,,,,,,,,,,,,,,,,,,,,,,,,,,,,,,,,,,432.2157516999996,432.71836299999995,432.71836299999995,433.47371269999985,433.47371269999985,433.97634669999934,433.97634669999934,434.7816140999994,434.7816140999994,None,num_6,0.2612896999999066,434.7816140999994,None,happy,0,Happy,435.05387992000016,None,None,435.05387992000016,None,,,,,,,,,,,,,,,,,,,,,,,,,,,,,,,,,,,,,,,,,,,,,,,,,,,,,30,001,0,24,500,450,2022_Oct_25_1043,Experiment,2021.1.4,359.9737939112416,
images\S2_M_S_01.png,images\S2_M_S_01_scrambled.png,2,sad,-10,male,3,,10,off,1,0.5,0.75,0.5,0.947,3,9,1,1,1,0,0,0,0,3,,,,,,0,79,79,79,,,,,,,,,,,,,,,,,,,,,,,,,,,,,,,,,,,,,,,,,,,,,,,,,,,,,,,,,435.10096389999944,435.6008161,435.6008161,436.3533636000002,436.3533636000002,436.8587975999999,436.8587975999999,437.8085031999999,437.8085031999999,None,num_4,0.4184735000008004,437.8085031999999,None,sad,0,Sad,438.23900031999966,None,None,438.23900031999966,None,,,,,,,,,,,,,,,,,,,,,,,,,,,,,,,,,,,,,,,,,,,,,,,,,,,,,30,001,0,24,500,450,2022_Oct_25_1043,Experiment,2021.1.4,359.9737939112416,
images\S9_F_H_02.png,images\S9_F_H_02_scrambled.png,9,happy,20,female,5,,50,off,1,0.5,0.75,0.5,0.945,3,49,2,1,1,0,0,0,0,5,,,,,,0,80,80,80,,,,,,,,,,,,,,,,,,,,,,,,,,,,,,,,,,,,,,,,,,,,,,,,,,,,,,,,,438.32774939999945,438.82759410000017,438.82759410000017,439.58299519999946,439.58299519999946,440.08836449999944,440.08836449999944,441.0352836000002,441.0352836000002,None,num_6,0.2794253000001845,441.0352836000002,None,happy,0,Happy,441.3296457200002,None,None,441.3296457200002,None,,,,,,,,,,,,,,,,,,,,,,,,,,,,,,,,,,,,,,,,,,,,,,,,,,,,,30,001,0,24,500,450,2022_Oct_25_1043,Experiment,2021.1.4,359.9737939112416,
images\blank.jpg,images\blank.jpg,none,none,none,none,0,,620,on,2,0.5,0.75,0.5,0.873,0,619,1,1,1,3,3,48,192,240,,,,,,0,81,81,81,,,,,,,,,,,,,,,,,,,,,,,,,,,,,,,,,,,,,,,,,,,,,,,,,,,,,,,,,441.4131701999995,441.91554859999997,441.91554859999997,442.67086969999946,442.67086969999946,443.1707279000002,443.1707279000002,444.04552349999994,444.04552349999994,444.04552349999994,None,,444.04552349999994,None,miss,0,,447.0501454600002,None,None,447.0501454600002,None,,,,,,,,,,,,,,,,,,,,,,,,,,,,,,,,,,,,,,,,,,,,,,,,,,,,,30,001,0,24,500,450,2022_Oct_25_1043,Experiment,2021.1.4,359.9737939112416,
images\S7_F_S_01.png,images\S7_F_S_01_scrambled.png,7,sad,-10,female,3,,340,on,2,0.5,0.75,0.5,0.923,3,339,2,1,1,2,2,32,128,163,,,,,,0,82,82,82,,,,,,,,,,,,,,,,,,,,,,,,,,,,,,,,,,,,,,,,,,,,,,,,,,,,,,,,,447.16979119999996,447.6749218999994,447.6749218999994,448.4302381999996,448.4302381999996,448.93287189999955,448.93287189999955,449.86034669999935,449.86034669999935,None,num_6,0.606312999999318,449.86034669999935,447.16979119999996,happy,0,Sad,450.47398805999944,None,None,450.47398805999944,None,,,,,,,,,,,,,,,,,,,,,,,,,,,,,,,,,,,,,,,,,,,,,,,,,,,,,30,001,0,24,500,450,2022_Oct_25_1043,Experiment,2021.1.4,359.9737939112416,
images\S9_F_S_01.png,images\S9_F_S_01_scrambled.png,9,sad,-10,female,3,,52,off,1,0.5,0.75,0.5,0.827,3,51,1,1,2,0,0,0,0,3,,,,,,0,83,83,83,,,,,,,,,,,,,,,,,,,,,,,,,,,,,,,,,,,,,,,,,,,,,,,,,,,,,,,,,450.52401310000005,451.0294322999998,451.0294322999998,451.78476859999955,451.78476859999955,452.2873906999994,452.2873906999994,453.12045750000016,453.12045750000016,None,num_6,0.49816290000035224,453.12045750000016,None,happy,0,Sad,453.62307285999975,None,None,453.62307285999975,None,,,,,,,,,,,,,,,,,,,,,,,,,,,,,,,,,,,,,,,,,,,,,,,,,,,,,30,001,0,24,500,450,2022_Oct_25_1043,Experiment,2021.1.4,359.9737939112416,
images\S2_M_H_02.png,images\S2_M_H_02_scrambled.png,2,happy,20,male,5,,428,on,2,0.5,0.75,0.5,0.837,3,427,1,1,1,2,2,32,128,165,,,,,,0,84,84,84,,,,,,,,,,,,,,,,,,,,,,,,,,,,,,,,,,,,,,,,,,,,,,,,,,,,,,,,,453.70913539999947,454.2089801000002,454.2089801000002,454.9587819999997,454.9587819999997,455.4586432999995,455.4586432999995,456.3001167000002,456.3001167000002,None,num_6,1.0147116999996797,456.3001167000002,None,happy,0,Happy,457.33026242000034,None,None,457.33026242000034,None,,,,,,,,,,,,,,,,,,,,,,,,,,,,,,,,,,,,,,,,,,,,,,,,,,,,,30,001,0,24,500,450,2022_Oct_25_1043,Experiment,2021.1.4,359.9737939112416,
images\S2_M_H_02.png,images\S2_M_H_02_scrambled.png,2,happy,20,male,5,,548,on,2,0.5,0.75,0.5,0.785,3,547,2,2,2,2,2,32,128,165,,,,,,0,85,85,85,,,,,,,,,,,,,,,,,,,,,,,,,,,,,,,,,,,,,,,,,,,,,,,,,,,,,,,,,457.3774691999997,457.88012789999993,457.88012789999993,458.6354603,458.6354603,459.1380339999996,459.1380339999996,459.9266891999996,459.9266891999996,None,num_6,0.8837831000000733,459.9266891999996,None,happy,0,Happy,460.82086901999975,None,None,460.82086901999975,None,,,,,,,,,,,,,,,,,,,,,,,,,,,,,,,,,,,,,,,,,,,,,,,,,,,,,30,001,0,24,500,450,2022_Oct_25_1043,Experiment,2021.1.4,359.9737939112416,
images\S4_M_H_03.png,images\S4_M_H_03_scrambled.png,4,happy,30,male,6,,81,on,2,0.5,0.75,0.5,0.813,3,80,3,1,1,2,2,32,128,166,,,,,,0,86,86,86,,,,,,,,,,,,,,,,,,,,,,,,,,,,,,,,,,,,,,,,,,,,,,,,,,,,,,,,,460.86805300000015,461.3707137000001,461.3707137000001,462.1260335999996,462.1260335999996,462.6314290999999,462.6314290999999,463.4506352999997,463.4506352999997,None,num_6,0.5120962000000873,463.4506352999997,None,happy,0,Happy,463.97267772000015,None,None,463.97267772000015,None,,,,,,,,,,,,,,,,,,,,,,,,,,,,,,,,,,,,,,,,,,,,,,,,,,,,,30,001,0,24,500,450,2022_Oct_25_1043,Experiment,2021.1.4,359.9737939112416,
images\S1_F_S_01.png,images\S1_F_S_01_scrambled.png,1,sad,-10,female,3,,424,on,2,0.5,0.75,0.5,0.829,3,423,4,1,1,2,2,32,128,163,,,,,,0,87,87,87,,,,,,,,,,,,,,,,,,,,,,,,,,,,,,,,,,,,,,,,,,,,,,,,,,,,,,,,,464.0198645999999,464.5253090999995,464.5253090999995,465.2750496999997,465.2750496999997,465.7804710999999,465.7804710999999,466.61631450000004,466.61631450000004,None,num_6,0.38627510000060283,466.61631450000004,None,happy,0,Sad,467.00783395999986,None,None,467.00783395999986,None,,,,,,,,,,,,,,,,,,,,,,,,,,,,,,,,,,,,,,,,,,,,,,,,,,,,,30,001,0,24,500,450,2022_Oct_25_1043,Experiment,2021.1.4,359.9737939112416,
images\S6_M_S_02.png,images\S6_M_S_02_scrambled.png,6,sad,-20,male,2,,335,on,2,0.5,0.75,0.5,0.918,3,334,5,1,1,2,2,32,128,162,,,,,,0,88,88,88,,,,,,,,,,,,,,,,,,,,,,,,,,,,,,,,,,,,,,,,,,,,,,,,,,,,,,,,,467.0911387999995,467.5965523999994,467.5965523999994,468.3491162999999,468.3491162999999,468.8546311,468.8546311,469.7764527999998,469.7764527999998,None,num_6,0.2983356000004278,469.7764527999998,None,happy,0,Sad,470.08744393999956,None,None,470.08744393999956,None,,,,,,,,,,,,,,,,,,,,,,,,,,,,,,,,,,,,,,,,,,,,,,,,,,,,,30,001,0,24,500,450,2022_Oct_25_1043,Experiment,2021.1.4,359.9737939112416,
images\S8_M_S_03.png,images\S8_M_S_03_scrambled.png,8,sad,-30,male,1,,468,on,2,0.5,0.75,0.5,0.898,3,467,6,1,1,2,2,32,128,161,,,,,,0,89,89,89,,,,,,,,,,,,,,,,,,,,,,,,,,,,,,,,,,,,,,,,,,,,,,,,,,,,,,,,,470.1457598999996,470.65119119999963,470.65119119999963,471.4038424999999,471.4038424999999,471.9063236000002,471.9063236000002,472.80896329999996,472.80896329999996,None,num_4,0.2900558999999703,472.80896329999996,None,sad,0,Sad,473.1254280400004,None,None,473.1254280400004,None,,,,,,,,,,,,,,,,,,,,,,,,,,,,,,,,,,,,,,,,,,,,,,,,,,,,,30,001,0,24,500,450,2022_Oct_25_1043,Experiment,2021.1.4,359.9737939112416,
images\S8_M_S_01.png,images\S8_M_S_01_scrambled.png,8,sad,-10,male,3,,346,on,2,0.5,0.75,0.5,0.773,3,345,7,2,1,2,2,32,128,163,,,,,,0,90,90,90,,,,,,,,,,,,,,,,,,,,,,,,,,,,,,,,,,,,,,,,,,,,,,,,,,,,,,,,,473.17539899999974,473.68082030000005,473.68082030000005,474.43333189999976,474.43333189999976,474.9359936999999,474.9359936999999,475.7107148999994,475.7107148999994,None,num_6,0.3477708000000348,475.7107148999994,None,happy,0,Sad,476.06340276000026,None,None,476.06340276000026,None,,,,,,,,,,,,,,,,,,,,,,,,,,,,,,,,,,,,,,,,,,,,,,,,,,,,,30,001,0,24,500,450,2022_Oct_25_1043,Experiment,2021.1.4,359.9737939112416,
images\S10_M_S_02.png,images\S10_M_S_02_scrambled.png,10,sad,-20,male,2,,179,off,1,0.5,0.75,0.5,0.904,3,178,1,1,1,0,0,0,0,2,,,,,,0,91,91,91,,,,,,,,,,,,,,,,,,,,,,,,,,,,,,,,,,,,,,,,,,,,,,,,,,,,,,,,,476.1467797999994,476.6521015999997,476.6521015999997,477.40477649999957,477.40477649999957,477.9072596999995,477.9072596999995,478.81538120000005,478.81538120000005,None,num_6,0.6190980999999738,478.81538120000005,None,happy,0,Sad,479.4400903600002,None,None,479.4400903600002,None,,,,,,,,,,,,,,,,,,,,,,,,,,,,,,,,,,,,,,,,,,,,,,,,,,,,,30,001,0,24,500,450,2022_Oct_25_1043,Experiment,2021.1.4,359.9737939112416,
images\S9_F_S_03.png,images\S9_F_S_03_scrambled.png,9,sad,-30,female,1,,594,on,2,0.5,0.75,0.5,0.814,3,593,1,1,1,2,2,32,128,161,,,,,,0,92,92,92,,,,,,,,,,,,,,,,,,,,,,,,,,,,,,,,,,,,,,,,,,,,,,,,,,,,,,,,,479.52343649999966,480.0233167999995,480.0233167999995,480.7730569999994,480.7730569999994,481.2757160000001,481.2757160000001,482.09495119999974,482.09495119999974,None,num_6,0.44369779999942693,482.09495119999974,None,happy,0,Sad,482.54748736,None,None,482.54748736,None,,,,,,,,,,,,,,,,,,,,,,,,,,,,,,,,,,,,,,,,,,,,,,,,,,,,,30,001,0,24,500,450,2022_Oct_25_1043,Experiment,2021.1.4,359.9737939112416,
images\S4_M_H_02.png,images\S4_M_H_02_scrambled.png,4,happy,20,male,5,,260,off,1,0.5,0.75,0.5,0.914,3,259,1,1,1,0,0,0,0,5,,,,,,0,93,93,93,,,,,,,,,,,,,,,,,,,,,,,,,,,,,,,,,,,,,,,,,,,,,,,,,,,,,,,,,482.59749229999943,483.1001200999999,483.1001200999999,483.84989889999997,483.84989889999997,484.3553293999994,484.3553293999994,485.27168840000013,485.27168840000013,None,num_6,0.3556475000004866,485.27168840000013,None,happy,0,Happy,485.65227296,None,None,485.65227296,None,,,,,,,,,,,,,,,,,,,,,,,,,,,,,,,,,,,,,,,,,,,,,,,,,,,,,30,001,0,24,500,450,2022_Oct_25_1043,Experiment,2021.1.4,359.9737939112416,
images\S2_M_H_02.png,images\S2_M_H_02_scrambled.png,2,happy,20,male,5,,368,off,1,0.5,0.75,0.5,0.775,3,367,2,1,2,0,0,0,0,5,,,,,,0,94,94,94,,,,,,,,,,,,,,,,,,,,,,,,,,,,,,,,,,,,,,,,,,,,,,,,,,,,,,,,,485.7020937999996,486.20484450000004,486.20484450000004,486.96013519999997,486.96013519999997,487.4599094999994,487.4599094999994,488.2402457999997,488.2402457999997,None,num_6,0.4504566999994495,488.2402457999997,None,happy,0,Happy,488.7011883200001,None,None,488.7011883200001,None,,,,,,,,,,,,,,,,,,,,,,,,,,,,,,,,,,,,,,,,,,,,,,,,,,,,,30,001,0,24,500,450,2022_Oct_25_1043,Experiment,2021.1.4,359.9737939112416,
images\S7_F_H_02.png,images\S7_F_H_02_scrambled.png,7,happy,20,female,5,,38,off,1,0.5,0.75,0.5,0.861,3,37,3,1,3,0,0,0,0,5,,,,,,0,95,95,95,,,,,,,,,,,,,,,,,,,,,,,,,,,,,,,,,,,,,,,,,,,,,,,,,,,,,,,,,488.7483827999995,489.2510277000001,489.2510277000001,490.00635520000014,490.00635520000014,490.51173819999985,490.51173819999985,491.37535899999966,491.37535899999966,None,num_6,0.2995223999996597,491.37535899999966,None,happy,0,Happy,491.7002734399999,None,None,491.7002734399999,None,,,,,,,,,,,,,,,,,,,,,,,,,,,,,,,,,,,,,,,,,,,,,,,,,,,,,30,001,0,24,500,450,2022_Oct_25_1043,Experiment,2021.1.4,359.9737939112416,
images\S1_F_S_03.png,images\S1_F_S_03_scrambled.png,1,sad,-30,female,1,,6,off,1,0.5,0.75,0.5,0.871,3,5,4,1,1,0,0,0,0,1,,,,,,0,96,96,96,,,,,,,,,,,,,,,,,,,,,,,,,,,,,,,,,,,,,,,,,,,,,,,,,,,,,,,,,491.81132160000016,492.31675670000004,492.31675670000004,493.06939799999964,493.06939799999964,493.5719256000002,493.5719256000002,494.4466536,494.4466536,None,num_4,0.5639859000002616,494.4466536,None,sad,0,Sad,495.02421962000045,None,None,495.02421962000045,None,,,,,,,,,,,,,,,,,,,,,,,,,,,,,,,,,,,,,,,,,,,,,,,,,,,,,30,001,0,24,500,450,2022_Oct_25_1043,Experiment,2021.1.4,359.9737939112416,
images\S7_F_S_01.png,images\S7_F_S_01_scrambled.png,7,sad,-10,female,3,,280,off,1,0.5,0.75,0.5,0.918,3,279,5,1,1,0,0,0,0,3,,,,,,0,97,97,97,,,,,,,,,,,,,,,,,,,,,,,,,,,,,,,,,,,,,,,,,,,,,,,,,,,,,,,,,495.07435910000004,495.5740563999998,495.5740563999998,496.3266275999995,496.3266275999995,496.82935839999936,496.82935839999936,497.7511679999998,497.7511679999998,None,num_6,0.5875458000000435,497.7511679999998,None,happy,0,Sad,498.34820806000005,None,None,498.34820806000005,None,,,,,,,,,,,,,,,,,,,,,,,,,,,,,,,,,,,,,,,,,,,,,,,,,,,,,30,001,0,24,500,450,2022_Oct_25_1043,Experiment,2021.1.4,359.9737939112416,
images\S1_F_S_01.png,images\S1_F_S_01_scrambled.png,1,sad,-10,female,3,,304,on,2,0.5,0.75,0.5,0.782,3,303,1,1,2,2,2,32,128,163,,,,,,0,98,98,98,,,,,,,,,,,,,,,,,,,,,,,,,,,,,,,,,,,,,,,,,,,,,,,,,,,,,,,,,498.39542189999975,498.9008626999994,498.9008626999994,499.6561714999998,499.6561714999998,500.16156689999934,500.16156689999934,500.9502453999994,500.9502453999994,None,num_6,0.43640289999984816,500.9502453999994,None,happy,0,Sad,501.39170976,None,None,501.39170976,None,,,,,,,,,,,,,,,,,,,,,,,,,,,,,,,,,,,,,,,,,,,,,,,,,,,,,30,001,0,24,500,450,2022_Oct_25_1043,Experiment,2021.1.4,359.9737939112416,
images\blank.jpg,images\blank.jpg,none,none,none,none,0,,614,on,2,0.5,0.75,0.5,0.881,0,613,2,1,1,3,3,48,192,240,,,,,,0,99,99,99,,,,,,,,,,,,,,,,,,,,,,,,,,,,,,,,,,,,,,,,,,,,,,,,,,,,,,,,,501.47799739999937,501.98048070000004,501.98048070000004,502.73298160000013,502.73298160000013,503.2356356999999,503.2356356999999,504.1158736999996,504.1158736999996,504.1158736999996,None,,504.1158736999996,None,miss,0,,507.1205886599995,None,None,507.1205886599995,None,,,,,,,,,,,,,,,,,,,,,,,,,,,,,,,,,,,,,,,,,,,,,,,,,,,,,30,001,0,24,500,450,2022_Oct_25_1043,Experiment,2021.1.4,359.9737939112416,
images\S8_M_H_02.png,images\S8_M_H_02_scrambled.png,8,happy,20,male,5,,164,off,1,0.5,0.75,0.5,0.921,3,163,1,1,1,0,0,0,0,5,,,,,,0,100,100,100,,,,,,,,,,,,,,,,,,,,,,,,,,,,,,,,,,,,,,,,,,,,,,,,,,,,,,,,,507.2429653999998,507.74532629999976,507.74532629999976,508.4950880999995,508.4950880999995,508.9977358999995,508.9977358999995,509.9253364999995,509.9253364999995,None,num_6,0.5333505999997215,509.9253364999995,507.2429653999998,happy,0,Happy,510.4722819200004,None,None,510.4722819200004,None,,,,,,,,,,,,,,,,,,,,,,,,,,,,,,,,,,,,,,,,,,,,,,,,,,,,,30,001,0,24,500,450,2022_Oct_25_1043,Experiment,2021.1.4,359.9737939112416,
images\S6_M_S_02.png,images\S6_M_S_02_scrambled.png,6,sad,-20,male,2,,155,off,1,0.5,0.75,0.5,0.773,3,154,2,1,1,0,0,0,0,2,,,,,,0,101,101,101,,,,,,,,,,,,,,,,,,,,,,,,,,,,,,,,,,,,,,,,,,,,,,,,,,,,,,,,,510.51948939999966,511.0221241999998,511.0221241999998,511.7746852999999,511.7746852999999,512.2772684000001,512.2772684000001,513.0549483999994,513.0549483999994,None,num_4,0.46778489999996964,513.0549483999994,None,sad,0,Sad,513.5464129400003,None,None,513.5464129400003,None,,,,,,,,,,,,,,,,,,,,,,,,,,,,,,,,,,,,,,,,,,,,,,,,,,,,,30,001,0,24,500,450,2022_Oct_25_1043,Experiment,2021.1.4,359.9737939112416,
images\S6_M_S_03.png,images\S6_M_S_03_scrambled.png,6,sad,-30,male,1,,96,on,2,0.5,0.75,0.5,0.876,3,95,1,2,1,2,2,32,128,161,,,,,,0,102,102,102,,,,,,,,,,,,,,,,,,,,,,,,,,,,,,,,,,,,,,,,,,,,,,,,,,,,,,,,,513.6351856000001,514.1407250000002,514.1407250000002,514.8931420999997,514.8931420999997,515.3958358,515.3958358,516.2732698,516.2732698,None,num_4,0.31355880000046454,516.2732698,None,sad,0,Sad,516.60933286,None,None,516.60933286,None,,,,,,,,,,,,,,,,,,,,,,,,,,,,,,,,,,,,,,,,,,,,,,,,,,,,,30,001,0,24,500,450,2022_Oct_25_1043,Experiment,2021.1.4,359.9737939112416,
images\S6_M_H_03.png,images\S6_M_H_03_scrambled.png,6,happy,30,male,6,,93,on,2,0.5,0.75,0.5,0.943,3,92,2,3,1,2,2,32,128,166,,,,,,0,103,103,103,,,,,,,,,,,,,,,,,,,,,,,,,,,,,,,,,,,,,,,,,,,,,,,,,,,,,,,,,516.6648055999995,517.1674604999998,517.1674604999998,517.9171981999998,517.9171981999998,518.4170796999997,518.4170796999997,519.3639861000001,519.3639861000001,None,num_6,0.254680100000769,519.3639861000001,None,happy,0,Happy,519.6333511199999,None,None,519.6333511199999,None,,,,,,,,,,,,,,,,,,,,,,,,,,,,,,,,,,,,,,,,,,,,,,,,,,,,,30,001,0,24,500,450,2022_Oct_25_1043,Experiment,2021.1.4,359.9737939112416,
images\S9_F_H_02.png,images\S9_F_H_02_scrambled.png,9,happy,20,female,5,,470,on,2,0.5,0.75,0.5,0.942,3,469,3,1,1,2,2,32,128,165,,,,,,0,104,104,104,,,,,,,,,,,,,,,,,,,,,,,,,,,,,,,,,,,,,,,,,,,,,,,,,,,,,,,,,519.6805476999998,520.1860404999998,520.1860404999998,520.9413132,520.9413132,521.4439351000001,521.4439351000001,522.3880749999998,522.3880749999998,None,num_6,0.3347002999998949,522.3880749999998,None,happy,0,Happy,522.7379333200005,None,None,522.7379333200005,None,,,,,,,,,,,,,,,,,,,,,,,,,,,,,,,,,,,,,,,,,,,,,,,,,,,,,30,001,0,24,500,450,2022_Oct_25_1043,Experiment,2021.1.4,359.9737939112416,
images\S10_M_H_03.png,images\S10_M_H_03_scrambled.png,10,happy,30,male,6,,357,on,2,0.5,0.75,0.5,0.835,3,356,4,1,1,2,2,32,128,166,,,,,,0,105,105,105,,,,,,,,,,,,,,,,,,,,,,,,,,,,,,,,,,,,,,,,,,,,,,,,,,,,,,,,,522.8212595999994,523.3238927000002,523.3238927000002,524.0765498000001,524.0765498000001,524.5790606,524.5790606,525.4177018,525.4177018,None,num_6,0.6809950999995635,525.4177018,None,happy,0,Happy,526.1091551199996,None,None,526.1091551199996,None,,,,,,,,,,,,,,,,,,,,,,,,,,,,,,,,,,,,,,,,,,,,,,,,,,,,,30,001,0,24,500,450,2022_Oct_25_1043,Experiment,2021.1.4,359.9737939112416,
images\S8_M_H_01.png,images\S8_M_H_01_scrambled.png,8,happy,10,male,4,,343,on,2,0.5,0.75,0.5,0.844,3,342,5,1,1,2,2,32,128,164,,,,,,0,106,106,106,,,,,,,,,,,,,,,,,,,,,,,,,,,,,,,,,,,,,,,,,,,,,,,,,,,,,,,,,526.1563311999998,526.6561793999999,526.6561793999999,527.4059519000002,527.4059519000002,527.9086062999995,527.9086062999995,528.7555433999996,528.7555433999996,None,num_6,0.36693109999941953,528.7555433999996,None,happy,0,Happy,529.1359899200005,None,None,529.1359899200005,None,,,,,,,,,,,,,,,,,,,,,,,,,,,,,,,,,,,,,,,,,,,,,,,,,,,,,30,001,0,24,500,450,2022_Oct_25_1043,Experiment,2021.1.4,359.9737939112416,
images\S7_F_H_01.png,images\S7_F_H_01_scrambled.png,7,happy,10,female,4,,277,off,1,0.5,0.75,0.5,0.868,3,276,1,1,2,0,0,0,0,4,,,,,,0,107,107,107,,,,,,,,,,,,,,,,,,,,,,,,,,,,,,,,,,,,,,,,,,,,,,,,,,,,,,,,,529.1998305999996,529.7024680999994,529.7024680999994,530.4550062999997,530.4550062999997,530.9549186999993,530.9549186999993,531.8269220000002,531.8269220000002,None,num_6,0.5684003999995184,531.8269220000002,None,happy,0,Happy,532.4184706599999,None,None,532.4184706599999,None,,,,,,,,,,,,,,,,,,,,,,,,,,,,,,,,,,,,,,,,,,,,,,,,,,,,,30,001,0,24,500,450,2022_Oct_25_1043,Experiment,2021.1.4,359.9737939112416,
images\S5_F_S_02.png,images\S5_F_S_02_scrambled.png,5,sad,-20,female,2,,29,off,1,0.5,0.75,0.5,0.904,3,28,2,1,1,0,0,0,0,2,,,,,,0,108,108,108,,,,,,,,,,,,,,,,,,,,,,,,,,,,,,,,,,,,,,,,,,,,,,,,,,,,,,,,,532.5238283999997,533.0292384999993,533.0292384999993,533.7818716000002,533.7818716000002,534.2872318,534.2872318,535.1980475,535.1980475,None,num_6,0.7327016999997795,535.1980475,None,happy,0,Sad,535.9366723600001,None,None,535.9366723600001,None,,,,,,,,,,,,,,,,,,,,,,,,,,,,,,,,,,,,,,,,,,,,,,,,,,,,,30,001,0,24,500,450,2022_Oct_25_1043,Experiment,2021.1.4,359.9737939112416,
images\S9_F_H_01.png,images\S9_F_H_01_scrambled.png,9,happy,10,female,4,,589,on,2,0.5,0.75,0.5,0.833,3,588,1,1,1,2,2,32,128,164,,,,,,0,109,109,109,,,,,,,,,,,,,,,,,,,,,,,,,,,,,,,,,,,,,,,,,,,,,,,,,,,,,,,,,535.9838776999995,536.4864933999997,536.4864933999997,537.2362800000001,537.2362800000001,537.7418084999999,537.7418084999999,538.5775641,538.5775641,None,num_6,0.44166150000000926,538.5775641,None,happy,0,Happy,539.0414492600003,None,None,539.0414492600003,None,,,,,,,,,,,,,,,,,,,,,,,,,,,,,,,,,,,,,,,,,,,,,,,,,,,,,30,001,0,24,500,450,2022_Oct_25_1043,Experiment,2021.1.4,359.9737939112416,
images\blank.jpg,images\blank.jpg,none,none,none,none,0,,640,on,2,0.5,0.75,0.5,0.841,0,639,2,1,1,3,3,48,192,240,,,,,,0,110,110,110,,,,,,,,,,,,,,,,,,,,,,,,,,,,,,,,,,,,,,,,,,,,,,,,,,,,,,,,,539.1414966000002,539.6467752999997,539.6467752999997,540.3991839999999,540.3991839999999,540.9019098999997,540.9019098999997,541.7459908000001,541.7459908000001,541.7459908000001,None,,541.7459908000001,None,miss,0,,544.7506805600001,None,None,544.7506805600001,None,,,,,,,,,,,,,,,,,,,,,,,,,,,,,,,,,,,,,,,,,,,,,,,,,,,,,30,001,0,24,500,450,2022_Oct_25_1043,Experiment,2021.1.4,359.9737939112416,
images\S10_M_S_01.png,images\S10_M_S_01_scrambled.png,10,sad,-10,male,3,,478,on,2,0.5,0.75,0.5,0.925,3,477,3,1,1,2,2,32,128,163,,,,,,0,111,111,111,,,,,,,,,,,,,,,,,,,,,,,,,,,,,,,,,,,,,,,,,,,,,,,,,,,,,,,,,544.8675142000002,545.3699093999994,545.3699093999994,546.1252266000001,546.1252266000001,546.6279777999998,546.6279777999998,547.5553490000002,547.5553490000002,None,num_6,0.3915106000004016,547.5553490000002,544.8675142000002,happy,0,Sad,547.9552909600002,None,None,547.9552909600002,None,,,,,,,,,,,,,,,,,,,,,,,,,,,,,,,,,,,,,,,,,,,,,,,,,,,,,30,001,0,24,500,450,2022_Oct_25_1043,Experiment,2021.1.4,359.9737939112416,
images\S2_M_H_02.png,images\S2_M_H_02_scrambled.png,2,happy,20,male,5,,8,off,1,0.5,0.75,0.5,0.782,3,7,1,1,1,0,0,0,0,5,,,,,,0,112,112,112,,,,,,,,,,,,,,,,,,,,,,,,,,,,,,,,,,,,,,,,,,,,,,,,,,,,,,,,,548.0136514999995,548.5190076999997,548.5190076999997,549.2742866999997,549.2742866999997,549.7796779,549.7796779,550.5655310000002,550.5655310000002,None,num_6,0.7732219999998051,550.5655310000002,None,happy,0,Happy,551.3486431199998,None,None,551.3486431199998,None,,,,,,,,,,,,,,,,,,,,,,,,,,,,,,,,,,,,,,,,,,,,,,,,,,,,,30,001,0,24,500,450,2022_Oct_25_1043,Experiment,2021.1.4,359.9737939112416,
images\S2_M_H_02.png,images\S2_M_H_02_scrambled.png,2,happy,20,male,5,,248,off,1,0.5,0.75,0.5,0.779,3,247,2,2,2,0,0,0,0,5,,,,,,0,113,113,113,,,,,,,,,,,,,,,,,,,,,,,,,,,,,,,,,,,,,,,,,,,,,,,,,,,,,,,,,551.3958100999998,551.8985775000001,551.8985775000001,552.6482222999994,552.6482222999994,553.1537413999995,553.1537413999995,553.9394809999994,553.9394809999994,None,num_6,0.8712106000002677,553.9394809999994,None,happy,0,Happy,554.8252942200005,None,None,554.8252942200005,None,,,,,,,,,,,,,,,,,,,,,,,,,,,,,,,,,,,,,,,,,,,,,,,,,,,,,30,001,0,24,500,450,2022_Oct_25_1043,Experiment,2021.1.4,359.9737939112416,
images\blank.jpg,images\blank.jpg,none,none,none,none,0,,635,on,2,0.5,0.75,0.5,0.766,0,634,1,1,1,3,3,48,192,240,,,,,,0,114,114,114,,,,,,,,,,,,,,,,,,,,,,,,,,,,,,,,,,,,,,,,,,,,,,,,,,,,,,,,,554.9088839999995,555.4084935000001,555.4084935000001,556.1582313999997,556.1582313999997,556.6637793,556.6637793,557.4328718999996,557.4328718999996,557.4328718999996,None,,557.4328718999996,None,miss,0,,560.4375480599997,None,None,560.4375480599997,None,,,,,,,,,,,,,,,,,,,,,,,,,,,,,,,,,,,,,,,,,,,,,,,,,,,,,30,001,0,24,500,450,2022_Oct_25_1043,Experiment,2021.1.4,359.9737939112416,
images\S1_F_S_03.png,images\S1_F_S_03_scrambled.png,1,sad,-30,female,1,,486,off,1,0.5,0.75,0.5,0.875,3,485,1,1,1,0,0,0,0,1,,,,,,0,115,115,115,,,,,,,,,,,,,,,,,,,,,,,,,,,,,,,,,,,,,,,,,,,,,,,,,,,,,,,,,560.5599532999995,561.0623304999999,561.0623304999999,561.8148403999994,561.8148403999994,562.3174932000002,562.3174932000002,563.1977823999996,563.1977823999996,None,num_4,0.29307390000030864,563.1977823999996,560.5599532999995,sad,0,Sad,563.5087557000002,None,None,563.5087557000002,None,,,,,,,,,,,,,,,,,,,,,,,,,,,,,,,,,,,,,,,,,,,,,,,,,,,,,30,001,0,24,500,450,2022_Oct_25_1043,Experiment,2021.1.4,359.9737939112416,
images\S6_M_S_03.png,images\S6_M_S_03_scrambled.png,6,sad,-30,male,1,,456,on,2,0.5,0.75,0.5,0.793,3,455,1,1,2,2,2,32,128,161,,,,,,0,116,116,116,,,,,,,,,,,,,,,,,,,,,,,,,,,,,,,,,,,,,,,,,,,,,,,,,,,,,,,,,563.5559678999998,564.0586076999998,564.0586076999998,564.8083590999995,564.8083590999995,565.3111193999994,565.3111193999994,566.1080007999999,566.1080007999999,None,num_4,0.2467850000002727,566.1080007999999,None,sad,0,Sad,566.3773918399999,None,None,566.3773918399999,None,,,,,,,,,,,,,,,,,,,,,,,,,,,,,,,,,,,,,,,,,,,,,,,,,,,,,30,001,0,24,500,450,2022_Oct_25_1043,Experiment,2021.1.4,359.9737939112416,
images\S7_F_H_03.png,images\S7_F_H_03_scrambled.png,7,happy,30,female,6,,39,off,1,0.5,0.75,0.5,0.798,3,38,1,1,1,0,0,0,0,6,,,,,,0,117,117,117,,,,,,,,,,,,,,,,,,,,,,,,,,,,,,,,,,,,,,,,,,,,,,,,,,,,,,,,,566.4300820999997,566.9327458999996,566.9327458999996,567.6852837999995,567.6852837999995,568.1851036999997,568.1851036999997,568.9876574999998,568.9876574999998,None,num_6,0.5190344000002369,568.9876574999998,None,happy,0,Happy,569.5208088199996,None,None,569.5208088199996,None,,,,,,,,,,,,,,,,,,,,,,,,,,,,,,,,,,,,,,,,,,,,,,,,,,,,,30,001,0,24,500,450,2022_Oct_25_1043,Experiment,2021.1.4,359.9737939112416,
images\S7_F_H_01.png,images\S7_F_H_01_scrambled.png,7,happy,10,female,4,,397,off,1,0.5,0.75,0.5,0.769,3,396,2,2,1,0,0,0,0,4,,,,,,0,118,118,118,,,,,,,,,,,,,,,,,,,,,,,,,,,,,,,,,,,,,,,,,,,,,,,,,,,,,,,,,569.5707874,570.0706331000001,570.0706331000001,570.8232082999994,570.8232082999994,571.3258267000001,571.3258267000001,572.0978266000002,572.0978266000002,None,num_6,0.36922169999979815,572.0978266000002,None,happy,0,Happy,572.4921186400003,None,None,572.4921186400003,None,,,,,,,,,,,,,,,,,,,,,,,,,,,,,,,,,,,,,,,,,,,,,,,,,,,,,30,001,0,24,500,450,2022_Oct_25_1043,Experiment,2021.1.4,359.9737939112416,
images\S5_F_H_03.png,images\S5_F_H_03_scrambled.png,5,happy,30,female,6,,27,off,1,0.5,0.75,0.5,0.825,3,26,3,1,1,0,0,0,0,6,,,,,,0,119,119,119,,,,,,,,,,,,,,,,,,,,,,,,,,,,,,,,,,,,,,,,,,,,,,,,,,,,,,,,,572.5448869000002,573.0475494000002,573.0475494000002,573.8028650999995,573.8028650999995,574.3082475000001,574.3082475000001,575.1385566999998,575.1385566999998,None,num_6,0.4560001999998349,575.1385566999998,None,happy,0,Happy,575.6078075200002,None,None,575.6078075200002,None,,,,,,,,,,,,,,,,,,,,,,,,,,,,,,,,,,,,,,,,,,,,,,,,,,,,,30,001,0,24,500,450,2022_Oct_25_1043,Experiment,2021.1.4,359.9737939112416,
images\S3_F_H_02.png,images\S3_F_H_02_scrambled.png,3,happy,20,female,5,,134,off,1,0.5,0.75,0.5,0.947,3,133,4,1,1,0,0,0,0,5,,,,,,0,120,120,120,,,,,,,,,,,,,,,,,,,,,,,,,,,,,,,,,,,,,,,,,,,,,,,,,,,,,,,,,575.6911359999995,576.1937705,576.1937705,576.9490999,576.9490999,577.4489199,577.4489199,578.3986417999995,578.3986417999995,None,num_6,0.3083507000001191,578.3986417999995,None,happy,0,Happy,578.7180996200003,None,None,578.7180996200003,None,,,,,,,,,,,,,,,,,,,,,,,,,,,,,,,,,,,,,,,,,,,,,,,,,,,,,30,001,0,24,500,450,2022_Oct_25_1043,Experiment,2021.1.4,359.9737939112416,
images\blank.jpg,images\blank.jpg,none,none,none,none,0,,627,on,2,0.5,0.75,0.5,0.816,0,626,1,1,1,3,3,48,192,240,,,,,,0,121,121,121,,,,,,,,,,,,,,,,,,,,,,,,,,,,,,,,,,,,,,,,,,,,,,,,,,,,,,,,,578.8014951999994,579.3011456999993,579.3011456999993,580.0536950999995,580.0536950999995,580.5590962999995,580.5590962999995,581.3811974999999,581.3811974999999,581.3811974999999,None,,581.3811974999999,None,miss,0,,584.3829183799996,None,None,584.3829183799996,None,,,,,,,,,,,,,,,,,,,,,,,,,,,,,,,,,,,,,,,,,,,,,,,,,,,,,30,001,0,24,500,450,2022_Oct_25_1043,Experiment,2021.1.4,359.9737939112416,
images\S2_M_S_02.png,images\S2_M_S_02_scrambled.png,2,sad,-20,male,2,,11,off,1,0.5,0.75,0.5,0.827,3,10,1,1,1,0,0,0,0,2,,,,,,0,122,122,122,,,,,,,,,,,,,,,,,,,,,,,,,,,,,,,,,,,,,,,,,,,,,,,,,,,,,,,,,584.5274578999997,585.0299483999997,585.0299483999997,585.7825899,585.7825899,586.2880014000002,586.2880014000002,587.1182339999996,587.1182339999996,None,num_4,0.32434769999963464,587.1182339999996,584.5274578999997,sad,0,Sad,587.4542057200005,None,None,587.4542057200005,None,,,,,,,,,,,,,,,,,,,,,,,,,,,,,,,,,,,,,,,,,,,,,,,,,,,,,30,001,0,24,500,450,2022_Oct_25_1043,Experiment,2021.1.4,359.9737939112416,
images\S6_M_H_02.png,images\S6_M_H_02_scrambled.png,6,happy,20,male,5,,32,off,1,0.5,0.75,0.5,0.941,3,31,2,1,1,0,0,0,0,5,,,,,,0,123,123,123,,,,,,,,,,,,,,,,,,,,,,,,,,,,,,,,,,,,,,,,,,,,,,,,,,,,,,,,,587.5402653000001,588.0429706999994,588.0429706999994,588.7982708999998,588.7982708999998,589.3036627000001,589.3036627000001,590.2505590000001,590.2505590000001,None,num_6,0.3443628000004537,590.2505590000001,None,happy,0,Happy,590.6087155200001,None,None,590.6087155200001,None,,,,,,,,,,,,,,,,,,,,,,,,,,,,,,,,,,,,,,,,,,,,,,,,,,,,,30,001,0,24,500,450,2022_Oct_25_1043,Experiment,2021.1.4,359.9737939112416,
images\S8_M_H_02.png,images\S8_M_H_02_scrambled.png,8,happy,20,male,5,,224,on,2,0.5,0.75,0.5,0.765,3,223,1,1,2,2,2,32,128,165,,,,,,0,124,124,124,,,,,,,,,,,,,,,,,,,,,,,,,,,,,,,,,,,,,,,,,,,,,,,,,,,,,,,,,590.6559784000001,591.1586493999994,591.1586493999994,591.9139715000001,591.9139715000001,592.4193528999995,592.4193528999995,593.1885916000001,593.1885916000001,None,num_6,0.9820045999995273,593.1885916000001,None,happy,0,Happy,594.1854367200002,None,None,594.1854367200002,None,,,,,,,,,,,,,,,,,,,,,,,,,,,,,,,,,,,,,,,,,,,,,,,,,,,,,30,001,0,24,500,450,2022_Oct_25_1043,Experiment,2021.1.4,359.9737939112416,
images\S2_M_S_03.png,images\S2_M_S_03_scrambled.png,2,sad,-30,male,1,,192,on,2,0.5,0.75,0.5,0.843,3,191,2,1,1,2,2,32,128,161,,,,,,0,125,125,125,,,,,,,,,,,,,,,,,,,,,,,,,,,,,,,,,,,,,,,,,,,,,,,,,,,,,,,,,594.2409290999994,594.7408369999994,594.7408369999994,595.4961655999996,595.4961655999996,595.9988219999996,595.9988219999996,596.8457502000001,596.8457502000001,None,num_4,0.3088127999999415,596.8457502000001,None,sad,0,Sad,597.1651248200004,None,None,597.1651248200004,None,,,,,,,,,,,,,,,,,,,,,,,,,,,,,,,,,,,,,,,,,,,,,,,,,,,,,30,001,0,24,500,450,2022_Oct_25_1043,Experiment,2021.1.4,359.9737939112416,
images\S7_F_S_01.png,images\S7_F_S_01_scrambled.png,7,sad,-10,female,3,,220,on,2,0.5,0.75,0.5,0.927,3,219,3,1,1,2,2,32,128,163,,,,,,0,126,126,126,,,,,,,,,,,,,,,,,,,,,,,,,,,,,,,,,,,,,,,,,,,,,,,,,,,,,,,,,597.2122998999994,597.7149416000002,597.7149416000002,598.4675123999996,598.4675123999996,598.9729554999994,598.9729554999994,599.9031734999999,599.9031734999999,None,num_6,0.7074994000004153,599.9031734999999,None,happy,0,Sad,600.6168064600001,None,None,600.6168064600001,None,,,,,,,,,,,,,,,,,,,,,,,,,,,,,,,,,,,,,,,,,,,,,,,,,,,,,30,001,0,24,500,450,2022_Oct_25_1043,Experiment,2021.1.4,359.9737939112416,
images\S9_F_S_02.png,images\S9_F_S_02_scrambled.png,9,sad,-20,female,2,,413,off,1,0.5,0.75,0.5,0.791,3,412,1,1,1,0,0,0,0,2,,,,,,0,127,127,127,,,,,,,,,,,,,,,,,,,,,,,,,,,,,,,,,,,,,,,,,,,,,,,,,,,,,,,,,600.6640217999993,601.1694460999997,601.1694460999997,601.9219911,601.9219911,602.4218507999994,602.4218507999994,603.2132388999999,603.2132388999999,None,num_6,0.4213847999999416,603.2132388999999,None,happy,0,Sad,603.6436325600002,None,None,603.6436325600002,None,,,,,,,,,,,,,,,,,,,,,,,,,,,,,,,,,,,,,,,,,,,,,,,,,,,,,30,001,0,24,500,450,2022_Oct_25_1043,Experiment,2021.1.4,359.9737939112416,
images\S9_F_S_03.png,images\S9_F_S_03_scrambled.png,9,sad,-30,female,1,,414,off,1,0.5,0.75,0.5,0.81,3,413,2,2,1,0,0,0,0,1,,,,,,0,128,128,128,,,,,,,,,,,,,,,,,,,,,,,,,,,,,,,,,,,,,,,,,,,,,,,,,,,,,,,,,603.6880862999997,604.1935330999995,604.1935330999995,604.9488500999996,604.9488500999996,605.4514289999997,605.4514289999997,606.2650949999997,606.2650949999997,None,num_6,0.6176472999995894,606.2650949999997,None,happy,0,Sad,606.8871483600001,None,None,606.8871483600001,None,,,,,,,,,,,,,,,,,,,,,,,,,,,,,,,,,,,,,,,,,,,,,,,,,,,,,30,001,0,24,500,450,2022_Oct_25_1043,Experiment,2021.1.4,359.9737939112416,
images\S5_F_H_02.png,images\S5_F_H_02_scrambled.png,5,happy,20,female,5,,206,on,2,0.5,0.75,0.5,0.786,3,205,1,1,1,2,2,32,128,165,,,,,,0,129,129,129,,,,,,,,,,,,,,,,,,,,,,,,,,,,,,,,,,,,,,,,,,,,,,,,,,,,,,,,,606.9704113999996,607.473121,607.473121,608.2255866999994,608.2255866999994,608.7282516999994,608.7282516999994,609.5196478999997,609.5196478999997,None,num_6,0.4111871000004612,609.5196478999997,None,happy,0,Happy,609.9584706400007,None,None,609.9584706400007,None,,,,,,,,,,,,,,,,,,,,,,,,,,,,,,,,,,,,,,,,,,,,,,,,,,,,,30,001,0,24,500,450,2022_Oct_25_1043,Experiment,2021.1.4,359.9737939112416,
images\S8_M_S_03.png,images\S8_M_S_03_scrambled.png,8,sad,-30,male,1,,348,on,2,0.5,0.75,0.5,0.79,3,347,2,1,1,2,2,32,128,161,,,,,,0,130,130,130,,,,,,,,,,,,,,,,,,,,,,,,,,,,,,,,,,,,,,,,,,,,,,,,,,,,,,,,,610.0111514999999,610.5138061999996,610.5138061999996,611.2635393,611.2635393,611.7689808999994,611.7689808999994,612.5631390999997,612.5631390999997,None,num_4,0.4394423000003371,612.5631390999997,None,sad,0,Sad,613.018564,None,space,613.018564,None,51.599777400000676,,,,,,,,,,,,,,,,,,,,,,,,,,,,,,,,,,,,,,,,,,,,,,,,,,,,30,001,0,24,500,450,2022_Oct_25_1043,Experiment,2021.1.4,359.9737939112416,
images\S7_F_H_03.png,images\S7_F_H_03_scrambled.png,7,happy,30,female,6,,99,on,2,0.5,0.75,0.5,0.813,3,98,3,1,1,2,2,32,128,166,,,,,,0,131,131,131,,,,,,,,,,,,,,,,,,,,,,,,,,,,,,,,,,,,,,,,,,,,,,,,,,,,,,,,,664.6776771999994,665.1831219999995,665.1831219999995,665.9328605999999,665.9328605999999,666.4354840999995,666.4354840999995,667.2519852999994,667.2519852999994,None,num_6,0.35893939999914437,667.2519852999994,None,happy,0,Happy,667.6213083199999,None,None,667.6213083199999,None,,,,,,,,,,,,,,,,,,,,,,,,,,,,,,,,,,,,,,,,,,,,,,,,,,,,,30,001,0,24,500,450,2022_Oct_25_1043,Experiment,2021.1.4,359.9737939112416,
images\S6_M_H_01.png,images\S6_M_H_01_scrambled.png,6,happy,10,male,4,,451,on,2,0.5,0.75,0.5,0.823,3,450,4,1,1,2,2,32,128,164,,,,,,0,132,132,132,,,,,,,,,,,,,,,,,,,,,,,,,,,,,,,,,,,,,,,,,,,,,,,,,,,,,,,,,667.6851028000001,668.1877426000001,668.1877426000001,668.9374933999998,668.9374933999998,669.4429381,669.4429381,670.2704171999994,670.2704171999994,None,num_6,0.4683655999997427,670.2704171999994,None,happy,0,Happy,670.7536185200005,None,None,670.7536185200005,None,,,,,,,,,,,,,,,,,,,,,,,,,,,,,,,,,,,,,,,,,,,,,,,,,,,,,30,001,0,24,500,450,2022_Oct_25_1043,Experiment,2021.1.4,359.9737939112416,
images\S4_M_S_02.png,images\S4_M_S_02_scrambled.png,4,sad,-20,male,2,,83,on,2,0.5,0.75,0.5,0.842,3,82,5,1,1,2,2,32,128,162,,,,,,0,133,133,133,,,,,,,,,,,,,,,,,,,,,,,,,,,,,,,,,,,,,,,,,,,,,,,,,,,,,,,,,670.8008185999997,671.3034284999994,671.3034284999994,672.0561053000001,672.0561053000001,672.5615050999995,672.5615050999995,673.4083818999998,673.4083818999998,None,num_4,0.2742969000000812,673.4083818999998,None,sad,0,Sad,673.6999342200005,None,None,673.6999342200005,None,,,,,,,,,,,,,,,,,,,,,,,,,,,,,,,,,,,,,,,,,,,,,,,,,,,,,30,001,0,24,500,450,2022_Oct_25_1043,Experiment,2021.1.4,359.9737939112416,
images\S2_M_H_03.png,images\S2_M_H_03_scrambled.png,2,happy,30,male,6,,189,on,2,0.5,0.75,0.5,0.914,3,188,6,1,1,2,2,32,128,166,,,,,,0,134,134,134,,,,,,,,,,,,,,,,,,,,,,,,,,,,,,,,,,,,,,,,,,,,,,,,,,,,,,,,,673.7832487999995,674.2858495999999,674.2858495999999,675.0356433999996,675.0356433999996,675.5411528999994,675.5411528999994,676.4574137,676.4574137,None,num_6,0.35319970000000467,676.4574137,None,happy,0,Happy,676.8239373200003,None,None,676.8239373200003,None,,,,,,,,,,,,,,,,,,,,,,,,,,,,,,,,,,,,,,,,,,,,,,,,,,,,,30,001,0,24,500,450,2022_Oct_25_1043,Experiment,2021.1.4,359.9737939112416,
images\S10_M_H_01.png,images\S10_M_H_01_scrambled.png,10,happy,10,male,4,,475,on,2,0.5,0.75,0.5,0.796,3,474,7,1,1,2,2,32,128,164,,,,,,0,135,135,135,,,,,,,,,,,,,,,,,,,,,,,,,,,,,,,,,,,,,,,,,,,,,,,,,,,,,,,,,676.8711718999994,677.3767108000002,677.3767108000002,678.1263708999995,678.1263708999995,678.6261835999994,678.6261835999994,679.4231579999996,679.4231579999996,None,num_6,0.33155470000019704,679.4231579999996,None,happy,0,Happy,679.7869718000002,None,None,679.7869718000002,None,,,,,,,,,,,,,,,,,,,,,,,,,,,,,,,,,,,,,,,,,,,,,,,,,,,,,30,001,0,24,500,450,2022_Oct_25_1043,Experiment,2021.1.4,359.9737939112416,
images\S5_F_S_01.png,images\S5_F_S_01_scrambled.png,5,sad,-10,female,3,,268,off,1,0.5,0.75,0.5,0.792,3,267,1,1,1,0,0,0,0,3,,,,,,0,136,136,136,,,,,,,,,,,,,,,,,,,,,,,,,,,,,,,,,,,,,,,,,,,,,,,,,,,,,,,,,679.8507937999993,680.3534285999995,680.3534285999995,681.1087779999998,681.1087779999998,681.6113790999998,681.6113790999998,682.4055855999995,682.4055855999995,None,num_6,0.453182299999753,682.4055855999995,None,happy,0,Sad,682.8665678400004,None,None,682.8665678400004,None,,,,,,,,,,,,,,,,,,,,,,,,,,,,,,,,,,,,,,,,,,,,,,,,,,,,,30,001,0,24,500,450,2022_Oct_25_1043,Experiment,2021.1.4,359.9737939112416,
images\S9_F_H_01.png,images\S9_F_H_01_scrambled.png,9,happy,10,female,4,,289,off,1,0.5,0.75,0.5,0.875,3,288,2,1,1,0,0,0,0,4,,,,,,0,137,137,137,,,,,,,,,,,,,,,,,,,,,,,,,,,,,,,,,,,,,,,,,,,,,,,,,,,,,,,,,682.9304228000001,683.4302673000002,683.4302673000002,684.1800426999998,684.1800426999998,684.6826781999998,684.6826781999998,685.5629884999998,685.5629884999998,None,num_6,0.3838453999997,685.5629884999998,None,happy,0,Happy,685.95739012,None,None,685.95739012,None,,,,,,,,,,,,,,,,,,,,,,,,,,,,,,,,,,,,,,,,,,,,,,,,,,,,,30,001,0,24,500,450,2022_Oct_25_1043,Experiment,2021.1.4,359.9737939112416,
images\S9_F_H_02.png,images\S9_F_H_02_scrambled.png,9,happy,20,female,5,,170,off,1,0.5,0.75,0.5,0.937,3,169,3,2,1,0,0,0,0,5,,,,,,0,138,138,138,,,,,,,,,,,,,,,,,,,,,,,,,,,,,,,,,,,,,,,,,,,,,,,,,,,,,,,,,686.0044798999998,686.5071424999996,686.5071424999996,687.2568942999997,687.2568942999997,687.7623134999994,687.7623134999994,688.7036681999998,688.7036681999998,None,num_6,0.5311541999999463,688.7036681999998,None,happy,0,Happy,689.2479162199996,None,None,689.2479162199996,None,,,,,,,,,,,,,,,,,,,,,,,,,,,,,,,,,,,,,,,,,,,,,,,,,,,,,30,001,0,24,500,450,2022_Oct_25_1043,Experiment,2021.1.4,359.9737939112416,
images\S6_M_S_03.png,images\S6_M_S_03_scrambled.png,6,sad,-30,male,1,,276,off,1,0.5,0.75,0.5,0.826,3,275,4,1,1,0,0,0,0,1,,,,,,0,139,139,139,,,,,,,,,,,,,,,,,,,,,,,,,,,,,,,,,,,,,,,,,,,,,,,,,,,,,,,,,689.2951370999999,689.7978003999997,689.7978003999997,690.5503481999995,690.5503481999995,691.0529680999998,691.0529680999998,691.8832254999998,691.8832254999998,None,num_4,0.2555980000006457,691.8832254999998,None,sad,0,Sad,692.1610006400002,None,None,692.1610006400002,None,,,,,,,,,,,,,,,,,,,,,,,,,,,,,,,,,,,,,,,,,,,,,,,,,,,,,30,001,0,24,500,450,2022_Oct_25_1043,Experiment,2021.1.4,359.9737939112416,
