image_face,image_scram,avatar,emo,emotion,sex,trigeeg,dac,trial_no,NMES,stimtime,baseline,iti,face,scr_face,resp_time,index,count_NMES,count_avatar,count_emotion,dac1,dac2,dac1_output,dac2_output,trigs_out,nmes,practice_trials.thisRepN,practice_trials.thisTrialN,practice_trials.thisN,practice_trials.thisIndex,real_trials.thisRepN,real_trials.thisTrialN,real_trials.thisN,real_trials.thisIndex,trials.thisRepN,trials.thisTrialN,trials.thisN,trials.thisIndex,position,Welcome.started,Welcome.stopped,Welcome_resp.keys,Welcome_resp.rt,text_2.started,text_2.stopped,form_2.index,form_2.itemText,form_2.type,form_2.response,form_2.rt,key_resp_4.keys,key_resp_4.rt,key_resp_4.started,key_resp_4.stopped,instructions.started,instructions.stopped,end_instr.keys,end_instr.rt,instructions_2.started,instructions_2.stopped,end_instr_2.keys,end_instr_2.rt,end_instr_2.started,end_instr_2.stopped,instruct_keypress.started,instruct_keypress.stopped,end_instruct_keypress.keys,end_instruct_keypress.rt,start_practice.started,start_practice.stopped,start_practice_resp.keys,start_practice_resp.rt,prac_baseline.started,prac_baseline.stopped,prac_iti.started,prac_iti.stopped,prac_stimulus.started,prac_stimulus.stopped,prac_scram_stim.started,prac_scram_stim.stopped,prac_stimulus_resp.started,prac_stimulus_resp.stopped,prac_resp.keys,prac_resp.started,prac_resp.stopped,prac_resp.rt,transition_to_real.started,transition_to_real.stopped,end_transition_to_real.keys,end_transition_to_real.rt,fixation_cross.started,fixation_cross.stopped,tr_iti.started,tr_iti.stopped,stimulus.started,stimulus.stopped,scram_stim.started,scram_stim.stopped,response_txt.started,response_txt.stopped,response.keys,response.rt,response.started,response.stopped,participant_Resp,grouping,corAnswer,break_msg.started,break_msg.stopped,end_break.keys,end_break.started,end_break.stopped,end_break.rt,text.started,text.stopped,key_resp_3.keys,key_resp_3.rt,key_resp_3.started,key_resp_3.stopped,fix_cross_comf.started,fix_cross_comf.stopped,stimulation_comf.started,stimulation_comf.stopped,rate_instr.started,rate_instr.stopped,comfort_rating.response,comfort_rating.rt,comfort_rating.started,comfort_rating.stopped,resp_form.keys,resp_form.rt,resp_form.started,resp_form.stopped,survey_instructions.started,survey_instructions.stopped,key_resp_2.keys,key_resp_2.rt,key_resp_2.started,key_resp_2.stopped,form.index,form.itemText,form.type,form.response,form.rt,key_resp.keys,key_resp.rt,key_resp.started,key_resp.stopped,text_3.started,text_3.stopped,rate_smile.response,rate_smile.rt,rate_smile.started,rate_smile.stopped,key_resp_5.keys,key_resp_5.rt,key_resp_5.started,key_resp_5.stopped,end_msg.started,end_msg.stopped,end_resp.keys,end_resp.rt,end_resp.started,end_resp.stopped,participant,session,gender,age,LEFT,RIGHT,date,expName,psychopyVersion,frameRate,
,,,,,,,,,,,,,,,,,,,,,,,,,,,,,,,,,,,,,,H-S,20.499971500001266,None,num_add,5.032945000002655,,,,,,,,,,,,,,,,,,,,,,,,,,,,,,,,,,,,,,,,,,,,,,,,,,,,,,,,,,,,,,,,,,,,,,,,,,,,,,,,,,,,,,,,,,,,,,,,,,,,,,,,,,,,,,,,,,,,,,,,,,31,001,0,23,310,310,2022_Oct_25_1430,Experiment,2021.1.4,360.32270499695255,
,,,,,,,,,,,,,,,,,,,,,,,,,,,,,,,,,,,,,,,,,,,25.54447000000073,27.588297900001635,1,"This scale consistes of a number of words that describe different feelings and emotion. Read each item and then list the number from the scale below each word. Indicate (by clicking) to what extend you feel this way RIGHT NOW, that is, AT THE PRESENT MOMENT.",description,,,,,,,,,,,,,,,,,,,,,,,,,,,,,,,,,,,,,,,,,,,,,,,,,,,,,,,,,,,,,,,,,,,,,,,,,,,,,,,,,,,,,,,,,,,,,,,,,,,,,,,,,,,,,,,,,,,,,31,001,0,23,310,310,2022_Oct_25_1430,Experiment,2021.1.4,360.32270499695255,
,,,,,,,,,,,,,,,,,,,,,,,,,,,,,,,,,,,,,,,,,,,,,2,Interested,rating,5.0,12.450765700003103,,,,,,,,,,,,,,,,,,,,,,,,,,,,,,,,,,,,,,,,,,,,,,,,,,,,,,,,,,,,,,,,,,,,,,,,,,,,,,,,,,,,,,,,,,,,,,,,,,,,,,,,,,,,,,,,,,,31,001,0,23,310,310,2022_Oct_25_1430,Experiment,2021.1.4,360.32270499695255,
,,,,,,,,,,,,,,,,,,,,,,,,,,,,,,,,,,,,,,,,,,,,,3,Distressed,rating,2.0,15.360948800000187,,,,,,,,,,,,,,,,,,,,,,,,,,,,,,,,,,,,,,,,,,,,,,,,,,,,,,,,,,,,,,,,,,,,,,,,,,,,,,,,,,,,,,,,,,,,,,,,,,,,,,,,,,,,,,,,,,,31,001,0,23,310,310,2022_Oct_25_1430,Experiment,2021.1.4,360.32270499695255,
,,,,,,,,,,,,,,,,,,,,,,,,,,,,,,,,,,,,,,,,,,,,,4,Excited,rating,4.0,17.22065599999769,,,,,,,,,,,,,,,,,,,,,,,,,,,,,,,,,,,,,,,,,,,,,,,,,,,,,,,,,,,,,,,,,,,,,,,,,,,,,,,,,,,,,,,,,,,,,,,,,,,,,,,,,,,,,,,,,,,31,001,0,23,310,310,2022_Oct_25_1430,Experiment,2021.1.4,360.32270499695255,
,,,,,,,,,,,,,,,,,,,,,,,,,,,,,,,,,,,,,,,,,,,,,5,Upset,rating,1.0,22.25291010000001,,,,,,,,,,,,,,,,,,,,,,,,,,,,,,,,,,,,,,,,,,,,,,,,,,,,,,,,,,,,,,,,,,,,,,,,,,,,,,,,,,,,,,,,,,,,,,,,,,,,,,,,,,,,,,,,,,,31,001,0,23,310,310,2022_Oct_25_1430,Experiment,2021.1.4,360.32270499695255,
,,,,,,,,,,,,,,,,,,,,,,,,,,,,,,,,,,,,,,,,,,,,,6,Strong,rating,3.0,23.469158800002333,,,,,,,,,,,,,,,,,,,,,,,,,,,,,,,,,,,,,,,,,,,,,,,,,,,,,,,,,,,,,,,,,,,,,,,,,,,,,,,,,,,,,,,,,,,,,,,,,,,,,,,,,,,,,,,,,,,31,001,0,23,310,310,2022_Oct_25_1430,Experiment,2021.1.4,360.32270499695255,
,,,,,,,,,,,,,,,,,,,,,,,,,,,,,,,,,,,,,,,,,,,,,7,Guilty,rating,1.0,6.4654325999981666,,,,,,,,,,,,,,,,,,,,,,,,,,,,,,,,,,,,,,,,,,,,,,,,,,,,,,,,,,,,,,,,,,,,,,,,,,,,,,,,,,,,,,,,,,,,,,,,,,,,,,,,,,,,,,,,,,,31,001,0,23,310,310,2022_Oct_25_1430,Experiment,2021.1.4,360.32270499695255,
,,,,,,,,,,,,,,,,,,,,,,,,,,,,,,,,,,,,,,,,,,,,,8,Scared,rating,2.0,11.101287100002082,,,,,,,,,,,,,,,,,,,,,,,,,,,,,,,,,,,,,,,,,,,,,,,,,,,,,,,,,,,,,,,,,,,,,,,,,,,,,,,,,,,,,,,,,,,,,,,,,,,,,,,,,,,,,,,,,,,31,001,0,23,310,310,2022_Oct_25_1430,Experiment,2021.1.4,360.32270499695255,
,,,,,,,,,,,,,,,,,,,,,,,,,,,,,,,,,,,,,,,,,,,,,9,Hostile,rating,1.0,11.424940200002311,,,,,,,,,,,,,,,,,,,,,,,,,,,,,,,,,,,,,,,,,,,,,,,,,,,,,,,,,,,,,,,,,,,,,,,,,,,,,,,,,,,,,,,,,,,,,,,,,,,,,,,,,,,,,,,,,,,31,001,0,23,310,310,2022_Oct_25_1430,Experiment,2021.1.4,360.32270499695255,
,,,,,,,,,,,,,,,,,,,,,,,,,,,,,,,,,,,,,,,,,,,,,10,Enthusiastic,rating,4.0,8.208987300000445,,,,,,,,,,,,,,,,,,,,,,,,,,,,,,,,,,,,,,,,,,,,,,,,,,,,,,,,,,,,,,,,,,,,,,,,,,,,,,,,,,,,,,,,,,,,,,,,,,,,,,,,,,,,,,,,,,,31,001,0,23,310,310,2022_Oct_25_1430,Experiment,2021.1.4,360.32270499695255,
,,,,,,,,,,,,,,,,,,,,,,,,,,,,,,,,,,,,,,,,,,,,,11,Proud,rating,2.0,8.758105100001558,,,,,,,,,,,,,,,,,,,,,,,,,,,,,,,,,,,,,,,,,,,,,,,,,,,,,,,,,,,,,,,,,,,,,,,,,,,,,,,,,,,,,,,,,,,,,,,,,,,,,,,,,,,,,,,,,,,31,001,0,23,310,310,2022_Oct_25_1430,Experiment,2021.1.4,360.32270499695255,
,,,,,,,,,,,,,,,,,,,,,,,,,,,,,,,,,,,,,,,,,,,,,12,Irritable,rating,2.0,5.923371799999586,,,,,,,,,,,,,,,,,,,,,,,,,,,,,,,,,,,,,,,,,,,,,,,,,,,,,,,,,,,,,,,,,,,,,,,,,,,,,,,,,,,,,,,,,,,,,,,,,,,,,,,,,,,,,,,,,,,31,001,0,23,310,310,2022_Oct_25_1430,Experiment,2021.1.4,360.32270499695255,
,,,,,,,,,,,,,,,,,,,,,,,,,,,,,,,,,,,,,,,,,,,,,13,Alert,rating,4.0,7.2887834000030125,,,,,,,,,,,,,,,,,,,,,,,,,,,,,,,,,,,,,,,,,,,,,,,,,,,,,,,,,,,,,,,,,,,,,,,,,,,,,,,,,,,,,,,,,,,,,,,,,,,,,,,,,,,,,,,,,,,31,001,0,23,310,310,2022_Oct_25_1430,Experiment,2021.1.4,360.32270499695255,
,,,,,,,,,,,,,,,,,,,,,,,,,,,,,,,,,,,,,,,,,,,,,14,Ashamed,rating,1.0,12.331916699997237,,,,,,,,,,,,,,,,,,,,,,,,,,,,,,,,,,,,,,,,,,,,,,,,,,,,,,,,,,,,,,,,,,,,,,,,,,,,,,,,,,,,,,,,,,,,,,,,,,,,,,,,,,,,,,,,,,,31,001,0,23,310,310,2022_Oct_25_1430,Experiment,2021.1.4,360.32270499695255,
,,,,,,,,,,,,,,,,,,,,,,,,,,,,,,,,,,,,,,,,,,,,,15,Inspired,rating,3.0,13.811293599999772,,,,,,,,,,,,,,,,,,,,,,,,,,,,,,,,,,,,,,,,,,,,,,,,,,,,,,,,,,,,,,,,,,,,,,,,,,,,,,,,,,,,,,,,,,,,,,,,,,,,,,,,,,,,,,,,,,,31,001,0,23,310,310,2022_Oct_25_1430,Experiment,2021.1.4,360.32270499695255,
,,,,,,,,,,,,,,,,,,,,,,,,,,,,,,,,,,,,,,,,,,,,,16,Nervous,rating,3.0,6.950336300000345,,,,,,,,,,,,,,,,,,,,,,,,,,,,,,,,,,,,,,,,,,,,,,,,,,,,,,,,,,,,,,,,,,,,,,,,,,,,,,,,,,,,,,,,,,,,,,,,,,,,,,,,,,,,,,,,,,,31,001,0,23,310,310,2022_Oct_25_1430,Experiment,2021.1.4,360.32270499695255,
,,,,,,,,,,,,,,,,,,,,,,,,,,,,,,,,,,,,,,,,,,,,,17,Determined,rating,3.0,11.39636000000246,,,,,,,,,,,,,,,,,,,,,,,,,,,,,,,,,,,,,,,,,,,,,,,,,,,,,,,,,,,,,,,,,,,,,,,,,,,,,,,,,,,,,,,,,,,,,,,,,,,,,,,,,,,,,,,,,,,31,001,0,23,310,310,2022_Oct_25_1430,Experiment,2021.1.4,360.32270499695255,
,,,,,,,,,,,,,,,,,,,,,,,,,,,,,,,,,,,,,,,,,,,,,18,Attentive,rating,4.0,13.052355399999215,,,,,,,,,,,,,,,,,,,,,,,,,,,,,,,,,,,,,,,,,,,,,,,,,,,,,,,,,,,,,,,,,,,,,,,,,,,,,,,,,,,,,,,,,,,,,,,,,,,,,,,,,,,,,,,,,,,31,001,0,23,310,310,2022_Oct_25_1430,Experiment,2021.1.4,360.32270499695255,
,,,,,,,,,,,,,,,,,,,,,,,,,,,,,,,,,,,,,,,,,,,,,19,Jittery,rating,3.0,7.719987899999978,,,,,,,,,,,,,,,,,,,,,,,,,,,,,,,,,,,,,,,,,,,,,,,,,,,,,,,,,,,,,,,,,,,,,,,,,,,,,,,,,,,,,,,,,,,,,,,,,,,,,,,,,,,,,,,,,,,31,001,0,23,310,310,2022_Oct_25_1430,Experiment,2021.1.4,360.32270499695255,
,,,,,,,,,,,,,,,,,,,,,,,,,,,,,,,,,,,,,,,,,,,,,20,Active,rating,4.0,11.771799499998451,,,,,,,,,,,,,,,,,,,,,,,,,,,,,,,,,,,,,,,,,,,,,,,,,,,,,,,,,,,,,,,,,,,,,,,,,,,,,,,,,,,,,,,,,,,,,,,,,,,,,,,,,,,,,,,,,,,31,001,0,23,310,310,2022_Oct_25_1430,Experiment,2021.1.4,360.32270499695255,
,,,,,,,,,,,,,,,,,,,,,,,,,,,,,,,,,,,,,,,,,,,,,21,Afraid,rating,2.0,13.262151099999755,,,,,,,,,,,,,,,,,,,,,,,,,,,,,,,,,,,,,,,,,,,,,,,,,,,,,,,,,,,,,,,,,,,,,,,,,,,,,,,,,,,,,,,,,,,,,,,,,,,,,,,,,,,,,,,,,,,31,001,0,23,310,310,2022_Oct_25_1430,Experiment,2021.1.4,360.32270499695255,
,,,,,,,,,,,,,,,,,,,,,,,,,,,,,,,,,,,,,,,,,,,,,22,Press the + button to submit your answers,description,,,,,,,,,,,,,,,,,,,,,,,,,,,,,,,,,,,,,,,,,,,,,,,,,,,,,,,,,,,,,,,,,,,,,,,,,,,,,,,,,,,,,,,,,,,,,,,,,,,,,,,,,,,,,,,,,,,,,31,001,0,23,310,310,2022_Oct_25_1430,Experiment,2021.1.4,360.32270499695255,
,,,,,,,,,,,,,,,,,,,,,,,,,,,,,,,,,,,,,,,,,,,,,,,,,,num_add,56.79047419999915,35.566387900002155,None,,,,,,,,,,,,,,,,,,,,,,,,,,,,,,,,,,,,,,,,,,,,,,,,,,,,,,,,,,,,,,,,,,,,,,,,,,,,,,,,,,,,,,,,,,,,,,,,,,,,,,,,,,,,,,,31,001,0,23,310,310,2022_Oct_25_1430,Experiment,2021.1.4,360.32270499695255,
,,,,,,,,,,,,,,,,,,,,,,,,,,,,,,,,,,,,,,,,,,,,,,,,,,,,,,92.3685312000016,None,num_add,20.63657179999791,,,,,,,,,,,,,,,,,,,,,,,,,,,,,,,,,,,,,,,,,,,,,,,,,,,,,,,,,,,,,,,,,,,,,,,,,,,,,,,,,,,,,,,,,,,,,,,,,,,,,,,,,,,31,001,0,23,310,310,2022_Oct_25_1430,Experiment,2021.1.4,360.32270499695255,
,,,,,,,,,,,,,,,,,,,,,,,,,,,,,,,,,,,,,,,,,,,,,,,,,,,,,,,,,,113.01763100000244,None,num_add,7.931248699998832,113.01763100000244,None,,,,,,,,,,,,,,,,,,,,,,,,,,,,,,,,,,,,,,,,,,,,,,,,,,,,,,,,,,,,,,,,,,,,,,,,,,,,,,,,,,,,,,,,,,,,,,,,,,,,,31,001,0,23,310,310,2022_Oct_25_1430,Experiment,2021.1.4,360.32270499695255,
,,,,,,,,,,,,,,,,,,,,,,,,,,,,,,,,,,,,,,,,,,,,,,,,,,,,,,,,,,,,,,,,120.96796200000244,None,num_add,8.644952899998316,,,,,,,,,,,,,,,,,,,,,,,,,,,,,,,,,,,,,,,,,,,,,,,,,,,,,,,,,,,,,,,,,,,,,,,,,,,,,,,,,,,,,,,,,,,,,,,,,31,001,0,23,310,310,2022_Oct_25_1430,Experiment,2021.1.4,360.32270499695255,
,,,,,,,,,,,,,,,,,,,,,,,,,,,,,,,,,,,,,,,,,,,,,,,,,,,,,,,,,,,,,,,,,,,,129.6264243000005,None,space,168.52254229999744,,,,,,,,,,,,,,,,,,,,,,,,,,,,,,,,,,,,,,,,,,,,,,,,,,,,,,,,,,,,,,,,,,,,,,,,,,,,,,,,,,,,,,,,,,,,,31,001,0,23,310,310,2022_Oct_25_1430,Experiment,2021.1.4,360.32270499695255,
images\S22_M_S_02.png,images\S22_M_S_02_scrambled.png,22,Sad,0.2,M,0,0,practice,off,1,0.5,0.75,0.5,0.751,3,,,,,,,,,,,0,0,0,3,,,,,,,,,,,,,,,,,,,,,,,,,,,,,,,,,,,,,,,,,,,298.2802017000031,298.7800422,298.7800422,299.5298085000031,299.5298085000031,300.0324778000031,300.0324778000031,300.78776180000204,300.78776180000204,None,None,300.78776180000204,None,,,,,,,,,,,,,,,,,,,,,,,,,,,,,,,,,,,,,,,,,,,,,,,,,,,,,,,,,,,,,,,,,,,,,,,,,,,,,,,,31,001,0,23,310,310,2022_Oct_25_1430,Experiment,2021.1.4,360.32270499695255,
images\S22_M_S_03.png,images\S22_M_S_03_scrambled.png,22,Sad,0.3,M,0,0,practice,on,2,0.5,0.75,0.5,0.794,3,,,,,,,,,,,0,1,1,7,,,,,,,,,,,,,,,,,,,,,,,,,,,,,,,,,,,,,,,,,,,303.8340524000014,304.3394627000016,304.3394627000016,305.0920017999997,305.0920017999997,305.5974410000017,305.5974410000017,306.3972074000012,306.3972074000012,303.8340524000014,num_4,306.3972074000012,303.8340524000014,1.1520435999991605,,,,,,,,,,,,,,,,,,,,,,,,,,,,,,,,,,,,,,,,,,,,,,,,,,,,,,,,,,,,,,,,,,,,,,,,,,,,,,,31,001,0,23,310,310,2022_Oct_25_1430,Experiment,2021.1.4,360.32270499695255,
images\S22_M_S_02.png,images\S22_M_S_02_scrambled.png,22,Sad,0.2,M,0,0,practice,on,2,0.5,0.75,0.5,0.783,3,,,,,,,,,,,0,2,2,6,,,,,,,,,,,,,,,,,,,,,,,,,,,,,,,,,,,,,,,,,,,307.6245874000015,308.12723259999984,308.12723259999984,308.8769506000026,308.8769506000026,309.382382900003,309.382382900003,310.16824460000134,310.16824460000134,None,num_4,310.16824460000134,None,0.4532182000002649,,,,,,,,,,,,,,,,,,,,,,,,,,,,,,,,,,,,,,,,,,,,,,,,,,,,,,,,,,,,,,,,,,,,,,,,,,,,,,,31,001,0,23,310,310,2022_Oct_25_1430,Experiment,2021.1.4,360.32270499695255,
images\S22_M_H_02.png,images\S22_M_H_02_scrambled.png,22,Happy,-0.2,M,0,0,practice,off,1,0.5,0.75,0.5,0.883,3,,,,,,,,,,,0,3,3,2,,,,,,,,,,,,,,,,,,,,,,,,,,,,,,,,,,,,,,,,,,,310.6819452000018,311.18457390000185,311.18457390000185,311.9371707999999,311.9371707999999,312.4425521000012,312.4425521000012,313.32837970000037,313.32837970000037,None,num_4,313.32837970000037,None,1.1092707000025257,,,,,,,,,,,,,,,,,,,,,,,,,,,,,,,,,,,,,,,,,,,,,,,,,,,,,,,,,,,,,,,,,,,,,,,,,,,,,,,31,001,0,23,310,310,2022_Oct_25_1430,Experiment,2021.1.4,360.32270499695255,
images\S21_F_H_02.png,images\S21_F_H_02_scrambled.png,21,Happy,-0.2,F,0,0,practice,off,1,0.5,0.75,0.5,0.91,3,,,,,,,,,,,0,4,4,1,,,,,,,,,,,,,,,,,,,,,,,,,,,,,,,,,,,,,,,,,,,314.4891452000011,314.9945289000025,314.9945289000025,315.74984940000286,315.74984940000286,316.2524806000001,316.2524806000001,317.16888010000184,317.16888010000184,None,num_4,317.16888010000184,None,1.0126165000001492,,,,,,,,,,,,,,,,,,,,,,,,,,,,,,,,,,,,,,,,,,,,,,,,,,,,,,,,,,,,,,,,,,,,,,,,,,,,,,,31,001,0,23,310,310,2022_Oct_25_1430,Experiment,2021.1.4,360.32270499695255,
images\S21_F_H_01.png,images\S21_F_H_01_scrambled.png,21,Happy,-0.1,F,0,0,practice,off,1,0.5,0.75,0.5,0.853,3,,,,,,,,,,,0,5,5,0,,,,,,,,,,,,,,,,,,,,,,,,,,,,,,,,,,,,,,,,,,,318.2379602000001,318.7405905000014,318.7405905000014,319.4931840999998,319.4931840999998,319.99856900000304,319.99856900000304,320.85104400000273,320.85104400000273,None,num_4,320.85104400000273,None,0.7624343999996199,,,,,,,,,,,,,,,,,,,,,,,,,,,,,,,,,,,,,,,,,,,,,,,,,,,,,,,,,,,,,,,,,,,,,,,,,,,,,,,31,001,0,23,310,310,2022_Oct_25_1430,Experiment,2021.1.4,360.32270499695255,
images\S22_M_S_01.png,images\S22_M_S_01_scrambled.png,22,Sad,0.1,M,0,0,practice,on,2,0.5,0.75,0.5,0.867,3,,,,,,,,,,,0,6,6,5,,,,,,,,,,,,,,,,,,,,,,,,,,,,,,,,,,,,,,,,,,,321.6702424000032,322.17010500000106,322.17010500000106,322.92272070000035,322.92272070000035,323.42808960000184,323.42808960000184,324.2973501000015,324.2973501000015,None,num_4,324.2973501000015,None,0.7321072999984608,,,,,,,,,,,,,,,,,,,,,,,,,,,,,,,,,,,,,,,,,,,,,,,,,,,,,,,,,,,,,,,,,,,,,,,,,,,,,,,31,001,0,23,310,310,2022_Oct_25_1430,Experiment,2021.1.4,360.32270499695255,
images\S22_M_S_03.png,images\S22_M_S_03_scrambled.png,22,Sad,0.3,M,0,0,practice,on,2,0.5,0.75,0.5,0.87,3,,,,,,,,,,,0,7,7,4,,,,,,,,,,,,,,,,,,,,,,,,,,,,,,,,,,,,,,,,,,,325.08585700000185,325.58851450000293,325.58851450000293,326.3410242000027,326.3410242000027,326.84368590000304,326.84368590000304,327.71843490000174,327.71843490000174,None,num_6,327.71843490000174,None,0.39932839999892167,,,,,,,,,,,,,,,,,,,,,,,,,,,,,,,,,,,,,,,,,,,,,,,,,,,,,,,,,,,,,,,,,,,,,,,,,,,,,,,31,001,0,23,310,310,2022_Oct_25_1430,Experiment,2021.1.4,360.32270499695255,
,,,,,,,,,,,,,,,,,,,,,,,,,,,,,,,,,,,,,,,,,,,,,,,,,,,,,,,,,,,,,,,,,,,,,,,,,,,,,,,,,,,,,,328.17388370000117,None,space,63.895268600001145,,,,,,,,,,,,,,,,,,,,,,,,,,,,,,,,,,,,,,,,,,,,,,,,,,,,,,,,,,,,,,,,,,,,,,,,,,,31,001,0,23,310,310,2022_Oct_25_1430,Experiment,2021.1.4,360.32270499695255,
images\S9_F_S_02.png,images\S9_F_S_02_scrambled.png,9,sad,-20,female,2,,533,off,1,0.5,0.75,0.5,0.793,3,532,1,1,1,0,0,0,0,2,,,,,,0,0,0,0,,,,,,,,,,,,,,,,,,,,,,,,,,,,,,,,,,,,,,,,,,,,,,,,,,,,,,,,,392.5623575000027,393.0649819999999,393.0649819999999,393.81767460000265,393.81767460000265,394.3229867000009,394.3229867000009,395.12279280000075,395.12279280000075,None,num_6,1.7388085999991745,395.12279280000075,None,sad,1,Sad,396.8749673000002,None,None,396.8749673000002,None,,,,,,,,,,,,,,,,,,,,,,,,,,,,,,,,,,,,,,,,,,,,,,,,,,,,,31,001,0,23,310,310,2022_Oct_25_1430,Experiment,2021.1.4,360.32270499695255,
images\S9_F_H_02.png,images\S9_F_H_02_scrambled.png,9,happy,20,female,5,,170,off,1,0.5,0.75,0.5,0.937,3,169,2,2,1,0,0,0,0,5,,,,,,0,1,1,1,,,,,,,,,,,,,,,,,,,,,,,,,,,,,,,,,,,,,,,,,,,,,,,,,,,,,,,,,396.9249122000001,397.42766810000103,397.42766810000103,398.1773047000024,398.1773047000024,398.6799720000017,398.6799720000017,399.62414080000235,399.62414080000235,None,num_4,0.5655470999990939,399.62414080000235,None,happy,1,Happy,400.2044193800015,None,None,400.2044193800015,None,,,,,,,,,,,,,,,,,,,,,,,,,,,,,,,,,,,,,,,,,,,,,,,,,,,,,31,001,0,23,310,310,2022_Oct_25_1430,Experiment,2021.1.4,360.32270499695255,
images\S5_F_H_02.png,images\S5_F_H_02_scrambled.png,5,happy,20,female,5,,326,on,2,0.5,0.75,0.5,0.894,3,325,1,1,2,2,2,32,128,165,,,,,,0,2,2,2,,,,,,,,,,,,,,,,,,,,,,,,,,,,,,,,,,,,,,,,,,,,,,,,,,,,,,,,,400.251671500002,400.75429369999983,400.75429369999983,401.50405890000184,401.50405890000184,402.0095008999997,402.0095008999997,402.9092414000006,402.9092414000006,None,num_4,0.8563433999988774,402.9092414000006,None,happy,1,Happy,403.7839408000018,None,None,403.7839408000018,None,,,,,,,,,,,,,,,,,,,,,,,,,,,,,,,,,,,,,,,,,,,,,,,,,,,,,31,001,0,23,310,310,2022_Oct_25_1430,Experiment,2021.1.4,360.32270499695255,
images\S5_F_S_03.png,images\S5_F_S_03_scrambled.png,5,sad,-30,female,1,,210,on,2,0.5,0.75,0.5,0.784,3,209,2,2,1,2,2,32,128,161,,,,,,0,3,3,3,,,,,,,,,,,,,,,,,,,,,,,,,,,,,,,,,,,,,,,,,,,,,,,,,,,,,,,,,403.8311412000003,404.33383120000144,404.33383120000144,405.08913140000004,405.08913140000004,405.59451310000077,405.59451310000077,406.3803700000026,406.3803700000026,None,num_6,0.4970248999998148,406.3803700000026,None,sad,1,Sad,406.8941014000029,None,None,406.8941014000029,None,,,,,,,,,,,,,,,,,,,,,,,,,,,,,,,,,,,,,,,,,,,,,,,,,,,,,31,001,0,23,310,310,2022_Oct_25_1430,Experiment,2021.1.4,360.32270499695255,
images\S9_F_S_01.png,images\S9_F_S_01_scrambled.png,9,sad,-10,female,3,,112,on,2,0.5,0.75,0.5,0.906,3,111,3,1,1,2,2,32,128,163,,,,,,0,4,4,4,,,,,,,,,,,,,,,,,,,,,,,,,,,,,,,,,,,,,,,,,,,,,,,,,,,,,,,,,406.94130120000045,407.4439722999996,407.4439722999996,408.19369220000226,408.19369220000226,408.6963140000007,408.6963140000007,409.6071460000021,409.6071460000021,None,num_4,1.7423219000011159,409.6071460000021,None,happy,1,Sad,411.3593693400028,None,None,411.3593693400028,None,,,,,,,,,,,,,,,,,,,,,,,,,,,,,,,,,,,,,,,,,,,,,,,,,,,,,31,001,0,23,310,310,2022_Oct_25_1430,Experiment,2021.1.4,360.32270499695255,
images\blank.jpg,images\blank.jpg,none,none,none,none,0,,629,on,2,0.5,0.75,0.5,0.906,0,628,4,1,1,3,3,48,192,240,,,,,,0,5,5,5,,,,,,,,,,,,,,,,,,,,,,,,,,,,,,,,,,,,,,,,,,,,,,,,,,,,,,,,,411.44315480000296,411.9453054000005,411.9453054000005,412.7006672000025,412.7006672000025,413.20606600000247,413.20606600000247,414.11420230000294,414.11420230000294,414.11420230000294,None,,414.11420230000294,None,miss,1,,417.11874581999984,None,None,417.11874581999984,None,,,,,,,,,,,,,,,,,,,,,,,,,,,,,,,,,,,,,,,,,,,,,,,,,,,,,31,001,0,23,310,310,2022_Oct_25_1430,Experiment,2021.1.4,360.32270499695255,
images\S10_M_H_01.png,images\S10_M_H_01_scrambled.png,10,happy,10,male,4,,175,off,1,0.5,0.75,0.5,0.916,3,174,1,1,1,0,0,0,0,4,,,,,,0,6,6,6,,,,,,,,,,,,,,,,,,,,,,,,,,,,,,,,,,,,,,,,,,,,,,,,,,,,,,,,,417.2327108000027,417.7351851000021,417.7351851000021,418.4877367000008,418.4877367000008,418.9931658000023,418.9931658000023,419.9123138000032,419.9123138000032,None,num_4,0.4535589000006439,419.9123138000032,417.2327108000027,happy,1,Happy,420.37609878000006,None,None,420.37609878000006,None,,,,,,,,,,,,,,,,,,,,,,,,,,,,,,,,,,,,,,,,,,,,,,,,,,,,,31,001,0,23,310,310,2022_Oct_25_1430,Experiment,2021.1.4,360.32270499695255,
images\S2_M_S_02.png,images\S2_M_S_02_scrambled.png,2,sad,-20,male,2,,71,on,2,0.5,0.75,0.5,0.757,3,70,1,1,1,2,2,32,128,162,,,,,,0,7,7,7,,,,,,,,,,,,,,,,,,,,,,,,,,,,,,,,,,,,,,,,,,,,,,,,,,,,,,,,,420.4399142000002,420.94544250000035,420.94544250000035,421.6979016000005,421.6979016000005,422.1976985000001,422.1976985000001,422.955799000003,422.955799000003,None,num_6,0.35348439999870607,422.955799000003,None,sad,1,Sad,423.32511738000034,None,None,423.32511738000034,None,,,,,,,,,,,,,,,,,,,,,,,,,,,,,,,,,,,,,,,,,,,,,,,,,,,,,31,001,0,23,310,310,2022_Oct_25_1430,Experiment,2021.1.4,360.32270499695255,
images\S10_M_H_01.png,images\S10_M_H_01_scrambled.png,10,happy,10,male,4,,595,on,2,0.5,0.75,0.5,0.92,3,594,2,1,1,2,2,32,128,164,,,,,,0,8,8,8,,,,,,,,,,,,,,,,,,,,,,,,,,,,,,,,,,,,,,,,,,,,,,,,,,,,,,,,,423.3723561000006,423.8777650000011,423.8777650000011,424.63309330000266,424.63309330000266,425.13582860000315,425.13582860000315,426.05767480000213,426.05767480000213,None,num_4,0.5397582999976294,426.05767480000213,None,happy,1,Happy,426.6130351800006,None,None,426.6130351800006,None,,,,,,,,,,,,,,,,,,,,,,,,,,,,,,,,,,,,,,,,,,,,,,,,,,,,,31,001,0,23,310,310,2022_Oct_25_1430,Experiment,2021.1.4,360.32270499695255,
images\S3_F_S_03.png,images\S3_F_S_03_scrambled.png,3,sad,-30,female,1,,198,on,2,0.5,0.75,0.5,0.932,3,197,3,1,1,2,2,32,128,161,,,,,,0,9,9,9,,,,,,,,,,,,,,,,,,,,,,,,,,,,,,,,,,,,,,,,,,,,,,,,,,,,,,,,,426.67688720000297,427.1823482,427.1823482,427.93206869999995,427.93206869999995,428.43749690000186,428.43749690000186,429.37327410000216,429.37327410000216,None,num_6,0.2884799999992538,429.37327410000216,None,sad,1,Sad,429.6759681800017,None,None,429.6759681800017,None,,,,,,,,,,,,,,,,,,,,,,,,,,,,,,,,,,,,,,,,,,,,,,,,,,,,,31,001,0,23,310,310,2022_Oct_25_1430,Experiment,2021.1.4,360.32270499695255,
images\S6_M_H_03.png,images\S6_M_H_03_scrambled.png,6,happy,30,male,6,,573,on,2,0.5,0.75,0.5,0.868,3,572,4,1,1,2,2,32,128,166,,,,,,0,10,10,10,,,,,,,,,,,,,,,,,,,,,,,,,,,,,,,,,,,,,,,,,,,,,,,,,,,,,,,,,429.7231759000024,430.22859510000126,430.22859510000126,430.9839212000006,430.9839212000006,431.48657880000246,431.48657880000246,432.3613761000015,432.3613761000015,None,num_4,0.4525447999985772,432.3613761000015,None,happy,1,Happy,432.83630264000135,None,None,432.83630264000135,None,,,,,,,,,,,,,,,,,,,,,,,,,,,,,,,,,,,,,,,,,,,,,,,,,,,,,31,001,0,23,310,310,2022_Oct_25_1430,Experiment,2021.1.4,360.32270499695255,
images\S2_M_H_01.png,images\S2_M_H_01_scrambled.png,2,happy,10,male,4,,7,off,1,0.5,0.75,0.5,0.916,3,6,1,1,1,0,0,0,0,4,,,,,,0,11,11,11,,,,,,,,,,,,,,,,,,,,,,,,,,,,,,,,,,,,,,,,,,,,,,,,,,,,,,,,,432.8888661000019,433.3887065000017,433.3887065000017,434.1412820000005,434.1412820000005,434.6467545000014,434.6467545000014,435.56304720000117,435.56304720000117,None,num_6,0.4583736999993562,435.56304720000117,None,sad,1,Happy,436.02679784,None,None,436.02679784,None,,,,,,,,,,,,,,,,,,,,,,,,,,,,,,,,,,,,,,,,,,,,,,,,,,,,,31,001,0,23,310,310,2022_Oct_25_1430,Experiment,2021.1.4,360.32270499695255,
images\S3_F_S_02.png,images\S3_F_S_02_scrambled.png,3,sad,-20,female,2,,317,on,2,0.5,0.75,0.5,0.927,3,316,1,1,1,2,2,32,128,162,,,,,,0,12,12,12,,,,,,,,,,,,,,,,,,,,,,,,,,,,,,,,,,,,,,,,,,,,,,,,,,,,,,,,,436.07967460000145,436.5849646000024,436.5849646000024,437.33472679999977,437.33472679999977,437.83462839999993,437.83462839999993,438.76765929999965,438.76765929999965,None,num_6,0.5258579000001191,438.76765929999965,None,sad,1,Sad,439.3091349800001,None,None,439.3091349800001,None,,,,,,,,,,,,,,,,,,,,,,,,,,,,,,,,,,,,,,,,,,,,,,,,,,,,,31,001,0,23,310,310,2022_Oct_25_1430,Experiment,2021.1.4,360.32270499695255,
images\S5_F_S_02.png,images\S5_F_S_02_scrambled.png,5,sad,-20,female,2,,209,on,2,0.5,0.75,0.5,0.779,3,208,2,1,2,2,2,32,128,162,,,,,,0,13,13,13,,,,,,,,,,,,,,,,,,,,,,,,,,,,,,,,,,,,,,,,,,,,,,,,,,,,,,,,,439.35910370000056,439.8618239000025,439.8618239000025,440.61710850000236,440.61710850000236,441.12249710000106,441.12249710000106,441.90558560000136,441.90558560000136,None,num_4,0.37185390000013285,441.90558560000136,None,happy,1,Sad,442.285960440003,None,None,442.285960440003,None,,,,,,,,,,,,,,,,,,,,,,,,,,,,,,,,,,,,,,,,,,,,,,,,,,,,,31,001,0,23,310,310,2022_Oct_25_1430,Experiment,2021.1.4,360.32270499695255,
images\S3_F_H_01.png,images\S3_F_H_01_scrambled.png,3,happy,10,female,4,,13,off,1,0.5,0.75,0.5,0.759,3,12,1,1,1,0,0,0,0,4,,,,,,0,14,14,14,,,,,,,,,,,,,,,,,,,,,,,,,,,,,,,,,,,,,,,,,,,,,,,,,,,,,,,,,442.3331982000018,442.8330358000021,442.8330358000021,443.5883900000008,443.5883900000008,444.0911374000025,444.0911374000025,444.85747710000214,444.85747710000214,None,num_6,0.6119660999975167,444.85747710000214,None,sad,1,Happy,445.4766666400021,None,None,445.4766666400021,None,,,,,,,,,,,,,,,,,,,,,,,,,,,,,,,,,,,,,,,,,,,,,,,,,,,,,31,001,0,23,310,310,2022_Oct_25_1430,Experiment,2021.1.4,360.32270499695255,
images\S6_M_S_03.png,images\S6_M_S_03_scrambled.png,6,sad,-30,male,1,,336,on,2,0.5,0.75,0.5,0.866,3,335,1,1,1,2,2,32,128,161,,,,,,0,15,15,15,,,,,,,,,,,,,,,,,,,,,,,,,,,,,,,,,,,,,,,,,,,,,,,,,,,,,,,,,445.52388410000276,446.02652370000214,446.02652370000214,446.78192160000253,446.78192160000253,447.2872821000019,447.2872821000019,448.15653680000105,448.15653680000105,None,num_6,0.2729859999999462,448.15653680000105,None,sad,1,Sad,448.4452674799999,None,None,448.4452674799999,None,,,,,,,,,,,,,,,,,,,,,,,,,,,,,,,,,,,,,,,,,,,,,,,,,,,,,31,001,0,23,310,310,2022_Oct_25_1430,Experiment,2021.1.4,360.32270499695255,
images\S7_F_S_02.png,images\S7_F_S_02_scrambled.png,7,sad,-20,female,2,,521,off,1,0.5,0.75,0.5,0.814,3,520,1,1,1,0,0,0,0,2,,,,,,0,16,16,16,,,,,,,,,,,,,,,,,,,,,,,,,,,,,,,,,,,,,,,,,,,,,,,,,,,,,,,,,448.4951862000016,448.99785189999966,448.99785189999966,449.747591000003,449.747591000003,450.25025000000096,450.25025000000096,451.0667166000021,451.0667166000021,None,num_6,0.4509939999989001,451.0667166000021,None,sad,1,Sad,451.53320198000296,None,None,451.53320198000296,None,,,,,,,,,,,,,,,,,,,,,,,,,,,,,,,,,,,,,,,,,,,,,,,,,,,,,31,001,0,23,310,310,2022_Oct_25_1430,Experiment,2021.1.4,360.32270499695255,
images\blank.jpg,images\blank.jpg,none,none,none,none,0,,624,on,2,0.5,0.75,0.5,0.784,0,623,1,1,1,3,3,48,192,240,,,,,,0,17,17,17,,,,,,,,,,,,,,,,,,,,,,,,,,,,,,,,,,,,,,,,,,,,,,,,,,,,,,,,,451.6194099000022,452.1219333000008,452.1219333000008,452.8772171000019,452.8772171000019,453.3798002000003,453.3798002000003,454.16570240000146,454.16570240000146,454.16570240000146,None,,454.16570240000146,None,miss,1,,457.1675853200028,None,None,457.1675853200028,None,,,,,,,,,,,,,,,,,,,,,,,,,,,,,,,,,,,,,,,,,,,,,,,,,,,,,31,001,0,23,310,310,2022_Oct_25_1430,Experiment,2021.1.4,360.32270499695255,
images\S10_M_H_02.png,images\S10_M_H_02_scrambled.png,10,happy,20,male,5,,176,off,1,0.5,0.75,0.5,0.765,3,175,1,1,1,0,0,0,0,5,,,,,,0,18,18,18,,,,,,,,,,,,,,,,,,,,,,,,,,,,,,,,,,,,,,,,,,,,,,,,,,,,,,,,,457.28719060000003,457.78958930000226,457.78958930000226,458.5420961000018,458.5420961000018,459.0447528000004,459.0447528000004,459.81684049999967,459.81684049999967,None,num_4,0.46898370000053546,459.81684049999967,457.28719060000003,happy,1,Happy,460.31112194000275,None,None,460.31112194000275,None,,,,,,,,,,,,,,,,,,,,,,,,,,,,,,,,,,,,,,,,,,,,,,,,,,,,,31,001,0,23,310,310,2022_Oct_25_1430,Experiment,2021.1.4,360.32270499695255,
images\S10_M_H_02.png,images\S10_M_H_02_scrambled.png,10,happy,20,male,5,,56,off,1,0.5,0.75,0.5,0.898,3,55,2,2,2,0,0,0,0,5,,,,,,0,19,19,19,,,,,,,,,,,,,,,,,,,,,,,,,,,,,,,,,,,,,,,,,,,,,,,,,,,,,,,,,460.3776570000009,460.8831414000015,460.8831414000015,461.63560979999966,461.63560979999966,462.1382356000031,462.1382356000031,463.0380073000015,463.0380073000015,None,num_4,1.575569299999188,463.0380073000015,None,happy,1,Happy,464.62360638000104,None,None,464.62360638000104,None,,,,,,,,,,,,,,,,,,,,,,,,,,,,,,,,,,,,,,,,,,,,,,,,,,,,,31,001,0,23,310,310,2022_Oct_25_1430,Experiment,2021.1.4,360.32270499695255,
images\S6_M_S_02.png,images\S6_M_S_02_scrambled.png,6,sad,-20,male,2,,95,on,2,0.5,0.75,0.5,0.765,3,94,1,1,1,2,2,32,128,162,,,,,,0,20,20,20,,,,,,,,,,,,,,,,,,,,,,,,,,,,,,,,,,,,,,,,,,,,,,,,,,,,,,,,,464.6735716000003,465.1762106000024,465.1762106000024,465.9315330000027,465.9315330000027,466.4341232000006,466.4341232000006,467.20614410000053,467.20614410000053,None,num_6,0.8233804999981658,467.20614410000053,None,sad,1,Sad,468.0586744600012,None,None,468.0586744600012,None,,,,,,,,,,,,,,,,,,,,,,,,,,,,,,,,,,,,,,,,,,,,,,,,,,,,,31,001,0,23,310,310,2022_Oct_25_1430,Experiment,2021.1.4,360.32270499695255,
images\blank.jpg,images\blank.jpg,none,none,none,none,0,,609,on,2,0.5,0.75,0.5,0.786,0,608,2,1,1,3,3,48,192,240,,,,,,0,21,21,21,,,,,,,,,,,,,,,,,,,,,,,,,,,,,,,,,,,,,,,,,,,,,,,,,,,,,,,,,468.1477220000015,468.650172200003,468.650172200003,469.4054477999998,469.4054477999998,469.9080683000029,469.9080683000029,470.69961540000077,470.69961540000077,470.69961540000077,None,,470.69961540000077,None,miss,1,,473.70413882000105,None,None,473.70413882000105,None,,,,,,,,,,,,,,,,,,,,,,,,,,,,,,,,,,,,,,,,,,,,,,,,,,,,,31,001,0,23,310,310,2022_Oct_25_1430,Experiment,2021.1.4,360.32270499695255,
images\S9_F_H_03.png,images\S9_F_H_03_scrambled.png,9,happy,30,female,6,,291,off,1,0.5,0.75,0.5,0.901,3,290,1,1,1,0,0,0,0,6,,,,,,0,22,22,22,,,,,,,,,,,,,,,,,,,,,,,,,,,,,,,,,,,,,,,,,,,,,,,,,,,,,,,,,473.8182691000002,474.3206342000012,474.3206342000012,475.07315270000254,475.07315270000254,475.5758080000014,475.5758080000014,476.4839482999996,476.4839482999996,None,num_4,0.32937630000014906,476.4839482999996,473.8182691000002,happy,1,Happy,476.84495176000274,None,None,476.84495176000274,None,,,,,,,,,,,,,,,,,,,,,,,,,,,,,,,,,,,,,,,,,,,,,,,,,,,,,31,001,0,23,310,310,2022_Oct_25_1430,Experiment,2021.1.4,360.32270499695255,
images\blank.jpg,images\blank.jpg,none,none,none,none,0,,604,on,2,0.5,0.75,0.5,0.878,0,603,1,1,1,3,3,48,192,240,,,,,,0,23,23,23,,,,,,,,,,,,,,,,,,,,,,,,,,,,,,,,,,,,,,,,,,,,,,,,,,,,,,,,,476.9369165999997,477.4390800000001,477.4390800000001,478.19453460000295,478.19453460000295,478.6998958000004,478.6998958000004,479.5801508000004,479.5801508000004,479.5801508000004,None,,479.5801508000004,None,miss,1,,482.579191020002,None,None,482.579191020002,None,,,,,,,,,,,,,,,,,,,,,,,,,,,,,,,,,,,,,,,,,,,,,,,,,,,,,31,001,0,23,310,310,2022_Oct_25_1430,Experiment,2021.1.4,360.32270499695255,
images\S3_F_H_01.png,images\S3_F_H_01_scrambled.png,3,happy,10,female,4,,553,on,2,0.5,0.75,0.5,0.78,3,552,2,1,1,2,2,32,128,164,,,,,,0,24,24,24,,,,,,,,,,,,,,,,,,,,,,,,,,,,,,,,,,,,,,,,,,,,,,,,,,,,,,,,,482.69316660000186,483.1984599000025,483.1984599000025,483.9510076000006,483.9510076000006,484.4564939000011,484.4564939000011,485.2423035000029,485.2423035000029,None,num_6,0.8035609999969893,485.2423035000029,482.69316660000186,sad,1,Happy,486.0558738400025,None,None,486.0558738400025,None,,,,,,,,,,,,,,,,,,,,,,,,,,,,,,,,,,,,,,,,,,,,,,,,,,,,,31,001,0,23,310,310,2022_Oct_25_1430,Experiment,2021.1.4,360.32270499695255,
images\S4_M_H_02.png,images\S4_M_H_02_scrambled.png,4,happy,20,male,5,,320,on,2,0.5,0.75,0.5,0.811,3,319,3,1,1,2,2,32,128,165,,,,,,0,25,25,25,,,,,,,,,,,,,,,,,,,,,,,,,,,,,,,,,,,,,,,,,,,,,,,,,,,,,,,,,486.1030905000007,486.6085113000008,486.6085113000008,487.3610264000017,487.3610264000017,487.8665798000002,487.8665798000002,488.68008340000233,488.68008340000233,None,num_6,0.42943150000064634,488.68008340000233,None,sad,1,Happy,489.11881543999993,None,None,489.11881543999993,None,,,,,,,,,,,,,,,,,,,,,,,,,,,,,,,,,,,,,,,,,,,,,,,,,,,,,31,001,0,23,310,310,2022_Oct_25_1430,Experiment,2021.1.4,360.32270499695255,
images\S10_M_H_03.png,images\S10_M_H_03_scrambled.png,10,happy,30,male,6,,537,off,1,0.5,0.75,0.5,0.852,3,536,1,1,1,0,0,0,0,6,,,,,,0,26,26,26,,,,,,,,,,,,,,,,,,,,,,,,,,,,,,,,,,,,,,,,,,,,,,,,,,,,,,,,,489.16603320000286,489.6658776000004,489.6658776000004,490.42129019999993,490.42129019999993,490.9267107000014,490.9267107000014,491.78197960000034,491.78197960000034,None,num_4,0.41622780000034254,491.78197960000034,None,happy,1,Happy,492.2264451400017,None,None,492.2264451400017,None,,,,,,,,,,,,,,,,,,,,,,,,,,,,,,,,,,,,,,,,,,,,,,,,,,,,,31,001,0,23,310,310,2022_Oct_25_1430,Experiment,2021.1.4,360.32270499695255,
images\S4_M_H_01.png,images\S4_M_H_01_scrambled.png,4,happy,10,male,4,,319,on,2,0.5,0.75,0.5,0.788,3,318,1,1,1,2,2,32,128,164,,,,,,0,27,27,27,,,,,,,,,,,,,,,,,,,,,,,,,,,,,,,,,,,,,,,,,,,,,,,,,,,,,,,,,492.29285580000214,492.7982899000017,492.7982899000017,493.5536004000023,493.5536004000023,494.05620009999984,494.05620009999984,494.84766800000216,494.84766800000216,None,num_6,0.5019207000004826,494.84766800000216,None,sad,1,Happy,495.3585901400031,None,None,495.3585901400031,None,,,,,,,,,,,,,,,,,,,,,,,,,,,,,,,,,,,,,,,,,,,,,,,,,,,,,31,001,0,23,310,310,2022_Oct_25_1430,Experiment,2021.1.4,360.32270499695255,
images\S8_M_S_01.png,images\S8_M_S_01_scrambled.png,8,sad,-10,male,3,,46,off,1,0.5,0.75,0.5,0.798,3,45,1,1,1,0,0,0,0,3,,,,,,0,28,28,28,,,,,,,,,,,,,,,,,,,,,,,,,,,,,,,,,,,,,,,,,,,,,,,,,,,,,,,,,495.40579250000155,495.9084064000017,495.9084064000017,496.66376260000106,496.66376260000106,497.16648780000105,497.16648780000105,497.96891830000095,497.96891830000095,None,num_6,0.36492879999786965,497.96891830000095,None,sad,1,Sad,498.36060274000306,None,None,498.36060274000306,None,,,,,,,,,,,,,,,,,,,,,,,,,,,,,,,,,,,,,,,,,,,,,,,,,,,,,31,001,0,23,310,310,2022_Oct_25_1430,Experiment,2021.1.4,360.32270499695255,
images\S8_M_H_01.png,images\S8_M_H_01_scrambled.png,8,happy,10,male,4,,163,off,1,0.5,0.75,0.5,0.94,3,162,2,2,1,0,0,0,0,4,,,,,,0,29,29,29,,,,,,,,,,,,,,,,,,,,,,,,,,,,,,,,,,,,,,,,,,,,,,,,,,,,,,,,,498.41598069999964,498.9186211000015,498.9186211000015,499.67394129999957,499.67394129999957,500.1766290000014,500.1766290000014,501.1208246000024,501.1208246000024,None,num_6,0.4607129000032728,501.1208246000024,None,sad,1,Happy,501.58999684000014,None,None,501.58999684000014,None,,,,,,,,,,,,,,,,,,,,,,,,,,,,,,,,,,,,,,,,,,,,,,,,,,,,,31,001,0,23,310,310,2022_Oct_25_1430,Experiment,2021.1.4,360.32270499695255,
images\S7_F_S_03.png,images\S7_F_S_03_scrambled.png,7,sad,-30,female,1,,222,on,2,0.5,0.75,0.5,0.813,3,221,1,1,1,2,2,32,128,161,,,,,,0,30,30,30,,,,,,,,,,,,,,,,,,,,,,,,,,,,,,,,,,,,,,,,,,,,,,,,,,,,,,,,,501.63999610000246,502.1426480000009,502.1426480000009,502.8979711000029,502.8979711000029,503.40336180000304,503.40336180000304,504.2225658999996,504.2225658999996,None,num_6,1.566946700000699,504.2225658999996,None,sad,1,Sad,505.8192779000019,None,None,505.8192779000019,None,,,,,,,,,,,,,,,,,,,,,,,,,,,,,,,,,,,,,,,,,,,,,,,,,,,,,31,001,0,23,310,310,2022_Oct_25_1430,Experiment,2021.1.4,360.32270499695255,
images\S1_F_H_03.png,images\S1_F_H_03_scrambled.png,1,happy,30,female,6,,303,on,2,0.5,0.75,0.5,0.883,3,302,2,1,1,2,2,32,128,166,,,,,,0,31,31,31,,,,,,,,,,,,,,,,,,,,,,,,,,,,,,,,,,,,,,,,,,,,,,,,,,,,,,,,,505.8748028000009,506.377441800003,506.377441800003,507.1328315999999,507.1328315999999,507.63819180000064,507.63819180000064,508.5239825000026,508.5239825000026,None,num_4,0.3135058999978355,508.5239825000026,None,happy,1,Happy,508.8516530800029,None,None,508.8516530800029,None,,,,,,,,,,,,,,,,,,,,,,,,,,,,,,,,,,,,,,,,,,,,,,,,,,,,,31,001,0,23,310,310,2022_Oct_25_1430,Experiment,2021.1.4,360.32270499695255,
images\S10_M_H_03.png,images\S10_M_H_03_scrambled.png,10,happy,30,male,6,,57,off,1,0.5,0.75,0.5,0.854,3,56,1,1,2,0,0,0,0,6,,,,,,0,32,32,32,,,,,,,,,,,,,,,,,,,,,,,,,,,,,,,,,,,,,,,,,,,,,,,,,,,,,,,,,508.8988739000015,509.3987092000025,509.3987092000025,510.1512554000001,510.1512554000001,510.6568072000009,510.6568072000009,511.5119446000026,511.5119446000026,None,num_4,0.5816040999998222,511.5119446000026,None,happy,1,Happy,512.1229065000007,None,None,512.1229065000007,None,,,,,,,,,,,,,,,,,,,,,,,,,,,,,,,,,,,,,,,,,,,,,,,,,,,,,31,001,0,23,310,310,2022_Oct_25_1430,Experiment,2021.1.4,360.32270499695255,
images\S5_F_H_01.png,images\S5_F_H_01_scrambled.png,5,happy,10,female,4,,205,on,2,0.5,0.75,0.5,0.9,3,204,1,1,1,2,2,32,128,164,,,,,,0,33,33,33,,,,,,,,,,,,,,,,,,,,,,,,,,,,,,,,,,,,,,,,,,,,,,,,,,,,,,,,,512.1784156000031,512.6782696000009,512.6782696000009,513.4280436000008,513.4280436000008,513.9307144000013,513.9307144000013,514.8331775000006,514.8331775000006,None,num_4,0.32446799999888754,514.8331775000006,None,happy,1,Happy,515.1775885200019,None,None,515.1775885200019,None,,,,,,,,,,,,,,,,,,,,,,,,,,,,,,,,,,,,,,,,,,,,,,,,,,,,,31,001,0,23,310,310,2022_Oct_25_1430,Experiment,2021.1.4,360.32270499695255,
images\blank.jpg,images\blank.jpg,none,none,none,none,0,,636,on,2,0.5,0.75,0.5,0.804,0,635,2,1,1,3,3,48,192,240,,,,,,0,34,34,34,,,,,,,,,,,,,,,,,,,,,,,,,,,,,,,,,,,,,,,,,,,,,,,,,,,,,,,,,515.2610366000008,515.7606470000028,515.7606470000028,516.5132569000016,516.5132569000016,517.0186401999999,517.0186401999999,517.823915500001,517.823915500001,517.823915500001,None,,517.823915500001,None,miss,1,,520.8258520400007,None,None,520.8258520400007,None,,,,,,,,,,,,,,,,,,,,,,,,,,,,,,,,,,,,,,,,,,,,,,,,,,,,,31,001,0,23,310,310,2022_Oct_25_1430,Experiment,2021.1.4,360.32270499695255,
images\S2_M_S_01.png,images\S2_M_S_01_scrambled.png,2,sad,-10,male,3,,10,off,1,0.5,0.75,0.5,0.947,3,9,1,1,1,0,0,0,0,3,,,,,,0,35,35,35,,,,,,,,,,,,,,,,,,,,,,,,,,,,,,,,,,,,,,,,,,,,,,,,,,,,,,,,,520.9481847000025,521.4505839000012,521.4505839000012,522.2031152000018,522.2031152000018,522.7085590000024,522.7085590000024,523.6582912000013,523.6582912000013,None,num_6,0.3631507000027341,523.6582912000013,520.9481847000025,sad,1,Sad,524.0331286800014,None,None,524.0331286800014,None,,,,,,,,,,,,,,,,,,,,,,,,,,,,,,,,,,,,,,,,,,,,,,,,,,,,,31,001,0,23,310,310,2022_Oct_25_1430,Experiment,2021.1.4,360.32270499695255,
images\S10_M_S_01.png,images\S10_M_S_01_scrambled.png,10,sad,-10,male,3,,118,on,2,0.5,0.75,0.5,0.832,3,117,1,1,2,2,2,32,128,163,,,,,,0,36,36,36,,,,,,,,,,,,,,,,,,,,,,,,,,,,,,,,,,,,,,,,,,,,,,,,,,,,,,,,,524.0997566000005,524.6025086000009,524.6025086000009,525.3521495000023,525.3521495000023,525.8520285000013,525.8520285000013,526.6879303000023,526.6879303000023,None,num_4,0.34150270000100136,526.6879303000023,None,happy,1,Sad,527.037733160002,None,None,527.037733160002,None,,,,,,,,,,,,,,,,,,,,,,,,,,,,,,,,,,,,,,,,,,,,,,,,,,,,,31,001,0,23,310,310,2022_Oct_25_1430,Experiment,2021.1.4,360.32270499695255,
images\S6_M_H_03.png,images\S6_M_H_03_scrambled.png,6,happy,30,male,6,,273,off,1,0.5,0.75,0.5,0.913,3,272,1,1,1,0,0,0,0,6,,,,,,0,37,37,37,,,,,,,,,,,,,,,,,,,,,,,,,,,,,,,,,,,,,,,,,,,,,,,,,,,,,,,,,527.1071742000022,527.6127029000018,527.6127029000018,528.367981000003,528.367981000003,528.8733573999998,528.8733573999998,529.7896986000014,529.7896986000014,None,num_4,0.5520107999982429,529.7896986000014,None,happy,1,Happy,530.3561882800008,None,None,530.3561882800008,None,,,,,,,,,,,,,,,,,,,,,,,,,,,,,,,,,,,,,,,,,,,,,,,,,,,,,31,001,0,23,310,310,2022_Oct_25_1430,Experiment,2021.1.4,360.32270499695255,
images\S8_M_H_01.png,images\S8_M_H_01_scrambled.png,8,happy,10,male,4,,223,on,2,0.5,0.75,0.5,0.864,3,222,1,1,1,2,2,32,128,164,,,,,,0,38,38,38,,,,,,,,,,,,,,,,,,,,,,,,,,,,,,,,,,,,,,,,,,,,,,,,,,,,,,,,,530.406152800002,530.9088176000005,530.9088176000005,531.664131700003,531.664131700003,532.1695233000028,532.1695233000028,533.0387244000012,533.0387244000012,None,num_4,0.3271532999970077,533.0387244000012,None,happy,1,Happy,533.3914760600027,None,None,533.3914760600027,None,,,,,,,,,,,,,,,,,,,,,,,,,,,,,,,,,,,,,,,,,,,,,,,,,,,,,31,001,0,23,310,310,2022_Oct_25_1430,Experiment,2021.1.4,360.32270499695255,
images\S1_F_S_03.png,images\S1_F_S_03_scrambled.png,1,sad,-30,female,1,,186,on,2,0.5,0.75,0.5,0.882,3,185,2,1,1,2,2,32,128,161,,,,,,0,39,39,39,,,,,,,,,,,,,,,,,,,,,,,,,,,,,,,,,,,,,,,,,,,,,,,,,,,,,,,,,533.4468860000015,533.9495373999998,533.9495373999998,534.7021810000006,534.7021810000006,535.2018999000029,535.2018999000029,536.0878802000007,536.0878802000007,None,num_6,1.1656894000007014,536.0878802000007,None,sad,1,Sad,537.2846359000032,None,None,537.2846359000032,None,,,,,,,,,,,,,,,,,,,,,,,,,,,,,,,,,,,,,,,,,,,,,,,,,,,,,31,001,0,23,310,310,2022_Oct_25_1430,Experiment,2021.1.4,360.32270499695255,
images\S6_M_S_02.png,images\S6_M_S_02_scrambled.png,6,sad,-20,male,2,,455,on,2,0.5,0.75,0.5,0.751,3,454,3,1,1,2,2,32,128,162,,,,,,0,40,40,40,,,,,,,,,,,,,,,,,,,,,,,,,,,,,,,,,,,,,,,,,,,,,,,,,,,,,,,,,537.3401456000029,537.8399825000015,537.8399825000015,538.5925826000021,538.5925826000021,539.0980014000015,539.0980014000015,539.8532964000005,539.8532964000005,None,num_6,0.38419839999914984,539.8532964000005,None,sad,1,Sad,540.2503495800032,None,None,540.2503495800032,None,,,,,,,,,,,,,,,,,,,,,,,,,,,,,,,,,,,,,,,,,,,,,,,,,,,,,31,001,0,23,310,310,2022_Oct_25_1430,Experiment,2021.1.4,360.32270499695255,
images\S7_F_H_02.png,images\S7_F_H_02_scrambled.png,7,happy,20,female,5,,398,off,1,0.5,0.75,0.5,0.826,3,397,1,1,1,0,0,0,0,5,,,,,,0,41,41,41,,,,,,,,,,,,,,,,,,,,,,,,,,,,,,,,,,,,,,,,,,,,,,,,,,,,,,,,,540.3003429000019,540.8001871000015,540.8001871000015,541.5527465000014,541.5527465000014,542.0581867000001,542.0581867000001,542.8884349,542.8884349,None,num_4,0.34905950000029407,542.8884349,None,happy,1,Happy,543.2522254800009,None,None,543.2522254800009,None,,,,,,,,,,,,,,,,,,,,,,,,,,,,,,,,,,,,,,,,,,,,,,,,,,,,,31,001,0,23,310,310,2022_Oct_25_1430,Experiment,2021.1.4,360.32270499695255,
images\S4_M_S_03.png,images\S4_M_S_03_scrambled.png,4,sad,-30,male,1,,264,off,1,0.5,0.75,0.5,0.844,3,263,2,1,1,0,0,0,0,1,,,,,,0,42,42,42,,,,,,,,,,,,,,,,,,,,,,,,,,,,,,,,,,,,,,,,,,,,,,,,,,,,,,,,,543.3021984000006,543.8048383000023,543.8048383000023,544.5573908000006,544.5573908000006,545.062887,545.062887,545.9126327000013,545.9126327000013,None,num_6,0.3727963000019372,545.9126327000013,None,sad,1,Sad,546.2957566800018,None,None,546.2957566800018,None,,,,,,,,,,,,,,,,,,,,,,,,,,,,,,,,,,,,,,,,,,,,,,,,,,,,,31,001,0,23,310,310,2022_Oct_25_1430,Experiment,2021.1.4,360.32270499695255,
images\S1_F_H_01.png,images\S1_F_H_01_scrambled.png,1,happy,10,female,4,,361,off,1,0.5,0.75,0.5,0.815,3,360,3,1,1,0,0,0,0,4,,,,,,0,43,43,43,,,,,,,,,,,,,,,,,,,,,,,,,,,,,,,,,,,,,,,,,,,,,,,,,,,,,,,,,546.3457011999999,546.8483732000022,546.8483732000022,547.6036959000012,547.6036959000012,548.1063209000022,548.1063209000022,548.9254819000016,548.9254819000016,None,num_4,0.48819299999740906,548.9254819000016,None,happy,1,Happy,549.4364883400024,None,None,549.4364883400024,None,,,,,,,,,,,,,,,,,,,,,,,,,,,,,,,,,,,,,,,,,,,,,,,,,,,,,31,001,0,23,310,310,2022_Oct_25_1430,Experiment,2021.1.4,360.32270499695255,
images\S1_F_S_02.png,images\S1_F_S_02_scrambled.png,1,sad,-20,female,2,,125,off,1,0.5,0.75,0.5,0.822,3,124,4,2,1,0,0,0,0,2,,,,,,0,44,44,44,,,,,,,,,,,,,,,,,,,,,,,,,,,,,,,,,,,,,,,,,,,,,,,,,,,,,,,,,549.489190100001,549.9946030000028,549.9946030000028,550.7499380000008,550.7499380000008,551.2525545000026,551.2525545000026,552.0801527000003,552.0801527000003,None,num_4,0.4374673999991501,552.0801527000003,None,happy,1,Sad,552.5271123400009,None,None,552.5271123400009,None,,,,,,,,,,,,,,,,,,,,,,,,,,,,,,,,,,,,,,,,,,,,,,,,,,,,,31,001,0,23,310,310,2022_Oct_25_1430,Experiment,2021.1.4,360.32270499695255,
images\S2_M_H_01.png,images\S2_M_H_01_scrambled.png,2,happy,10,male,4,,67,on,2,0.5,0.75,0.5,0.762,3,66,1,1,1,2,2,32,128,164,,,,,,0,45,45,45,,,,,,,,,,,,,,,,,,,,,,,,,,,,,,,,,,,,,,,,,,,,,,,,,,,,,,,,,552.5743598000008,553.0771115999996,553.0771115999996,553.8324327000009,553.8324327000009,554.3321649999998,554.3321649999998,555.0985713000009,555.0985713000009,None,num_4,0.3469149999982619,555.0985713000009,None,happy,1,Happy,555.4707193800026,None,None,555.4707193800026,None,,,,,,,,,,,,,,,,,,,,,,,,,,,,,,,,,,,,,,,,,,,,,,,,,,,,,31,001,0,23,310,310,2022_Oct_25_1430,Experiment,2021.1.4,360.32270499695255,
images\S3_F_H_02.png,images\S3_F_H_02_scrambled.png,3,happy,20,female,5,,134,off,1,0.5,0.75,0.5,0.947,3,133,1,1,1,0,0,0,0,5,,,,,,0,46,46,46,,,,,,,,,,,,,,,,,,,,,,,,,,,,,,,,,,,,,,,,,,,,,,,,,,,,,,,,,555.5262192000009,556.0317581000018,556.0317581000018,556.7813907000018,556.7813907000018,557.2812802000008,557.2812802000008,558.2337633999996,558.2337633999996,None,num_4,0.5236602000004495,558.2337633999996,None,happy,1,Happy,558.7724524000023,None,None,558.7724524000023,None,,,,,,,,,,,,,,,,,,,,,,,,,,,,,,,,,,,,,,,,,,,,,,,,,,,,,31,001,0,23,310,310,2022_Oct_25_1430,Experiment,2021.1.4,360.32270499695255,
images\S1_F_S_01.png,images\S1_F_S_01_scrambled.png,1,sad,-10,female,3,,424,on,2,0.5,0.75,0.5,0.829,3,423,1,1,1,2,2,32,128,163,,,,,,0,47,47,47,,,,,,,,,,,,,,,,,,,,,,,,,,,,,,,,,,,,,,,,,,,,,,,,,,,,,,,,,558.8196566000006,559.3250563000001,559.3250563000001,560.0748157000016,560.0748157000016,560.5746694000009,560.5746694000009,561.4078253000007,561.4078253000007,None,num_4,0.5179465000001073,561.4078253000007,None,happy,1,Sad,561.9353807400032,None,None,561.9353807400032,None,,,,,,,,,,,,,,,,,,,,,,,,,,,,,,,,,,,,,,,,,,,,,,,,,,,,,31,001,0,23,310,310,2022_Oct_25_1430,Experiment,2021.1.4,360.32270499695255,
images\S1_F_S_01.png,images\S1_F_S_01_scrambled.png,1,sad,-10,female,3,,124,off,1,0.5,0.75,0.5,0.791,3,123,1,2,2,0,0,0,0,3,,,,,,0,48,48,48,,,,,,,,,,,,,,,,,,,,,,,,,,,,,,,,,,,,,,,,,,,,,,,,,,,,,,,,,561.9825758000006,562.4880337000031,562.4880337000031,563.2405789000004,563.2405789000004,563.7431518000012,563.7431518000012,564.5401352000008,564.5401352000008,None,num_4,0.577330100000836,564.5401352000008,None,happy,1,Sad,565.1288311600027,None,None,565.1288311600027,None,,,,,,,,,,,,,,,,,,,,,,,,,,,,,,,,,,,,,,,,,,,,,,,,,,,,,31,001,0,23,310,310,2022_Oct_25_1430,Experiment,2021.1.4,360.32270499695255,
images\S3_F_H_02.png,images\S3_F_H_02_scrambled.png,3,happy,20,female,5,,74,on,2,0.5,0.75,0.5,0.754,3,73,1,1,1,2,2,32,128,165,,,,,,0,49,49,49,,,,,,,,,,,,,,,,,,,,,,,,,,,,,,,,,,,,,,,,,,,,,,,,,,,,,,,,,565.1926989000021,565.6953351000011,565.6953351000011,566.4479860000029,566.4479860000029,566.9505317000003,566.9505317000003,567.7086339000016,567.7086339000016,None,num_4,0.40957540000090376,567.7086339000016,None,happy,1,Happy,568.1418047600026,None,None,568.1418047600026,None,,,,,,,,,,,,,,,,,,,,,,,,,,,,,,,,,,,,,,,,,,,,,,,,,,,,,31,001,0,23,310,310,2022_Oct_25_1430,Experiment,2021.1.4,360.32270499695255,
images\S4_M_H_01.png,images\S4_M_H_01_scrambled.png,4,happy,10,male,4,,19,off,1,0.5,0.75,0.5,0.934,3,18,1,1,1,0,0,0,0,4,,,,,,0,50,50,50,,,,,,,,,,,,,,,,,,,,,,,,,,,,,,,,,,,,,,,,,,,,,,,,,,,,,,,,,568.1945554000013,568.697180500003,568.697180500003,569.4526353000001,569.4526353000001,569.9551339000027,569.9551339000027,570.8937658000032,570.8937658000032,None,num_6,0.4318178000030457,570.8937658000032,None,sad,1,Happy,571.3352970600016,None,None,571.3352970600016,None,,,,,,,,,,,,,,,,,,,,,,,,,,,,,,,,,,,,,,,,,,,,,,,,,,,,,31,001,0,23,310,310,2022_Oct_25_1430,Experiment,2021.1.4,360.32270499695255,
images\S9_F_H_03.png,images\S9_F_H_03_scrambled.png,9,happy,30,female,6,,531,off,1,0.5,0.75,0.5,0.868,3,530,2,1,1,0,0,0,0,6,,,,,,0,51,51,51,,,,,,,,,,,,,,,,,,,,,,,,,,,,,,,,,,,,,,,,,,,,,,,,,,,,,,,,,571.3935734000006,571.8961922000017,571.8961922000017,572.6460047,572.6460047,573.1458216000028,573.1458216000028,574.0178539000008,574.0178539000008,None,num_4,0.4755936000001384,574.0178539000008,None,happy,1,Happy,574.5037432800003,None,None,574.5037432800003,None,,,,,,,,,,,,,,,,,,,,,,,,,,,,,,,,,,,,,,,,,,,,,,,,,,,,,31,001,0,23,310,310,2022_Oct_25_1430,Experiment,2021.1.4,360.32270499695255,
images\S9_F_H_01.png,images\S9_F_H_01_scrambled.png,9,happy,10,female,4,,49,off,1,0.5,0.75,0.5,0.879,3,48,3,2,1,0,0,0,0,4,,,,,,0,52,52,52,,,,,,,,,,,,,,,,,,,,,,,,,,,,,,,,,,,,,,,,,,,,,,,,,,,,,,,,,574.5509339000018,575.0535985000024,575.0535985000024,575.8089140000011,575.8089140000011,576.3115488000003,576.3115488000003,577.1945883000008,577.1945883000008,None,num_6,2.251070099999197,577.1945883000008,None,sad,1,Happy,579.4549966400002,None,None,579.4549966400002,None,,,,,,,,,,,,,,,,,,,,,,,,,,,,,,,,,,,,,,,,,,,,,,,,,,,,,31,001,0,23,310,310,2022_Oct_25_1430,Experiment,2021.1.4,360.32270499695255,
images\S6_M_S_01.png,images\S6_M_S_01_scrambled.png,6,sad,-10,male,3,,334,on,2,0.5,0.75,0.5,0.922,3,333,1,1,1,2,2,32,128,163,,,,,,0,53,53,53,,,,,,,,,,,,,,,,,,,,,,,,,,,,,,,,,,,,,,,,,,,,,,,,,,,,,,,,,579.5021999000019,580.0048385000009,580.0048385000009,580.7573653,580.7573653,581.2628480000021,581.2628480000021,582.1876021999997,582.1876021999997,None,num_6,0.40180940000209375,582.1876021999997,None,sad,1,Sad,582.6012545800025,None,None,582.6012545800025,None,,,,,,,,,,,,,,,,,,,,,,,,,,,,,,,,,,,,,,,,,,,,,,,,,,,,,31,001,0,23,310,310,2022_Oct_25_1430,Experiment,2021.1.4,360.32270499695255,
images\S3_F_H_03.png,images\S3_F_H_03_scrambled.png,3,happy,30,female,6,,375,off,1,0.5,0.75,0.5,0.805,3,374,1,1,1,0,0,0,0,6,,,,,,0,54,54,54,,,,,,,,,,,,,,,,,,,,,,,,,,,,,,,,,,,,,,,,,,,,,,,,,,,,,,,,,582.6512263000004,583.1538535,583.1538535,583.9091998000004,583.9091998000004,584.4119258000028,584.4119258000028,585.2171037000007,585.2171037000007,None,num_4,0.34069610000005923,585.2171037000007,None,happy,1,Happy,585.5754350200019,None,None,585.5754350200019,None,,,,,,,,,,,,,,,,,,,,,,,,,,,,,,,,,,,,,,,,,,,,,,,,,,,,,31,001,0,23,310,310,2022_Oct_25_1430,Experiment,2021.1.4,360.32270499695255,
images\S6_M_S_03.png,images\S6_M_S_03_scrambled.png,6,sad,-30,male,1,,36,off,1,0.5,0.75,0.5,0.775,3,35,2,1,1,0,0,0,0,1,,,,,,0,55,55,55,,,,,,,,,,,,,,,,,,,,,,,,,,,,,,,,,,,,,,,,,,,,,,,,,,,,,,,,,585.6280942000012,586.1335116000009,586.1335116000009,586.8832674000005,586.8832674000005,587.3887001000003,587.3887001000003,588.1662408000011,588.1662408000011,None,num_6,0.47980529999767896,588.1662408000011,None,sad,1,Sad,588.6717151600031,None,None,588.6717151600031,None,,,,,,,,,,,,,,,,,,,,,,,,,,,,,,,,,,,,,,,,,,,,,,,,,,,,,31,001,0,23,310,310,2022_Oct_25_1430,Experiment,2021.1.4,360.32270499695255,
images\blank.jpg,images\blank.jpg,none,none,none,none,0,,634,on,2,0.5,0.75,0.5,0.782,0,633,1,1,1,3,3,48,192,240,,,,,,0,56,56,56,,,,,,,,,,,,,,,,,,,,,,,,,,,,,,,,,,,,,,,,,,,,,,,,,,,,,,,,,588.7606548000003,589.2631296,589.2631296,590.0184577,590.0184577,590.5238513000004,590.5238513000004,591.3069040000009,591.3069040000009,591.3069040000009,None,,591.3069040000009,None,miss,1,,594.3088240400023,None,None,594.3088240400023,None,,,,,,,,,,,,,,,,,,,,,,,,,,,,,,,,,,,,,,,,,,,,,,,,,,,,,31,001,0,23,310,310,2022_Oct_25_1430,Experiment,2021.1.4,360.32270499695255,
images\S10_M_S_03.png,images\S10_M_S_03_scrambled.png,10,sad,-30,male,1,,60,off,1,0.5,0.75,0.5,0.794,3,59,1,1,1,0,0,0,0,1,,,,,,0,57,57,57,,,,,,,,,,,,,,,,,,,,,,,,,,,,,,,,,,,,,,,,,,,,,,,,,,,,,,,,,594.4311774000016,594.933696,594.933696,595.686112000003,595.686112000003,596.1915340000014,596.1915340000014,596.9913059999999,596.9913059999999,None,num_6,0.3502397000011115,596.9913059999999,594.4311774000016,sad,1,Sad,597.3522540800026,None,None,597.3522540800026,None,,,,,,,,,,,,,,,,,,,,,,,,,,,,,,,,,,,,,,,,,,,,,,,,,,,,,31,001,0,23,310,310,2022_Oct_25_1430,Experiment,2021.1.4,360.32270499695255,
images\S7_F_H_03.png,images\S7_F_H_03_scrambled.png,7,happy,30,female,6,,39,off,1,0.5,0.75,0.5,0.798,3,38,2,1,1,0,0,0,0,6,,,,,,0,58,58,58,,,,,,,,,,,,,,,,,,,,,,,,,,,,,,,,,,,,,,,,,,,,,,,,,,,,,,,,,597.4022538999998,597.9021147000021,597.9021147000021,598.6518699000007,598.6518699000007,599.1545189999997,599.1545189999997,599.9542553000028,599.9542553000028,None,num_4,0.3553412000001117,599.9542553000028,None,happy,1,Happy,600.3208230800032,None,None,600.3208230800032,None,,,,,,,,,,,,,,,,,,,,,,,,,,,,,,,,,,,,,,,,,,,,,,,,,,,,,31,001,0,23,310,310,2022_Oct_25_1430,Experiment,2021.1.4,360.32270499695255,
images\S6_M_H_01.png,images\S6_M_H_01_scrambled.png,6,happy,10,male,4,,391,off,1,0.5,0.75,0.5,0.88,3,390,3,1,1,0,0,0,0,4,,,,,,0,59,59,59,,,,,,,,,,,,,,,,,,,,,,,,,,,,,,,,,,,,,,,,,,,,,,,,,,,,,,,,,600.3708351000023,600.8762186000022,600.8762186000022,601.6315423000015,601.6315423000015,602.1369305000007,602.1369305000007,603.0200336000016,603.0200336000016,None,num_4,2.073494699998264,603.0200336000016,None,happy,1,Happy,605.1082457800024,None,None,605.1082457800024,None,,,,,,,,,,,,,,,,,,,,,,,,,,,,,,,,,,,,,,,,,,,,,,,,,,,,,31,001,0,23,310,310,2022_Oct_25_1430,Experiment,2021.1.4,360.32270499695255,
images\S9_F_S_03.png,images\S9_F_S_03_scrambled.png,9,sad,-30,female,1,,474,on,2,0.5,0.75,0.5,0.809,3,473,1,1,1,2,2,32,128,161,,,,,,0,60,60,60,,,,,,,,,,,,,,,,,,,,,,,,,,,,,,,,,,,,,,,,,,,,,,,,,,,,,,,,,605.1554350000006,605.6608699000026,605.6608699000026,606.4105979000014,606.4105979000014,606.9132190000018,606.9132190000018,607.7240893000017,607.7240893000017,None,num_6,0.36932570000135456,607.7240893000017,None,sad,1,Sad,608.10727988,None,None,608.10727988,None,,,,,,,,,,,,,,,,,,,,,,,,,,,,,,,,,,,,,,,,,,,,,,,,,,,,,31,001,0,23,310,310,2022_Oct_25_1430,Experiment,2021.1.4,360.32270499695255,
images\S4_M_S_02.png,images\S4_M_S_02_scrambled.png,4,sad,-20,male,2,,323,on,2,0.5,0.75,0.5,0.911,3,322,2,1,1,2,2,32,128,162,,,,,,0,61,61,61,,,,,,,,,,,,,,,,,,,,,,,,,,,,,,,,,,,,,,,,,,,,,,,,,,,,,,,,,608.1545097000017,608.6600053000002,608.6600053000002,609.4152820000018,609.4152820000018,609.9206744000003,609.9206744000003,610.8370401000029,610.8370401000029,None,num_6,0.26460039999801666,610.8370401000029,None,sad,1,Sad,611.1146986799998,None,None,611.1146986799998,None,,,,,,,,,,,,,,,,,,,,,,,,,,,,,,,,,,,,,,,,,,,,,,,,,,,,,31,001,0,23,310,310,2022_Oct_25_1430,Experiment,2021.1.4,360.32270499695255,
images\S4_M_H_03.png,images\S4_M_H_03_scrambled.png,4,happy,30,male,6,,21,off,1,0.5,0.75,0.5,0.832,3,20,1,2,1,0,0,0,0,6,,,,,,0,62,62,62,,,,,,,,,,,,,,,,,,,,,,,,,,,,,,,,,,,,,,,,,,,,,,,,,,,,,,,,,611.1646974000032,611.6645639000017,611.6645639000017,612.4170948999999,612.4170948999999,612.9197924,612.9197924,613.7556074000022,613.7556074000022,None,num_4,0.37046510000072885,613.7556074000022,None,happy,1,Happy,614.1472176200019,None,None,614.1472176200019,None,,,,,,,,,,,,,,,,,,,,,,,,,,,,,,,,,,,,,,,,,,,,,,,,,,,,,31,001,0,23,310,310,2022_Oct_25_1430,Experiment,2021.1.4,360.32270499695255,
images\S2_M_H_02.png,images\S2_M_H_02_scrambled.png,2,happy,20,male,5,,308,on,2,0.5,0.75,0.5,0.847,3,307,1,1,1,2,2,32,128,165,,,,,,0,63,63,63,,,,,,,,,,,,,,,,,,,,,,,,,,,,,,,,,,,,,,,,,,,,,,,,,,,,,,,,,614.1998886000001,614.7025114999997,614.7025114999997,615.4550431000025,615.4550431000025,615.9605107000025,615.9605107000025,616.810243400003,616.810243400003,None,num_4,0.5871799999986251,616.810243400003,None,happy,1,Happy,617.4184249400034,None,None,617.4184249400034,None,,,,,,,,,,,,,,,,,,,,,,,,,,,,,,,,,,,,,,,,,,,,,,,,,,,,,31,001,0,23,310,310,2022_Oct_25_1430,Experiment,2021.1.4,360.32270499695255,
images\S8_M_H_02.png,images\S8_M_H_02_scrambled.png,8,happy,20,male,5,,584,on,2,0.5,0.75,0.5,0.803,3,583,2,1,2,2,2,32,128,165,,,,,,0,64,64,64,,,,,,,,,,,,,,,,,,,,,,,,,,,,,,,,,,,,,,,,,,,,,,,,,,,,,,,,,617.4849764000028,617.9848558000012,617.9848558000012,618.7346147999997,618.7346147999997,619.237221000003,619.237221000003,620.0425393000005,620.0425393000005,None,num_4,0.9710511000012048,620.0425393000005,None,happy,1,Happy,621.0283243800026,None,None,621.0283243800026,None,,,,,,,,,,,,,,,,,,,,,,,,,,,,,,,,,,,,,,,,,,,,,,,,,,,,,31,001,0,23,310,310,2022_Oct_25_1430,Experiment,2021.1.4,360.32270499695255,
images\S2_M_H_03.png,images\S2_M_H_03_scrambled.png,2,happy,30,male,6,,369,off,1,0.5,0.75,0.5,0.85,3,368,1,1,1,0,0,0,0,6,,,,,,0,65,65,65,,,,,,,,,,,,,,,,,,,,,,,,,,,,,,,,,,,,,,,,,,,,,,,,,,,,,,,,,621.075549600002,621.5810223000008,621.5810223000008,622.3363280000012,622.3363280000012,622.8389373000027,622.8389373000027,623.6942208,623.6942208,None,num_4,0.5915772000007564,623.6942208,None,happy,1,Happy,624.2995661799999,None,None,624.2995661799999,None,,,,,,,,,,,,,,,,,,,,,,,,,,,,,,,,,,,,,,,,,,,,,,,,,,,,,31,001,0,23,310,310,2022_Oct_25_1430,Experiment,2021.1.4,360.32270499695255,
images\S2_M_H_01.png,images\S2_M_H_01_scrambled.png,2,happy,10,male,4,,187,on,2,0.5,0.75,0.5,0.927,3,186,1,2,1,2,2,32,128,164,,,,,,0,66,66,66,,,,,,,,,,,,,,,,,,,,,,,,,,,,,,,,,,,,,,,,,,,,,,,,,,,,,,,,,624.3550345000003,624.8577368000006,624.8577368000006,625.6102592000025,625.6102592000025,626.1157552000004,626.1157552000004,627.0460053000024,627.0460053000024,None,num_6,0.32748910000009346,627.0460053000024,None,sad,1,Happy,627.3791732400016,None,None,627.3791732400016,None,,,,,,,,,,,,,,,,,,,,,,,,,,,,,,,,,,,,,,,,,,,,,,,,,,,,,31,001,0,23,310,310,2022_Oct_25_1430,Experiment,2021.1.4,360.32270499695255,
images\S4_M_H_01.png,images\S4_M_H_01_scrambled.png,4,happy,10,male,4,,199,on,2,0.5,0.75,0.5,0.893,3,198,2,1,2,2,2,32,128,164,,,,,,0,67,67,67,,,,,,,,,,,,,,,,,,,,,,,,,,,,,,,,,,,,,,,,,,,,,,,,,,,,,,,,,627.4319228000022,627.9317727000016,627.9317727000016,628.6815478000026,628.6815478000026,629.1869683000004,629.1869683000004,630.0838862000019,630.0838862000019,None,num_6,0.33769170000232407,630.0838862000019,None,sad,1,Happy,630.4309813400025,None,None,630.4309813400025,None,,,,,,,,,,,,,,,,,,,,,,,,,,,,,,,,,,,,,,,,,,,,,,,,,,,,,31,001,0,23,310,310,2022_Oct_25_1430,Experiment,2021.1.4,360.32270499695255,
images\S3_F_S_01.png,images\S3_F_S_01_scrambled.png,3,sad,-10,female,3,,196,on,2,0.5,0.75,0.5,0.876,3,195,3,1,1,2,2,32,128,163,,,,,,0,68,68,68,,,,,,,,,,,,,,,,,,,,,,,,,,,,,,,,,,,,,,,,,,,,,,,,,,,,,,,,,630.4782183000025,630.9809452000009,630.9809452000009,631.7333940999997,631.7333940999997,632.2360602000008,632.2360602000008,633.1163343000007,633.1163343000007,None,num_6,0.6173979999985022,633.1163343000007,None,sad,1,Sad,633.746669980001,None,None,633.746669980001,None,,,,,,,,,,,,,,,,,,,,,,,,,,,,,,,,,,,,,,,,,,,,,,,,,,,,,31,001,0,23,310,310,2022_Oct_25_1430,Experiment,2021.1.4,360.32270499695255,
images\S8_M_S_02.png,images\S8_M_S_02_scrambled.png,8,sad,-20,male,2,,47,off,1,0.5,0.75,0.5,0.884,3,46,1,1,1,0,0,0,0,2,,,,,,0,69,69,69,,,,,,,,,,,,,,,,,,,,,,,,,,,,,,,,,,,,,,,,,,,,,,,,,,,,,,,,,633.7966463000012,634.302068500001,634.302068500001,635.0547155000022,635.0547155000022,635.5572371000017,635.5572371000017,636.4459036000007,636.4459036000007,None,num_6,0.4558242999992217,636.4459036000007,None,sad,1,Sad,636.915116280003,None,None,636.915116280003,None,,,,,,,,,,,,,,,,,,,,,,,,,,,,,,,,,,,,,,,,,,,,,,,,,,,,,31,001,0,23,310,310,2022_Oct_25_1430,Experiment,2021.1.4,360.32270499695255,
images\S10_M_S_01.png,images\S10_M_S_01_scrambled.png,10,sad,-10,male,3,,358,on,2,0.5,0.75,0.5,0.796,3,357,1,1,1,2,2,32,128,163,,,,,,0,70,70,70,,,,,,,,,,,,,,,,,,,,,,,,,,,,,,,,,,,,,,,,,,,,,,,,,,,,,,,,,636.9623334999997,637.4677541000019,637.4677541000019,638.2230705000002,638.2230705000002,638.7258048000003,638.7258048000003,639.525448700002,639.525448700002,None,num_4,0.37637589999940246,639.525448700002,None,happy,1,Sad,639.9114391400028,None,None,639.9114391400028,None,,,,,,,,,,,,,,,,,,,,,,,,,,,,,,,,,,,,,,,,,,,,,,,,,,,,,31,001,0,23,310,310,2022_Oct_25_1430,Experiment,2021.1.4,360.32270499695255,
images\S1_F_H_03.png,images\S1_F_H_03_scrambled.png,1,happy,30,female,6,,423,on,2,0.5,0.75,0.5,0.882,3,422,2,1,1,2,2,32,128,166,,,,,,0,71,71,71,,,,,,,,,,,,,,,,,,,,,,,,,,,,,,,,,,,,,,,,,,,,,,,,,,,,,,,,,639.9586439000013,640.4612565999996,640.4612565999996,641.2110289000011,641.2110289000011,641.7164857000025,641.7164857000025,642.6022652000029,642.6022652000029,None,num_4,0.30737280000175815,642.6022652000029,None,happy,1,Happy,642.9244063800019,None,None,642.9244063800019,None,,,,,,,,,,,,,,,,,,,,,,,,,,,,,,,,,,,,,,,,,,,,,,,,,,,,,31,001,0,23,310,310,2022_Oct_25_1430,Experiment,2021.1.4,360.32270499695255,
images\blank.jpg,images\blank.jpg,none,none,none,none,0,,621,on,2,0.5,0.75,0.5,0.827,0,620,3,1,1,3,3,48,192,240,,,,,,0,72,72,72,,,,,,,,,,,,,,,,,,,,,,,,,,,,,,,,,,,,,,,,,,,,,,,,,,,,,,,,,643.0078993000025,643.5103208,643.5103208,644.2601056000021,644.2601056000021,644.7656290000014,644.7656290000014,645.5930139000011,645.5930139000011,645.5930139000011,None,,645.5930139000011,None,miss,1,,648.59494604,None,None,648.59494604,None,,,,,,,,,,,,,,,,,,,,,,,,,,,,,,,,,,,,,,,,,,,,,,,,,,,,,31,001,0,23,310,310,2022_Oct_25_1430,Experiment,2021.1.4,360.32270499695255,
images\S9_F_S_02.png,images\S9_F_S_02_scrambled.png,9,sad,-20,female,2,,413,off,1,0.5,0.75,0.5,0.791,3,412,1,1,1,0,0,0,0,2,,,,,,0,73,73,73,,,,,,,,,,,,,,,,,,,,,,,,,,,,,,,,,,,,,,,,,,,,,,,,,,,,,,,,,648.7172989999999,649.2169011000005,649.2169011000005,649.9695830000019,649.9695830000019,650.4693382000005,650.4693382000005,651.2663184000012,651.2663184000012,None,num_4,2.187309799999639,651.2663184000012,648.7172989999999,happy,1,Sad,653.4628347400023,None,None,653.4628347400023,None,,,,,,,,,,,,,,,,,,,,,,,,,,,,,,,,,,,,,,,,,,,,,,,,,,,,,31,001,0,23,310,310,2022_Oct_25_1430,Experiment,2021.1.4,360.32270499695255,
images\S9_F_S_03.png,images\S9_F_S_03_scrambled.png,9,sad,-30,female,1,,294,off,1,0.5,0.75,0.5,0.85,3,293,2,2,1,0,0,0,0,1,,,,,,0,74,74,74,,,,,,,,,,,,,,,,,,,,,,,,,,,,,,,,,,,,,,,,,,,,,,,,,,,,,,,,,653.5100362000012,654.0126700000001,654.0126700000001,654.7653324000021,654.7653324000021,655.2678454000015,655.2678454000015,656.120462400002,656.120462400002,None,num_6,1.4371141999981774,656.120462400002,None,sad,1,Sad,657.57269648,None,None,657.57269648,None,,,,,,,,,,,,,,,,,,,,,,,,,,,,,,,,,,,,,,,,,,,,,,,,,,,,,31,001,0,23,310,310,2022_Oct_25_1430,Experiment,2021.1.4,360.32270499695255,
images\S1_F_S_02.png,images\S1_F_S_02_scrambled.png,1,sad,-20,female,2,,305,on,2,0.5,0.75,0.5,0.855,3,304,1,1,1,2,2,32,128,162,,,,,,0,75,75,75,,,,,,,,,,,,,,,,,,,,,,,,,,,,,,,,,,,,,,,,,,,,,,,,,,,,,,,,,657.6198837000011,658.1225418000031,658.1225418000031,658.8778568000016,658.8778568000016,659.3832566000019,659.3832566000019,660.2440837000031,660.2440837000031,None,num_4,0.2576160999997228,660.2440837000031,None,happy,1,Sad,660.5134808600004,None,None,660.5134808600004,None,,,,,,,,,,,,,,,,,,,,,,,,,,,,,,,,,,,,,,,,,,,,,,,,,,,,,31,001,0,23,310,310,2022_Oct_25_1430,Experiment,2021.1.4,360.32270499695255,
images\S7_F_H_03.png,images\S7_F_H_03_scrambled.png,7,happy,30,female,6,,579,on,2,0.5,0.75,0.5,0.814,3,578,2,1,1,2,2,32,128,166,,,,,,0,76,76,76,,,,,,,,,,,,,,,,,,,,,,,,,,,,,,,,,,,,,,,,,,,,,,,,,,,,,,,,,660.5717490999996,661.0743897000029,661.0743897000029,661.8270168000017,661.8270168000017,662.3323705000003,662.3323705000003,663.1543803000022,663.1543803000022,None,num_4,0.35502919999998994,663.1543803000022,None,happy,1,Happy,663.5236123800008,None,None,663.5236123800008,None,,,,,,,,,,,,,,,,,,,,,,,,,,,,,,,,,,,,,,,,,,,,,,,,,,,,,31,001,0,23,310,310,2022_Oct_25_1430,Experiment,2021.1.4,360.32270499695255,
images\blank.jpg,images\blank.jpg,none,none,none,none,0,,615,on,2,0.5,0.75,0.5,0.9,0,614,3,1,1,3,3,48,192,240,,,,,,0,77,77,77,,,,,,,,,,,,,,,,,,,,,,,,,,,,,,,,,,,,,,,,,,,,,,,,,,,,,,,,,663.6071179999999,664.1123719999996,664.1123719999996,664.8648878000022,664.8648878000022,665.3647242000006,665.3647242000006,666.2645353000007,666.2645353000007,666.2645353000007,None,,666.2645353000007,None,miss,1,,669.2635755200023,None,None,669.2635755200023,None,,,,,,,,,,,,,,,,,,,,,,,,,,,,,,,,,,,,,,,,,,,,,,,,,,,,,31,001,0,23,310,310,2022_Oct_25_1430,Experiment,2021.1.4,360.32270499695255,
images\S3_F_S_01.png,images\S3_F_S_01_scrambled.png,3,sad,-10,female,3,,376,off,1,0.5,0.75,0.5,0.793,3,375,1,1,1,0,0,0,0,3,,,,,,0,78,78,78,,,,,,,,,,,,,,,,,,,,,,,,,,,,,,,,,,,,,,,,,,,,,,,,,,,,,,,,,669.3859819000027,669.8912409000004,669.8912409000004,670.6408862999997,670.6408862999997,671.1407580000014,671.1407580000014,671.9377531999999,671.9377531999999,None,num_6,0.5399690000012924,671.9377531999999,669.3859819000027,sad,1,Sad,672.4931115800013,None,None,672.4931115800013,None,,,,,,,,,,,,,,,,,,,,,,,,,,,,,,,,,,,,,,,,,,,,,,,,,,,,,31,001,0,23,310,310,2022_Oct_25_1430,Experiment,2021.1.4,360.32270499695255,
images\S8_M_H_03.png,images\S8_M_H_03_scrambled.png,8,happy,30,male,6,,45,off,1,0.5,0.75,0.5,0.842,3,44,2,1,1,0,0,0,0,6,,,,,,0,79,79,79,,,,,,,,,,,,,,,,,,,,,,,,,,,,,,,,,,,,,,,,,,,,,,,,,,,,,,,,,672.5430817000015,673.0457431000032,673.0457431000032,673.8010188000007,673.8010188000007,674.3065036000007,674.3065036000007,675.1534262000023,675.1534262000023,None,num_4,0.36412190000191913,675.1534262000023,None,happy,1,Happy,675.531060980002,None,None,675.531060980002,None,,,,,,,,,,,,,,,,,,,,,,,,,,,,,,,,,,,,,,,,,,,,,,,,,,,,,31,001,0,23,310,310,2022_Oct_25_1430,Experiment,2021.1.4,360.32270499695255,
images\S6_M_S_03.png,images\S6_M_S_03_scrambled.png,6,sad,-30,male,1,,216,on,2,0.5,0.75,0.5,0.934,3,215,1,1,1,2,2,32,128,161,,,,,,0,80,80,80,,,,,,,,,,,,,,,,,,,,,,,,,,,,,,,,,,,,,,,,,,,,,,,,,,,,,,,,,675.5782797000029,676.0814285000015,676.0814285000015,676.8334584000004,676.8334584000004,677.3361820999999,677.3361820999999,678.2774690000006,678.2774690000006,None,num_6,0.32844980000299984,678.2774690000006,None,sad,1,Sad,678.6246563200017,None,None,678.6246563200017,None,,,,,,,,,,,,,,,,,,,,,,,,,,,,,,,,,,,,,,,,,,,,,,,,,,,,,31,001,0,23,310,310,2022_Oct_25_1430,Experiment,2021.1.4,360.32270499695255,
images\S2_M_S_03.png,images\S2_M_S_03_scrambled.png,2,sad,-30,male,1,,252,off,1,0.5,0.75,0.5,0.921,3,251,1,1,2,0,0,0,0,1,,,,,,0,81,81,81,,,,,,,,,,,,,,,,,,,,,,,,,,,,,,,,,,,,,,,,,,,,,,,,,,,,,,,,,678.6773030000004,679.1827076000009,679.1827076000009,679.9380551000031,679.9380551000031,680.437877700002,680.437877700002,681.3598136,681.3598136,None,num_6,0.41371110000181943,681.3598136,None,sad,1,Sad,681.7847192800022,None,None,681.7847192800022,None,,,,,,,,,,,,,,,,,,,,,,,,,,,,,,,,,,,,,,,,,,,,,,,,,,,,,31,001,0,23,310,310,2022_Oct_25_1430,Experiment,2021.1.4,360.32270499695255,
images\S6_M_S_02.png,images\S6_M_S_02_scrambled.png,6,sad,-20,male,2,,215,on,2,0.5,0.75,0.5,0.844,3,214,1,1,1,2,2,32,128,162,,,,,,0,82,82,82,,,,,,,,,,,,,,,,,,,,,,,,,,,,,,,,,,,,,,,,,,,,,,,,,,,,,,,,,681.8346708999998,682.3345278000015,682.3345278000015,683.0871045000022,683.0871045000022,683.5897334000001,683.5897334000001,684.4367469000026,684.4367469000026,None,num_6,0.552961299999879,684.4367469000026,None,sad,1,Sad,685.0031354800034,None,None,685.0031354800034,None,,,,,,,,,,,,,,,,,,,,,,,,,,,,,,,,,,,,,,,,,,,,,,,,,,,,,31,001,0,23,310,310,2022_Oct_25_1430,Experiment,2021.1.4,360.32270499695255,
images\S7_F_S_03.png,images\S7_F_S_03_scrambled.png,7,sad,-30,female,1,,522,off,1,0.5,0.75,0.5,0.931,3,521,1,1,1,0,0,0,0,1,,,,,,0,83,83,83,,,,,,,,,,,,,,,,,,,,,,,,,,,,,,,,,,,,,,,,,,,,,,,,,,,,,,,,,685.0503529000016,685.5529999999999,685.5529999999999,686.3055574000027,686.3055574000027,686.8081421000024,686.8081421000024,687.7412025000012,687.7412025000012,None,num_6,0.5204835000004095,687.7412025000012,None,sad,1,Sad,688.288281760001,None,None,688.288281760001,None,,,,,,,,,,,,,,,,,,,,,,,,,,,,,,,,,,,,,,,,,,,,,,,,,,,,,31,001,0,23,310,310,2022_Oct_25_1430,Experiment,2021.1.4,360.32270499695255,
images\S6_M_H_02.png,images\S6_M_H_02_scrambled.png,6,happy,20,male,5,,572,on,2,0.5,0.75,0.5,0.794,3,571,1,1,1,2,2,32,128,165,,,,,,0,84,84,84,,,,,,,,,,,,,,,,,,,,,,,,,,,,,,,,,,,,,,,,,,,,,,,,,,,,,,,,,688.3521101000006,688.8575564000021,688.8575564000021,689.6128812999996,689.6128812999996,690.1182675000018,690.1182675000018,690.9152524000019,690.9152524000019,None,num_4,0.3465289000014309,690.9152524000019,None,happy,1,Happy,691.2762052800011,None,None,691.2762052800011,None,,,,,,,,,,,,,,,,,,,,,,,,,,,,,,,,,,,,,,,,,,,,,,,,,,,,,31,001,0,23,310,310,2022_Oct_25_1430,Experiment,2021.1.4,360.32270499695255,
images\S9_F_H_03.png,images\S9_F_H_03_scrambled.png,9,happy,30,female,6,,111,on,2,0.5,0.75,0.5,0.864,3,110,2,1,1,2,2,32,128,166,,,,,,0,85,85,85,,,,,,,,,,,,,,,,,,,,,,,,,,,,,,,,,,,,,,,,,,,,,,,,,,,,,,,,,691.3234316000016,691.828844300002,691.828844300002,692.5841691000023,692.5841691000023,693.0839909000024,693.0839909000024,693.9476245000005,693.9476245000005,None,num_4,0.44197109999731765,693.9476245000005,None,happy,1,Happy,694.4002381800004,None,None,694.4002381800004,None,,,,,,,,,,,,,,,,,,,,,,,,,,,,,,,,,,,,,,,,,,,,,,,,,,,,,31,001,0,23,310,310,2022_Oct_25_1430,Experiment,2021.1.4,360.32270499695255,
images\S9_F_S_01.png,images\S9_F_S_01_scrambled.png,9,sad,-10,female,3,,52,off,1,0.5,0.75,0.5,0.827,3,51,1,2,1,0,0,0,0,3,,,,,,0,86,86,86,,,,,,,,,,,,,,,,,,,,,,,,,,,,,,,,,,,,,,,,,,,,,,,,,,,,,,,,,694.4502407,694.952894500002,694.952894500002,695.7054516999997,695.7054516999997,696.2080747,696.2080747,697.0412391000027,697.0412391000027,None,num_4,2.8844776999976602,697.0412391000027,None,happy,1,Sad,699.9346687400023,None,None,699.9346687400023,None,,,,,,,,,,,,,,,,,,,,,,,,,,,,,,,,,,,,,,,,,,,,,,,,,,,,,31,001,0,23,310,310,2022_Oct_25_1430,Experiment,2021.1.4,360.32270499695255,
images\S9_F_H_03.png,images\S9_F_H_03_scrambled.png,9,happy,30,female,6,,471,on,2,0.5,0.75,0.5,0.923,3,470,1,3,1,2,2,32,128,166,,,,,,0,87,87,87,,,,,,,,,,,,,,,,,,,,,,,,,,,,,,,,,,,,,,,,,,,,,,,,,,,,,,,,,699.9818777,700.4817204999999,700.4817204999999,701.2315000000017,701.2315000000017,701.7370330000012,701.7370330000012,702.664381300001,702.664381300001,None,num_4,0.2690225000005739,702.664381300001,None,happy,1,Happy,702.9615594000024,None,None,702.9615594000024,None,,,,,,,,,,,,,,,,,,,,,,,,,,,,,,,,,,,,,,,,,,,,,,,,,,,,,31,001,0,23,310,310,2022_Oct_25_1430,Experiment,2021.1.4,360.32270499695255,
images\S5_F_S_01.png,images\S5_F_S_01_scrambled.png,5,sad,-10,female,3,,88,on,2,0.5,0.75,0.5,0.859,3,87,2,1,1,2,2,32,128,163,,,,,,0,88,88,88,,,,,,,,,,,,,,,,,,,,,,,,,,,,,,,,,,,,,,,,,,,,,,,,,,,,,,,,,703.0281793000031,703.5280050000001,703.5280050000001,704.2778021000013,704.2778021000013,704.7832355999999,704.7832355999999,705.6440557000024,705.6440557000024,None,num_4,0.39351949999763747,705.6440557000024,None,happy,1,Sad,706.0466652400021,None,None,706.0466652400021,None,,,,,,,,,,,,,,,,,,,,,,,,,,,,,,,,,,,,,,,,,,,,,,,,,,,,,31,001,0,23,310,310,2022_Oct_25_1430,Experiment,2021.1.4,360.32270499695255,
images\S9_F_H_02.png,images\S9_F_H_02_scrambled.png,9,happy,20,female,5,,290,off,1,0.5,0.75,0.5,0.83,3,289,1,1,1,0,0,0,0,5,,,,,,0,89,89,89,,,,,,,,,,,,,,,,,,,,,,,,,,,,,,,,,,,,,,,,,,,,,,,,,,,,,,,,,706.0967238000012,706.6021584000009,706.6021584000009,707.351866500001,707.351866500001,707.8573711999998,707.8573711999998,708.690327700002,708.690327700002,None,num_4,0.4192555999979959,708.690327700002,None,happy,1,Happy,709.1235492000033,None,None,709.1235492000033,None,,,,,,,,,,,,,,,,,,,,,,,,,,,,,,,,,,,,,,,,,,,,,,,,,,,,,31,001,0,23,310,310,2022_Oct_25_1430,Experiment,2021.1.4,360.32270499695255,
images\blank.jpg,images\blank.jpg,none,none,none,none,0,,620,on,2,0.5,0.75,0.5,0.873,0,619,1,1,1,3,3,48,192,240,,,,,,0,90,90,90,,,,,,,,,,,,,,,,,,,,,,,,,,,,,,,,,,,,,,,,,,,,,,,,,,,,,,,,,709.2070130000029,709.7094649000028,709.7094649000028,710.4620212000009,710.4620212000009,710.9675260000004,710.9675260000004,711.8421554000015,711.8421554000015,711.8421554000015,None,,711.8421554000015,None,miss,1,,714.8440455400007,None,None,714.8440455400007,None,,,,,,,,,,,,,,,,,,,,,,,,,,,,,,,,,,,,,,,,,,,,,,,,,,,,,31,001,0,23,310,310,2022_Oct_25_1430,Experiment,2021.1.4,360.32270499695255,
images\S7_F_H_02.png,images\S7_F_H_02_scrambled.png,7,happy,20,female,5,,458,on,2,0.5,0.75,0.5,0.846,3,457,2,1,1,2,2,32,128,165,,,,,,0,91,91,91,,,,,,,,,,,,,,,,,,,,,,,,,,,,,,,,,,,,,,,,,,,,,,,,,,,,,,,,,714.9636425999997,715.4632644000012,715.4632644000012,716.2130227000016,716.2130227000016,716.7185338000018,716.7185338000018,717.5682691000002,717.5682691000002,None,num_4,1.0774612999994133,717.5682691000002,714.9636425999997,happy,1,Happy,718.6761907000036,None,None,718.6761907000036,None,,,,,,,,,,,,,,,,,,,,,,,,,,,,,,,,,,,,,,,,,,,,,,,,,,,,,31,001,0,23,310,310,2022_Oct_25_1430,Experiment,2021.1.4,360.32270499695255,
images\S3_F_H_01.png,images\S3_F_H_01_scrambled.png,3,happy,10,female,4,,73,on,2,0.5,0.75,0.5,0.768,3,72,3,1,1,2,2,32,128,164,,,,,,0,92,92,92,,,,,,,,,,,,,,,,,,,,,,,,,,,,,,,,,,,,,,,,,,,,,,,,,,,,,,,,,718.731674900002,719.2343051000025,719.2343051000025,719.9896537000022,719.9896537000022,720.4922444000003,720.4922444000003,721.2642778000009,721.2642778000009,None,num_6,0.3893406999995932,721.2642778000009,None,sad,1,Happy,721.6613280400009,None,None,721.6613280400009,None,,,,,,,,,,,,,,,,,,,,,,,,,,,,,,,,,,,,,,,,,,,,,,,,,,,,,31,001,0,23,310,310,2022_Oct_25_1430,Experiment,2021.1.4,360.32270499695255,
images\S6_M_S_02.png,images\S6_M_S_02_scrambled.png,6,sad,-20,male,2,,35,off,1,0.5,0.75,0.5,0.914,3,34,1,1,1,0,0,0,0,2,,,,,,0,93,93,93,,,,,,,,,,,,,,,,,,,,,,,,,,,,,,,,,,,,,,,,,,,,,,,,,,,,,,,,,721.7085392000008,722.2111716,722.2111716,722.9665062000022,722.9665062000022,723.4691539000014,723.4691539000014,724.3855263000005,724.3855263000005,None,num_6,0.5799784999981057,724.3855263000005,None,sad,1,Sad,724.9769746800033,None,None,724.9769746800033,None,,,,,,,,,,,,,,,,,,,,,,,,,,,,,,,,,,,,,,,,,,,,,,,,,,,,,31,001,0,23,310,310,2022_Oct_25_1430,Experiment,2021.1.4,360.32270499695255,
images\S5_F_S_02.png,images\S5_F_S_02_scrambled.png,5,sad,-20,female,2,,509,off,1,0.5,0.75,0.5,0.841,3,508,2,1,2,0,0,0,0,2,,,,,,0,94,94,94,,,,,,,,,,,,,,,,,,,,,,,,,,,,,,,,,,,,,,,,,,,,,,,,,,,,,,,,,725.0241877000008,725.5296292000021,725.5296292000021,726.2821416000006,726.2821416000006,726.7819894000022,726.7819894000022,727.6261642000027,727.6261642000027,None,num_4,0.3638470000005327,727.6261642000027,None,happy,1,Sad,728.003915760003,None,None,728.003915760003,None,,,,,,,,,,,,,,,,,,,,,,,,,,,,,,,,,,,,,,,,,,,,,,,,,,,,,31,001,0,23,310,310,2022_Oct_25_1430,Experiment,2021.1.4,360.32270499695255,
images\S4_M_S_03.png,images\S4_M_S_03_scrambled.png,4,sad,-30,male,1,,144,off,1,0.5,0.75,0.5,0.931,3,143,3,1,1,0,0,0,0,1,,,,,,0,95,95,95,,,,,,,,,,,,,,,,,,,,,,,,,,,,,,,,,,,,,,,,,,,,,,,,,,,,,,,,,728.0649462000001,728.5703498000003,728.5703498000003,729.3229998000024,729.3229998000024,729.8283893000007,729.8283893000007,730.7641390000026,730.7641390000026,None,num_6,0.6173921000008704,730.7641390000026,None,sad,1,Sad,731.4027955400027,None,None,731.4027955400027,None,,,,,,,,,,,,,,,,,,,,,,,,,,,,,,,,,,,,,,,,,,,,,,,,,,,,,31,001,0,23,310,310,2022_Oct_25_1430,Experiment,2021.1.4,360.32270499695255,
images\S10_M_H_02.png,images\S10_M_H_02_scrambled.png,10,happy,20,male,5,,236,on,2,0.5,0.75,0.5,0.858,3,235,1,1,1,2,2,32,128,165,,,,,,0,96,96,96,,,,,,,,,,,,,,,,,,,,,,,,,,,,,,,,,,,,,,,,,,,,,,,,,,,,,,,,,731.4555488000005,731.9609634000008,731.9609634000008,732.713638600002,732.713638600002,733.2189693,733.2189693,734.0769610999996,734.0769610999996,None,num_4,0.36861160000262316,734.0769610999996,None,happy,1,Happy,734.4629977000022,None,None,734.4629977000022,None,,,,,,,,,,,,,,,,,,,,,,,,,,,,,,,,,,,,,,,,,,,,,,,,,,,,,31,001,0,23,310,310,2022_Oct_25_1430,Experiment,2021.1.4,360.32270499695255,
images\S7_F_H_01.png,images\S7_F_H_01_scrambled.png,7,happy,10,female,4,,577,on,2,0.5,0.75,0.5,0.858,3,576,2,1,1,2,2,32,128,164,,,,,,0,97,97,97,,,,,,,,,,,,,,,,,,,,,,,,,,,,,,,,,,,,,,,,,,,,,,,,,,,,,,,,,734.5101816000024,735.0155618999997,735.0155618999997,735.768257300002,735.768257300002,736.2707551000021,736.2707551000021,737.1344019999997,737.1344019999997,None,num_6,1.7670705999989877,737.1344019999997,None,sad,1,Happy,738.9116156400007,None,None,738.9116156400007,None,,,,,,,,,,,,,,,,,,,,,,,,,,,,,,,,,,,,,,,,,,,,,,,,,,,,,31,001,0,23,310,310,2022_Oct_25_1430,Experiment,2021.1.4,360.32270499695255,
images\S1_F_S_02.png,images\S1_F_S_02_scrambled.png,1,sad,-20,female,2,,485,off,1,0.5,0.75,0.5,0.819,3,484,1,1,1,0,0,0,0,2,,,,,,0,98,98,98,,,,,,,,,,,,,,,,,,,,,,,,,,,,,,,,,,,,,,,,,,,,,,,,,,,,,,,,,738.956025200001,739.4614613000012,739.4614613000012,740.216755100002,740.216755100002,740.7194006999998,740.7194006999998,741.5413800000024,741.5413800000024,None,num_4,0.5681817999975465,741.5413800000024,None,happy,1,Sad,742.1217429400015,None,None,742.1217429400015,None,,,,,,,,,,,,,,,,,,,,,,,,,,,,,,,,,,,,,,,,,,,,,,,,,,,,,31,001,0,23,310,310,2022_Oct_25_1430,Experiment,2021.1.4,360.32270499695255,
images\S9_F_S_02.png,images\S9_F_S_02_scrambled.png,9,sad,-20,female,2,,293,off,1,0.5,0.75,0.5,0.855,3,292,2,1,2,0,0,0,0,2,,,,,,0,99,99,99,,,,,,,,,,,,,,,,,,,,,,,,,,,,,,,,,,,,,,,,,,,,,,,,,,,,,,,,,742.1689243000001,742.6744482000031,742.6744482000031,743.4269021,743.4269021,743.9323018000032,743.9323018000032,744.7931416000029,744.7931416000029,None,num_6,1.2684884000009333,744.7931416000029,None,sad,1,Sad,746.0760182800026,None,None,746.0760182800026,None,,,,,,,,,,,,,,,,,,,,,,,,,,,,,,,,,,,,,,,,,,,,,,,,,,,,,31,001,0,23,310,310,2022_Oct_25_1430,Experiment,2021.1.4,360.32270499695255,
images\blank.jpg,images\blank.jpg,none,none,none,none,0,,641,on,2,0.5,0.75,0.5,0.903,0,640,1,1,1,3,3,48,192,240,,,,,,0,100,100,100,,,,,,,,,,,,,,,,,,,,,,,,,,,,,,,,,,,,,,,,,,,,,,,,,,,,,,,,,746.1596196000028,746.6619874000025,746.6619874000025,747.4117637000018,747.4117637000018,747.9171655000027,747.9171655000027,748.8197011000011,748.8197011000011,748.8197011000011,None,,748.8197011000011,None,miss,1,,751.818798220003,None,None,751.818798220003,None,,,,,,,,,,,,,,,,,,,,,,,,,,,,,,,,,,,,,,,,,,,,,,,,,,,,,31,001,0,23,310,310,2022_Oct_25_1430,Experiment,2021.1.4,360.32270499695255,
images\S1_F_S_01.png,images\S1_F_S_01_scrambled.png,1,sad,-10,female,3,,544,on,2,0.5,0.75,0.5,0.916,3,543,2,1,1,2,2,32,128,163,,,,,,0,101,101,101,,,,,,,,,,,,,,,,,,,,,,,,,,,,,,,,,,,,,,,,,,,,,,,,,,,,,,,,,751.9384092,752.4408128000032,752.4408128000032,753.1961234000009,753.1961234000009,753.6959461000006,753.6959461000006,754.6151486000017,754.6151486000017,None,num_4,0.3665866000010283,754.6151486000017,751.9384092,happy,1,Sad,754.9927265600007,None,None,754.9927265600007,None,,,,,,,,,,,,,,,,,,,,,,,,,,,,,,,,,,,,,,,,,,,,,,,,,,,,,31,001,0,23,310,310,2022_Oct_25_1430,Experiment,2021.1.4,360.32270499695255,
images\blank.jpg,images\blank.jpg,none,none,none,none,0,,607,on,2,0.5,0.75,0.5,0.925,0,606,3,1,1,3,3,48,192,240,,,,,,0,102,102,102,,,,,,,,,,,,,,,,,,,,,,,,,,,,,,,,,,,,,,,,,,,,,,,,,,,,,,,,,755.0985808000005,755.6009410000006,755.6009410000006,756.3506878000007,756.3506878000007,756.8533358000022,756.8533358000022,757.7780663000012,757.7780663000012,757.7780663000012,None,,757.7780663000012,None,miss,1,,760.7799494400017,None,None,760.7799494400017,None,,,,,,,,,,,,,,,,,,,,,,,,,,,,,,,,,,,,,,,,,,,,,,,,,,,,,31,001,0,23,310,310,2022_Oct_25_1430,Experiment,2021.1.4,360.32270499695255,
images\S3_F_S_02.png,images\S3_F_S_02_scrambled.png,3,sad,-20,female,2,,257,off,1,0.5,0.75,0.5,0.793,3,256,1,1,1,0,0,0,0,2,,,,,,0,103,103,103,,,,,,,,,,,,,,,,,,,,,,,,,,,,,,,,,,,,,,,,,,,,,,,,,,,,,,,,,760.9023410000009,761.4047710000013,761.4047710000013,762.1600529000025,762.1600529000025,762.659856600003,762.659856600003,763.4597007000011,763.4597007000011,None,num_6,1.8019592000018747,763.4597007000011,760.9023410000009,sad,1,Sad,765.2757166800023,None,None,765.2757166800023,None,,,,,,,,,,,,,,,,,,,,,,,,,,,,,,,,,,,,,,,,,,,,,,,,,,,,,31,001,0,23,310,310,2022_Oct_25_1430,Experiment,2021.1.4,360.32270499695255,
images\S7_F_H_02.png,images\S7_F_H_02_scrambled.png,7,happy,20,female,5,,38,off,1,0.5,0.75,0.5,0.861,3,37,2,1,1,0,0,0,0,5,,,,,,0,104,104,104,,,,,,,,,,,,,,,,,,,,,,,,,,,,,,,,,,,,,,,,,,,,,,,,,,,,,,,,,765.3229323000014,765.8256841000002,765.8256841000002,766.5809520000003,766.5809520000003,767.0863219000021,767.0863219000021,767.9500366000029,767.9500366000029,None,num_4,0.37545350000073086,767.9500366000029,None,happy,1,Happy,768.3359565800005,None,None,768.3359565800005,None,,,,,,,,,,,,,,,,,,,,,,,,,,,,,,,,,,,,,,,,,,,,,,,,,,,,,31,001,0,23,310,310,2022_Oct_25_1430,Experiment,2021.1.4,360.32270499695255,
images\S4_M_H_02.png,images\S4_M_H_02_scrambled.png,4,happy,20,male,5,,260,off,1,0.5,0.75,0.5,0.914,3,259,3,1,2,0,0,0,0,5,,,,,,0,105,105,105,,,,,,,,,,,,,,,,,,,,,,,,,,,,,,,,,,,,,,,,,,,,,,,,,,,,,,,,,768.3997621000017,768.9023839000001,768.9023839000001,769.6550639000016,769.6550639000016,770.1575770000018,770.1575770000018,771.0711733000026,771.0711733000026,None,num_6,0.4865706999989925,771.0711733000026,None,sad,1,Happy,771.5627337400031,None,None,771.5627337400031,None,,,,,,,,,,,,,,,,,,,,,,,,,,,,,,,,,,,,,,,,,,,,,,,,,,,,,31,001,0,23,310,310,2022_Oct_25_1430,Experiment,2021.1.4,360.32270499695255,
images\S2_M_H_01.png,images\S2_M_H_01_scrambled.png,2,happy,10,male,4,,367,off,1,0.5,0.75,0.5,0.882,3,366,4,1,1,0,0,0,0,4,,,,,,0,106,106,106,,,,,,,,,,,,,,,,,,,,,,,,,,,,,,,,,,,,,,,,,,,,,,,,,,,,,,,,,771.6098913000023,772.1125435000031,772.1125435000031,772.8651849000016,772.8651849000016,773.3705948000024,773.3705948000024,774.2563425000008,774.2563425000008,None,num_4,0.40580730000147014,774.2563425000008,None,happy,1,Happy,774.6896018600027,None,None,774.6896018600027,None,,,,,,,,,,,,,,,,,,,,,,,,,,,,,,,,,,,,,,,,,,,,,,,,,,,,,31,001,0,23,310,310,2022_Oct_25_1430,Experiment,2021.1.4,360.32270499695255,
images\S9_F_S_02.png,images\S9_F_S_02_scrambled.png,9,sad,-20,female,2,,353,on,2,0.5,0.75,0.5,0.907,3,352,1,1,1,2,2,32,128,162,,,,,,0,107,107,107,,,,,,,,,,,,,,,,,,,,,,,,,,,,,,,,,,,,,,,,,,,,,,,,,,,,,,,,,774.7422612000009,775.2450177999999,775.2450177999999,775.9946823999999,775.9946823999999,776.4972731000016,776.4972731000016,777.4081280000028,777.4081280000028,None,num_6,2.4454879999975674,777.4081280000028,None,sad,1,Sad,779.8657159800008,None,None,779.8657159800008,None,,,,,,,,,,,,,,,,,,,,,,,,,,,,,,,,,,,,,,,,,,,,,,,,,,,,,31,001,0,23,310,310,2022_Oct_25_1430,Experiment,2021.1.4,360.32270499695255,
images\S1_F_S_03.png,images\S1_F_S_03_scrambled.png,1,sad,-30,female,1,,486,off,1,0.5,0.75,0.5,0.875,3,485,1,1,1,0,0,0,0,1,,,,,,0,108,108,108,,,,,,,,,,,,,,,,,,,,,,,,,,,,,,,,,,,,,,,,,,,,,,,,,,,,,,,,,779.9129184000012,780.418321600002,780.418321600002,781.1736563000013,781.1736563000013,781.6762378000021,781.6762378000021,782.5509850000017,782.5509850000017,None,num_6,0.551046900000074,782.5509850000017,None,sad,1,Sad,783.1286069600036,None,None,783.1286069600036,None,,,,,,,,,,,,,,,,,,,,,,,,,,,,,,,,,,,,,,,,,,,,,,,,,,,,,31,001,0,23,310,310,2022_Oct_25_1430,Experiment,2021.1.4,360.32270499695255,
images\S9_F_H_01.png,images\S9_F_H_01_scrambled.png,9,happy,10,female,4,,169,off,1,0.5,0.75,0.5,0.856,3,168,2,1,1,0,0,0,0,4,,,,,,0,109,109,109,,,,,,,,,,,,,,,,,,,,,,,,,,,,,,,,,,,,,,,,,,,,,,,,,,,,,,,,,783.1924447000019,783.6950880000004,783.6950880000004,784.4477579000013,784.4477579000013,784.9502509000013,784.9502509000013,785.8083521000008,785.8083521000008,None,num_4,0.3010743000013463,785.8083521000008,None,happy,1,Happy,786.1221331800028,None,None,786.1221331800028,None,,,,,,,,,,,,,,,,,,,,,,,,,,,,,,,,,,,,,,,,,,,,,,,,,,,,,31,001,0,23,310,310,2022_Oct_25_1430,Experiment,2021.1.4,360.32270499695255,
images\S9_F_H_01.png,images\S9_F_H_01_scrambled.png,9,happy,10,female,4,,529,off,1,0.5,0.75,0.5,0.82,3,528,3,2,2,0,0,0,0,4,,,,,,0,110,110,110,,,,,,,,,,,,,,,,,,,,,,,,,,,,,,,,,,,,,,,,,,,,,,,,,,,,,,,,,786.1693083999999,786.6720542000003,786.6720542000003,787.4245010000013,787.4245010000013,787.9298989000017,787.9298989000017,788.7519876000006,788.7519876000006,None,num_4,0.2615536000012071,788.7519876000006,None,happy,1,Happy,789.0240220800027,None,None,789.0240220800027,None,,,,,,,,,,,,,,,,,,,,,,,,,,,,,,,,,,,,,,,,,,,,,,,,,,,,,31,001,0,23,310,310,2022_Oct_25_1430,Experiment,2021.1.4,360.32270499695255,
images\S1_F_S_03.png,images\S1_F_S_03_scrambled.png,1,sad,-30,female,1,,306,on,2,0.5,0.75,0.5,0.785,3,305,1,1,1,2,2,32,128,161,,,,,,0,111,111,111,,,,,,,,,,,,,,,,,,,,,,,,,,,,,,,,,,,,,,,,,,,,,,,,,,,,,,,,,789.0711953999999,789.5710378000003,789.5710378000003,790.3235854000013,790.3235854000013,790.8234780000021,790.8234780000021,791.6148785000005,791.6148785000005,None,num_6,0.42252889999872423,791.6148785000005,None,sad,1,Sad,792.0619513600003,None,None,792.0619513600003,None,,,,,,,,,,,,,,,,,,,,,,,,,,,,,,,,,,,,,,,,,,,,,,,,,,,,,31,001,0,23,310,310,2022_Oct_25_1430,Experiment,2021.1.4,360.32270499695255,
images\S1_F_H_02.png,images\S1_F_H_02_scrambled.png,1,happy,20,female,5,,482,off,1,0.5,0.75,0.5,0.886,3,481,1,2,1,0,0,0,0,5,,,,,,0,112,112,112,,,,,,,,,,,,,,,,,,,,,,,,,,,,,,,,,,,,,,,,,,,,,,,,,,,,,,,,,792.1147057000017,792.6174073000002,792.6174073000002,793.3698939000024,793.3698939000024,793.8726201000027,793.8726201000027,794.7639331999999,794.7639331999999,None,num_4,0.37754900000072666,794.7639331999999,None,happy,1,Happy,795.1554409,None,None,795.1554409,None,,,,,,,,,,,,,,,,,,,,,,,,,,,,,,,,,,,,,,,,,,,,,,,,,,,,,31,001,0,23,310,310,2022_Oct_25_1430,Experiment,2021.1.4,360.32270499695255,
images\S8_M_H_03.png,images\S8_M_H_03_scrambled.png,8,happy,30,male,6,,585,on,2,0.5,0.75,0.5,0.869,3,584,1,1,1,2,2,32,128,166,,,,,,0,113,113,113,,,,,,,,,,,,,,,,,,,,,,,,,,,,,,,,,,,,,,,,,,,,,,,,,,,,,,,,,795.2054377000022,795.7052878000031,795.7052878000031,796.4578977000019,796.4578977000019,796.9632622999998,796.9632622999998,797.8380115,797.8380115,None,num_4,0.3918240999992122,797.8380115,None,happy,1,Happy,798.251801860003,None,None,798.251801860003,None,,,,,,,,,,,,,,,,,,,,,,,,,,,,,,,,,,,,,,,,,,,,,,,,,,,,,31,001,0,23,310,310,2022_Oct_25_1430,Experiment,2021.1.4,360.32270499695255,
images\S3_F_H_03.png,images\S3_F_H_03_scrambled.png,3,happy,30,female,6,,495,off,1,0.5,0.75,0.5,0.792,3,494,1,1,2,0,0,0,0,6,,,,,,0,114,114,114,,,,,,,,,,,,,,,,,,,,,,,,,,,,,,,,,,,,,,,,,,,,,,,,,,,,,,,,,798.304472900003,798.8072266000017,798.8072266000017,799.5568800000001,799.5568800000001,800.0623558000007,800.0623558000007,800.8592710000012,800.8592710000012,None,num_4,1.4182753000022785,800.8592710000012,None,happy,1,Happy,802.2921197800009,None,None,802.2921197800009,None,,,,,,,,,,,,,,,,,,,,,,,,,,,,,,,,,,,,,,,,,,,,,,,,,,,,,31,001,0,23,310,310,2022_Oct_25_1430,Experiment,2021.1.4,360.32270499695255,
images\S8_M_S_03.png,images\S8_M_S_03_scrambled.png,8,sad,-30,male,1,,528,off,1,0.5,0.75,0.5,0.804,3,527,2,1,1,0,0,0,0,1,,,,,,0,115,115,115,,,,,,,,,,,,,,,,,,,,,,,,,,,,,,,,,,,,,,,,,,,,,,,,,,,,,,,,,802.3393495000018,802.8447809000027,802.8447809000027,803.5973316000018,803.5973316000018,804.0971559000027,804.0971559000027,804.9052196000011,804.9052196000011,None,num_6,0.5643726999987848,804.9052196000011,None,sad,1,Sad,805.4856180800001,None,None,805.4856180800001,None,,,,,,,,,,,,,,,,,,,,,,,,,,,,,,,,,,,,,,,,,,,,,,,,,,,,,31,001,0,23,310,310,2022_Oct_25_1430,Experiment,2021.1.4,360.32270499695255,
images\S3_F_H_03.png,images\S3_F_H_03_scrambled.png,3,happy,30,female,6,,195,on,2,0.5,0.75,0.5,0.802,3,194,1,1,1,2,2,32,128,166,,,,,,0,116,116,116,,,,,,,,,,,,,,,,,,,,,,,,,,,,,,,,,,,,,,,,,,,,,,,,,,,,,,,,,805.535583300003,806.0410100000008,806.0410100000008,806.7936751000016,806.7936751000016,807.2962008000031,807.2962008000031,808.104283800003,808.104283800003,None,num_4,0.3091778999987582,808.104283800003,None,happy,1,Happy,808.4291596800016,None,None,808.4291596800016,None,,,,,,,,,,,,,,,,,,,,,,,,,,,,,,,,,,,,,,,,,,,,,,,,,,,,,31,001,0,23,310,310,2022_Oct_25_1430,Experiment,2021.1.4,360.32270499695255,
images\S2_M_H_02.png,images\S2_M_H_02_scrambled.png,2,happy,20,male,5,,248,off,1,0.5,0.75,0.5,0.779,3,247,1,1,1,0,0,0,0,5,,,,,,0,117,117,117,,,,,,,,,,,,,,,,,,,,,,,,,,,,,,,,,,,,,,,,,,,,,,,,,,,,,,,,,808.4763483000024,808.979031400002,808.979031400002,809.7287184000015,809.7287184000015,810.2341900000029,810.2341900000029,811.0172353000016,811.0172353000016,None,num_4,0.724300800000492,811.0172353000016,None,happy,1,Happy,811.7559190800006,None,None,811.7559190800006,None,,,,,,,,,,,,,,,,,,,,,,,,,,,,,,,,,,,,,,,,,,,,,,,,,,,,,31,001,0,23,310,310,2022_Oct_25_1430,Experiment,2021.1.4,360.32270499695255,
images\S10_M_S_01.png,images\S10_M_S_01_scrambled.png,10,sad,-10,male,3,,178,off,1,0.5,0.75,0.5,0.853,3,177,2,1,1,0,0,0,0,3,,,,,,0,118,118,118,,,,,,,,,,,,,,,,,,,,,,,,,,,,,,,,,,,,,,,,,,,,,,,,,,,,,,,,,811.8031160000028,812.3086466000022,812.3086466000022,813.0610575999999,813.0610575999999,813.5637736000026,813.5637736000026,814.4190481000005,814.4190481000005,None,num_4,0.45051230000171927,814.4190481000005,None,happy,1,Sad,814.8744211400001,None,None,814.8744211400001,None,,,,,,,,,,,,,,,,,,,,,,,,,,,,,,,,,,,,,,,,,,,,,,,,,,,,,31,001,0,23,310,310,2022_Oct_25_1430,Experiment,2021.1.4,360.32270499695255,
images\S8_M_H_01.png,images\S8_M_H_01_scrambled.png,8,happy,10,male,4,,463,on,2,0.5,0.75,0.5,0.805,3,462,1,1,1,2,2,32,128,164,,,,,,0,119,119,119,,,,,,,,,,,,,,,,,,,,,,,,,,,,,,,,,,,,,,,,,,,,,,,,,,,,,,,,,814.9215939000023,815.4242707000012,815.4242707000012,816.176762500003,816.176762500003,816.6766562000012,816.6766562000012,817.4847244000011,817.4847244000011,None,num_4,0.5768430999996781,817.4847244000011,None,happy,1,Happy,818.0845949600015,None,None,818.0845949600015,None,,,,,,,,,,,,,,,,,,,,,,,,,,,,,,,,,,,,,,,,,,,,,,,,,,,,,31,001,0,23,310,310,2022_Oct_25_1430,Experiment,2021.1.4,360.32270499695255,
images\S9_F_S_01.png,images\S9_F_S_01_scrambled.png,9,sad,-10,female,3,,232,on,2,0.5,0.75,0.5,0.849,3,231,2,1,1,2,2,32,128,163,,,,,,0,120,120,120,,,,,,,,,,,,,,,,,,,,,,,,,,,,,,,,,,,,,,,,,,,,,,,,,,,,,,,,,818.142808800003,818.6482707000032,818.6482707000032,819.4035481000028,819.4035481000028,819.9062098000031,819.9062098000031,820.7587318000005,820.7587318000005,None,num_6,2.678649299999961,820.7587318000005,None,sad,1,Sad,823.4495545800004,None,None,823.4495545800004,None,,,,,,,,,,,,,,,,,,,,,,,,,,,,,,,,,,,,,,,,,,,,,,,,,,,,,31,001,0,23,310,310,2022_Oct_25_1430,Experiment,2021.1.4,360.32270499695255,
images\S3_F_S_02.png,images\S3_F_S_02_scrambled.png,3,sad,-20,female,2,,77,on,2,0.5,0.75,0.5,0.781,3,76,3,1,1,2,2,32,128,162,,,,,,0,121,121,121,,,,,,,,,,,,,,,,,,,,,,,,,,,,,,,,,,,,,,,,,,,,,,,,,,,,,,,,,823.4995133000011,824.0049394000016,824.0049394000016,824.7575530000031,824.7575530000031,825.2629383000021,825.2629383000021,826.0487734000017,826.0487734000017,None,num_6,0.5168341000025976,826.0487734000017,None,sad,1,Sad,826.5791124800002,None,None,826.5791124800002,None,,,,,,,,,,,,,,,,,,,,,,,,,,,,,,,,,,,,,,,,,,,,,,,,,,,,,31,001,0,23,310,310,2022_Oct_25_1430,Experiment,2021.1.4,360.32270499695255,
images\S3_F_S_03.png,images\S3_F_S_03_scrambled.png,3,sad,-30,female,1,,498,off,1,0.5,0.75,0.5,0.798,3,497,1,2,1,0,0,0,0,1,,,,,,0,122,122,122,,,,,,,,,,,,,,,,,,,,,,,,,,,,,,,,,,,,,,,,,,,,,,,,,,,,,,,,,826.6291139000023,827.1289597000032,827.1289597000032,827.8787255999996,827.8787255999996,828.3813898000008,828.3813898000008,829.1839196000001,829.1839196000001,None,num_6,0.829681499999424,829.1839196000001,None,sad,1,Sad,830.0280516800034,None,None,830.0280516800034,None,,,,,,,,,,,,,,,,,,,,,,,,,,,,,,,,,,,,,,,,,,,,,,,,,,,,,31,001,0,23,310,310,2022_Oct_25_1430,Experiment,2021.1.4,360.32270499695255,
images\S8_M_S_02.png,images\S8_M_S_02_scrambled.png,8,sad,-20,male,2,,527,off,1,0.5,0.75,0.5,0.836,3,526,2,1,1,0,0,0,0,2,,,,,,0,123,123,123,,,,,,,,,,,,,,,,,,,,,,,,,,,,,,,,,,,,,,,,,,,,,,,,,,,,,,,,,830.078054900001,830.5806866000021,830.5806866000021,831.3359911000007,831.3359911000007,831.8386224000024,831.8386224000024,832.677390300003,832.677390300003,None,num_6,1.4881711999987601,832.677390300003,None,sad,1,Sad,834.1768195800017,None,None,834.1768195800017,None,,,,,,,,,,,,,,,,,,,,,,,,,,,,,,,,,,,,,,,,,,,,,,,,,,,,,31,001,0,23,310,310,2022_Oct_25_1430,Experiment,2021.1.4,360.32270499695255,
images\S6_M_H_01.png,images\S6_M_H_01_scrambled.png,6,happy,10,male,4,,151,off,1,0.5,0.75,0.5,0.775,3,150,3,1,1,0,0,0,0,4,,,,,,0,124,124,124,,,,,,,,,,,,,,,,,,,,,,,,,,,,,,,,,,,,,,,,,,,,,,,,,,,,,,,,,834.2267809000004,834.7294295000029,834.7294295000029,835.484747100003,835.484747100003,835.984567200001,835.984567200001,836.7622545000013,836.7622545000013,None,num_4,0.5554592000007688,836.7622545000013,None,happy,1,Happy,837.3313935800019,None,None,837.3313935800019,None,,,,,,,,,,,,,,,,,,,,,,,,,,,,,,,,,,,,,,,,,,,,,,,,,,,,,31,001,0,23,310,310,2022_Oct_25_1430,Experiment,2021.1.4,360.32270499695255,
images\blank.jpg,images\blank.jpg,none,none,none,none,0,,642,on,2,0.5,0.75,0.5,0.919,0,641,1,1,1,3,3,48,192,240,,,,,,0,125,125,125,,,,,,,,,,,,,,,,,,,,,,,,,,,,,,,,,,,,,,,,,,,,,,,,,,,,,,,,,837.4149036000017,837.9201041000015,837.9201041000015,838.6726627000025,838.6726627000025,839.1752542000031,839.1752542000031,840.0972271999999,840.0972271999999,840.0972271999999,None,,840.0972271999999,None,miss,1,,843.0963043200023,None,None,843.0963043200023,None,,,,,,,,,,,,,,,,,,,,,,,,,,,,,,,,,,,,,,,,,,,,,,,,,,,,,31,001,0,23,310,310,2022_Oct_25_1430,Experiment,2021.1.4,360.32270499695255,
images\S8_M_S_02.png,images\S8_M_S_02_scrambled.png,8,sad,-20,male,2,,467,on,2,0.5,0.75,0.5,0.86,3,466,2,1,1,2,2,32,128,162,,,,,,0,126,126,126,,,,,,,,,,,,,,,,,,,,,,,,,,,,,,,,,,,,,,,,,,,,,,,,,,,,,,,,,843.2103371000012,843.7156065000017,843.7156065000017,844.4653337000018,844.4653337000018,844.9708444000025,844.9708444000025,845.8371204000032,845.8371204000032,None,num_6,0.3206945000019914,845.8371204000032,843.2103371000012,sad,1,Sad,846.1731256799998,None,None,846.1731256799998,None,,,,,,,,,,,,,,,,,,,,,,,,,,,,,,,,,,,,,,,,,,,,,,,,,,,,,31,001,0,23,310,310,2022_Oct_25_1430,Experiment,2021.1.4,360.32270499695255,
images\S9_F_S_01.png,images\S9_F_S_01_scrambled.png,9,sad,-10,female,3,,412,off,1,0.5,0.75,0.5,0.876,3,411,1,1,1,0,0,0,0,3,,,,,,0,127,127,127,,,,,,,,,,,,,,,,,,,,,,,,,,,,,,,,,,,,,,,,,,,,,,,,,,,,,,,,,846.2203466999999,846.7229598000013,846.7229598000013,847.4782660000019,847.4782660000019,847.9809663000015,847.9809663000015,848.8611794999997,848.8611794999997,None,num_4,0.9608673000002455,848.8611794999997,None,happy,1,Sad,849.8358872600028,None,None,849.8358872600028,None,,,,,,,,,,,,,,,,,,,,,,,,,,,,,,,,,,,,,,,,,,,,,,,,,,,,,31,001,0,23,310,310,2022_Oct_25_1430,Experiment,2021.1.4,360.32270499695255,
images\S2_M_S_03.png,images\S2_M_S_03_scrambled.png,2,sad,-30,male,1,,552,on,2,0.5,0.75,0.5,0.782,3,551,1,1,1,2,2,32,128,161,,,,,,0,128,128,128,,,,,,,,,,,,,,,,,,,,,,,,,,,,,,,,,,,,,,,,,,,,,,,,,,,,,,,,,849.8969644000026,850.4023955000011,850.4023955000011,851.1549467000004,851.1549467000004,851.657558400002,851.657558400002,852.446224000003,852.446224000003,None,num_6,0.4154710000002524,852.446224000003,None,sad,1,Sad,852.8738409800011,None,None,852.8738409800011,None,,,,,,,,,,,,,,,,,,,,,,,,,,,,,,,,,,,,,,,,,,,,,,,,,,,,,31,001,0,23,310,310,2022_Oct_25_1430,Experiment,2021.1.4,360.32270499695255,
images\S4_M_H_01.png,images\S4_M_H_01_scrambled.png,4,happy,10,male,4,,379,off,1,0.5,0.75,0.5,0.844,3,378,1,1,1,0,0,0,0,4,,,,,,0,129,129,129,,,,,,,,,,,,,,,,,,,,,,,,,,,,,,,,,,,,,,,,,,,,,,,,,,,,,,,,,852.9238184000023,853.4264377,853.4264377,854.1789918000031,854.1789918000031,854.6788800000031,854.6788800000031,855.5258658000021,855.5258658000021,None,num_6,1.5116525999983423,855.5258658000021,None,sad,1,Happy,857.0475264600017,None,None,857.0475264600017,None,,,,,,,,,,,,,,,,,,,,,,,,,,,,,,,,,,,,,,,,,,,,,,,,,,,,,31,001,0,23,310,310,2022_Oct_25_1430,Experiment,2021.1.4,360.32270499695255,
images\blank.jpg,images\blank.jpg,none,none,none,none,0,,602,on,2,0.5,0.75,0.5,0.843,0,601,1,1,1,3,3,48,192,240,,,,,,0,130,130,130,,,,,,,,,,,,,,,,,,,,,,,,,,,,,,,,,,,,,,,,,,,,,,,,,,,,,,,,,857.1505565000007,857.6529551000021,857.6529551000021,858.4026886000029,858.4026886000029,858.9081201000008,858.9081201000008,859.7550934999999,859.7550934999999,859.7550934999999,None,,859.7550934999999,None,miss,1,,862.759732100003,None,space,862.759732100003,None,127.22126099999878,,,,,,,,,,,,,,,,,,,,,,,,,,,,,,,,,,,,,,,,,,,,,,,,,,,,31,001,0,23,310,310,2022_Oct_25_1430,Experiment,2021.1.4,360.32270499695255,
images\S1_F_S_02.png,images\S1_F_S_02_scrambled.png,1,sad,-20,female,2,,245,off,1,0.5,0.75,0.5,0.869,3,244,1,1,1,0,0,0,0,2,,,,,,0,131,131,131,,,,,,,,,,,,,,,,,,,,,,,,,,,,,,,,,,,,,,,,,,,,,,,,,,,,,,,,,990.0985583000001,990.6011123000026,990.6011123000026,991.3564530000003,991.3564530000003,991.8589412000001,991.8589412000001,992.7310295999996,992.7310295999996,None,num_4,0.25919340000109514,992.7310295999996,None,happy,1,Sad,993.0143157400028,None,None,993.0143157400028,None,,,,,,,,,,,,,,,,,,,,,,,,,,,,,,,,,,,,,,,,,,,,,,,,,,,,,31,001,0,23,310,310,2022_Oct_25_1430,Experiment,2021.1.4,360.32270499695255,
images\S7_F_S_02.png,images\S7_F_S_02_scrambled.png,7,sad,-20,female,2,,221,on,2,0.5,0.75,0.5,0.787,3,220,1,1,2,2,2,32,128,162,,,,,,0,132,132,132,,,,,,,,,,,,,,,,,,,,,,,,,,,,,,,,,,,,,,,,,,,,,,,,,,,,,,,,,993.0669105000015,993.5667525000026,993.5667525000026,994.3165458000003,994.3165458000003,994.8220021000016,994.8220021000016,995.6133478000011,995.6133478000011,None,num_4,0.28013129999817465,995.6133478000011,None,happy,1,Sad,995.9021495400004,None,None,995.9021495400004,None,,,,,,,,,,,,,,,,,,,,,,,,,,,,,,,,,,,,,,,,,,,,,,,,,,,,,31,001,0,23,310,310,2022_Oct_25_1430,Experiment,2021.1.4,360.32270499695255,
images\S5_F_H_01.png,images\S5_F_H_01_scrambled.png,5,happy,10,female,4,,25,off,1,0.5,0.75,0.5,0.755,3,24,1,1,1,0,0,0,0,4,,,,,,0,133,133,133,,,,,,,,,,,,,,,,,,,,,,,,,,,,,,,,,,,,,,,,,,,,,,,,,,,,,,,,,995.949357700003,996.4520607000013,996.4520607000013,997.2073290000008,997.2073290000008,997.7099326000025,997.7099326000025,998.4680611000003,998.4680611000003,None,num_4,0.26577980000001844,998.4680611000003,None,happy,1,Happy,998.7484927800018,None,None,998.7484927800018,None,,,,,,,,,,,,,,,,,,,,,,,,,,,,,,,,,,,,,,,,,,,,,,,,,,,,,31,001,0,23,310,310,2022_Oct_25_1430,Experiment,2021.1.4,360.32270499695255,
images\S10_M_H_01.png,images\S10_M_H_01_scrambled.png,10,happy,10,male,4,,415,off,1,0.5,0.75,0.5,0.819,3,414,2,1,2,0,0,0,0,4,,,,,,0,134,134,134,,,,,,,,,,,,,,,,,,,,,,,,,,,,,,,,,,,,,,,,,,,,,,,,,,,,,,,,,998.7957044000032,999.3011039000012,999.3011039000012,1000.0536708,1000.0536708,1000.5564075000002,1000.5564075000002,1001.3782724000012,1001.3782724000012,None,num_4,0.33960690000094473,1001.3782724000012,None,happy,1,Happy,1001.7393583200006,None,None,1001.7393583200006,None,,,,,,,,,,,,,,,,,,,,,,,,,,,,,,,,,,,,,,,,,,,,,,,,,,,,,31,001,0,23,310,310,2022_Oct_25_1430,Experiment,2021.1.4,360.32270499695255,
images\S9_F_S_02.png,images\S9_F_S_02_scrambled.png,9,sad,-20,female,2,,473,on,2,0.5,0.75,0.5,0.932,3,472,1,1,1,2,2,32,128,162,,,,,,0,135,135,135,,,,,,,,,,,,,,,,,,,,,,,,,,,,,,,,,,,,,,,,,,,,,,,,,,,,,,,,,1001.7920080000004,1002.2946346999997,1002.2946346999997,1003.0499599000032,1003.0499599000032,1003.5526188000003,1003.5526188000003,1004.4883943000023,1004.4883943000023,None,num_6,0.22972089999893797,1004.4883943000023,None,sad,1,Sad,1004.7384520200009,None,None,1004.7384520200009,None,,,,,,,,,,,,,,,,,,,,,,,,,,,,,,,,,,,,,,,,,,,,,,,,,,,,,31,001,0,23,310,310,2022_Oct_25_1430,Experiment,2021.1.4,360.32270499695255,
images\S6_M_H_02.png,images\S6_M_H_02_scrambled.png,6,happy,20,male,5,,152,off,1,0.5,0.75,0.5,0.832,3,151,1,1,1,0,0,0,0,5,,,,,,0,136,136,136,,,,,,,,,,,,,,,,,,,,,,,,,,,,,,,,,,,,,,,,,,,,,,,,,,,,,,,,,1004.7910870000014,1005.2967755000027,1005.2967755000027,1006.0490325000028,1006.0490325000028,1006.5517528000019,1006.5517528000019,1007.3875103999999,1007.3875103999999,None,num_4,0.25852339999983087,1007.3875103999999,None,happy,1,Happy,1007.6653076200033,None,None,1007.6653076200033,None,,,,,,,,,,,,,,,,,,,,,,,,,,,,,,,,,,,,,,,,,,,,,,,,,,,,,31,001,0,23,310,310,2022_Oct_25_1430,Experiment,2021.1.4,360.32270499695255,
images\S5_F_S_02.png,images\S5_F_S_02_scrambled.png,5,sad,-20,female,2,,29,off,1,0.5,0.75,0.5,0.904,3,28,2,1,1,0,0,0,0,2,,,,,,0,137,137,137,,,,,,,,,,,,,,,,,,,,,,,,,,,,,,,,,,,,,,,,,,,,,,,,,,,,,,,,,1007.717959900001,1008.2233938999998,1008.2233938999998,1008.978708300001,1008.978708300001,1009.4841168000021,1009.4841168000021,1010.392200600003,1010.392200600003,None,num_6,0.39790369999900577,1010.392200600003,None,sad,1,Sad,1010.8004530800011,None,None,1010.8004530800011,None,,,,,,,,,,,,,,,,,,,,,,,,,,,,,,,,,,,,,,,,,,,,,,,,,,,,,31,001,0,23,310,310,2022_Oct_25_1430,Experiment,2021.1.4,360.32270499695255,
images\S9_F_H_02.png,images\S9_F_H_02_scrambled.png,9,happy,20,female,5,,470,on,2,0.5,0.75,0.5,0.942,3,469,1,1,1,2,2,32,128,165,,,,,,0,138,138,138,,,,,,,,,,,,,,,,,,,,,,,,,,,,,,,,,,,,,,,,,,,,,,,,,,,,,,,,,1010.8503541000027,1011.352985700003,1011.352985700003,1012.108307100003,1012.108307100003,1012.6110396000004,1012.6110396000004,1013.5578803000026,1013.5578803000026,None,num_4,0.31973930000094697,1013.5578803000026,None,happy,1,Happy,1013.9022781600005,None,None,1013.9022781600005,None,,,,,,,,,,,,,,,,,,,,,,,,,,,,,,,,,,,,,,,,,,,,,,,,,,,,,31,001,0,23,310,310,2022_Oct_25_1430,Experiment,2021.1.4,360.32270499695255,
images\S4_M_H_02.png,images\S4_M_H_02_scrambled.png,4,happy,20,male,5,,80,on,2,0.5,0.75,0.5,0.756,3,79,2,1,2,2,2,32,128,165,,,,,,0,139,139,139,,,,,,,,,,,,,,,,,,,,,,,,,,,,,,,,,,,,,,,,,,,,,,,,,,,,,,,,,1013.9660459000006,1014.4686989000002,1014.4686989000002,1015.2212428000021,1015.2212428000021,1015.7267514000014,1015.7267514000014,1016.487533200001,1016.487533200001,None,num_6,0.2541013000009116,1016.487533200001,None,sad,1,Happy,1016.7568672600017,None,None,1016.7568672600017,None,,,,,,,,,,,,,,,,,,,,,,,,,,,,,,,,,,,,,,,,,,,,,,,,,,,,,31,001,0,23,310,310,2022_Oct_25_1430,Experiment,2021.1.4,360.32270499695255,
