image_face,image_scram,avatar,emo,emotion,sex,trigeeg,dac,trial_no,NMES,stimtime,baseline,iti,face,scr_face,resp_time,index,count_NMES,count_avatar,count_emotion,dac1,dac2,dac1_output,dac2_output,trigs_out,nmes,practice_trials.thisRepN,practice_trials.thisTrialN,practice_trials.thisN,practice_trials.thisIndex,real_trials.thisRepN,real_trials.thisTrialN,real_trials.thisN,real_trials.thisIndex,trials.thisRepN,trials.thisTrialN,trials.thisN,trials.thisIndex,position,Welcome.started,Welcome.stopped,Welcome_resp.keys,Welcome_resp.rt,text_2.started,text_2.stopped,form_2.index,form_2.itemText,form_2.type,form_2.response,form_2.rt,key_resp_4.keys,key_resp_4.rt,key_resp_4.started,key_resp_4.stopped,instructions.started,instructions.stopped,end_instr.keys,end_instr.rt,instructions_2.started,instructions_2.stopped,end_instr_2.keys,end_instr_2.rt,end_instr_2.started,end_instr_2.stopped,instruct_keypress.started,instruct_keypress.stopped,end_instruct_keypress.keys,end_instruct_keypress.rt,start_practice.started,start_practice.stopped,start_practice_resp.keys,start_practice_resp.rt,prac_baseline.started,prac_baseline.stopped,prac_iti.started,prac_iti.stopped,prac_stimulus.started,prac_stimulus.stopped,prac_scram_stim.started,prac_scram_stim.stopped,prac_stimulus_resp.started,prac_stimulus_resp.stopped,prac_resp.keys,prac_resp.rt,prac_resp.started,prac_resp.stopped,transition_to_real.started,transition_to_real.stopped,end_transition_to_real.keys,end_transition_to_real.rt,fixation_cross.started,fixation_cross.stopped,tr_iti.started,tr_iti.stopped,stimulus.started,stimulus.stopped,scram_stim.started,scram_stim.stopped,response_txt.started,response_txt.stopped,response.keys,response.rt,response.started,response.stopped,participant_Resp,grouping,corAnswer,break_msg.started,break_msg.stopped,end_break.keys,end_break.started,end_break.stopped,end_break.rt,text.started,text.stopped,key_resp_3.keys,key_resp_3.rt,key_resp_3.started,key_resp_3.stopped,fix_cross_comf.started,fix_cross_comf.stopped,stimulation_comf.started,stimulation_comf.stopped,rate_instr.started,rate_instr.stopped,comfort_rating.response,comfort_rating.rt,comfort_rating.started,comfort_rating.stopped,resp_form.keys,resp_form.rt,resp_form.started,resp_form.stopped,survey_instructions.started,survey_instructions.stopped,key_resp_2.keys,key_resp_2.rt,key_resp_2.started,key_resp_2.stopped,form.index,form.itemText,form.type,form.response,form.rt,key_resp.keys,key_resp.rt,key_resp.started,key_resp.stopped,text_3.started,text_3.stopped,rate_smile.response,rate_smile.rt,rate_smile.started,rate_smile.stopped,key_resp_5.keys,key_resp_5.rt,key_resp_5.started,key_resp_5.stopped,end_msg.started,end_msg.stopped,end_resp.keys,end_resp.rt,end_resp.started,end_resp.stopped,participant,session,gender,age,LEFT,RIGHT,date,expName,psychopyVersion,frameRate,
,,,,,,,,,,,,,,,,,,,,,,,,,,,,,,,,,,,,,,S-H,32.02281430000039,None,num_add,10.292138499999965,,,,,,,,,,,,,,,,,,,,,,,,,,,,,,,,,,,,,,,,,,,,,,,,,,,,,,,,,,,,,,,,,,,,,,,,,,,,,,,,,,,,,,,,,,,,,,,,,,,,,,,,,,,,,,,,,,,,,,,,,,32,001,0,34,475,400,2022_Oct_27_1019,Experiment,2021.1.4,359.9647234503977,
,,,,,,,,,,,,,,,,,,,,,,,,,,,,,,,,,,,,,,,,,,,42.330203900000015,44.38237460000073,1,"This scale consistes of a number of words that describe different feelings and emotion. Read each item and then list the number from the scale below each word. Indicate (by clicking) to what extend you feel this way RIGHT NOW, that is, AT THE PRESENT MOMENT.",description,,,,,,,,,,,,,,,,,,,,,,,,,,,,,,,,,,,,,,,,,,,,,,,,,,,,,,,,,,,,,,,,,,,,,,,,,,,,,,,,,,,,,,,,,,,,,,,,,,,,,,,,,,,,,,,,,,,,,32,001,0,34,475,400,2022_Oct_27_1019,Experiment,2021.1.4,359.9647234503977,
,,,,,,,,,,,,,,,,,,,,,,,,,,,,,,,,,,,,,,,,,,,,,2,Interested,rating,4.0,11.553127400000449,,,,,,,,,,,,,,,,,,,,,,,,,,,,,,,,,,,,,,,,,,,,,,,,,,,,,,,,,,,,,,,,,,,,,,,,,,,,,,,,,,,,,,,,,,,,,,,,,,,,,,,,,,,,,,,,,,,32,001,0,34,475,400,2022_Oct_27_1019,Experiment,2021.1.4,359.9647234503977,
,,,,,,,,,,,,,,,,,,,,,,,,,,,,,,,,,,,,,,,,,,,,,3,Distressed,rating,1.0,14.125175999999556,,,,,,,,,,,,,,,,,,,,,,,,,,,,,,,,,,,,,,,,,,,,,,,,,,,,,,,,,,,,,,,,,,,,,,,,,,,,,,,,,,,,,,,,,,,,,,,,,,,,,,,,,,,,,,,,,,,32,001,0,34,475,400,2022_Oct_27_1019,Experiment,2021.1.4,359.9647234503977,
,,,,,,,,,,,,,,,,,,,,,,,,,,,,,,,,,,,,,,,,,,,,,4,Excited,rating,4.0,16.459043799999563,,,,,,,,,,,,,,,,,,,,,,,,,,,,,,,,,,,,,,,,,,,,,,,,,,,,,,,,,,,,,,,,,,,,,,,,,,,,,,,,,,,,,,,,,,,,,,,,,,,,,,,,,,,,,,,,,,,32,001,0,34,475,400,2022_Oct_27_1019,Experiment,2021.1.4,359.9647234503977,
,,,,,,,,,,,,,,,,,,,,,,,,,,,,,,,,,,,,,,,,,,,,,5,Upset,rating,1.0,20.928656000000046,,,,,,,,,,,,,,,,,,,,,,,,,,,,,,,,,,,,,,,,,,,,,,,,,,,,,,,,,,,,,,,,,,,,,,,,,,,,,,,,,,,,,,,,,,,,,,,,,,,,,,,,,,,,,,,,,,,32,001,0,34,475,400,2022_Oct_27_1019,Experiment,2021.1.4,359.9647234503977,
,,,,,,,,,,,,,,,,,,,,,,,,,,,,,,,,,,,,,,,,,,,,,6,Strong,rating,4.0,23.817748700000266,,,,,,,,,,,,,,,,,,,,,,,,,,,,,,,,,,,,,,,,,,,,,,,,,,,,,,,,,,,,,,,,,,,,,,,,,,,,,,,,,,,,,,,,,,,,,,,,,,,,,,,,,,,,,,,,,,,32,001,0,34,475,400,2022_Oct_27_1019,Experiment,2021.1.4,359.9647234503977,
,,,,,,,,,,,,,,,,,,,,,,,,,,,,,,,,,,,,,,,,,,,,,7,Guilty,rating,1.0,7.75957389999985,,,,,,,,,,,,,,,,,,,,,,,,,,,,,,,,,,,,,,,,,,,,,,,,,,,,,,,,,,,,,,,,,,,,,,,,,,,,,,,,,,,,,,,,,,,,,,,,,,,,,,,,,,,,,,,,,,,32,001,0,34,475,400,2022_Oct_27_1019,Experiment,2021.1.4,359.9647234503977,
,,,,,,,,,,,,,,,,,,,,,,,,,,,,,,,,,,,,,,,,,,,,,8,Scared,rating,1.0,8.148180899999716,,,,,,,,,,,,,,,,,,,,,,,,,,,,,,,,,,,,,,,,,,,,,,,,,,,,,,,,,,,,,,,,,,,,,,,,,,,,,,,,,,,,,,,,,,,,,,,,,,,,,,,,,,,,,,,,,,,32,001,0,34,475,400,2022_Oct_27_1019,Experiment,2021.1.4,359.9647234503977,
,,,,,,,,,,,,,,,,,,,,,,,,,,,,,,,,,,,,,,,,,,,,,9,Hostile,rating,1.0,5.287298100000044,,,,,,,,,,,,,,,,,,,,,,,,,,,,,,,,,,,,,,,,,,,,,,,,,,,,,,,,,,,,,,,,,,,,,,,,,,,,,,,,,,,,,,,,,,,,,,,,,,,,,,,,,,,,,,,,,,,32,001,0,34,475,400,2022_Oct_27_1019,Experiment,2021.1.4,359.9647234503977,
,,,,,,,,,,,,,,,,,,,,,,,,,,,,,,,,,,,,,,,,,,,,,10,Enthusiastic,rating,4.0,4.241127100000085,,,,,,,,,,,,,,,,,,,,,,,,,,,,,,,,,,,,,,,,,,,,,,,,,,,,,,,,,,,,,,,,,,,,,,,,,,,,,,,,,,,,,,,,,,,,,,,,,,,,,,,,,,,,,,,,,,,32,001,0,34,475,400,2022_Oct_27_1019,Experiment,2021.1.4,359.9647234503977,
,,,,,,,,,,,,,,,,,,,,,,,,,,,,,,,,,,,,,,,,,,,,,11,Proud,rating,3.0,6.1763465000003634,,,,,,,,,,,,,,,,,,,,,,,,,,,,,,,,,,,,,,,,,,,,,,,,,,,,,,,,,,,,,,,,,,,,,,,,,,,,,,,,,,,,,,,,,,,,,,,,,,,,,,,,,,,,,,,,,,,32,001,0,34,475,400,2022_Oct_27_1019,Experiment,2021.1.4,359.9647234503977,
,,,,,,,,,,,,,,,,,,,,,,,,,,,,,,,,,,,,,,,,,,,,,12,Irritable,rating,1.0,6.487715799999933,,,,,,,,,,,,,,,,,,,,,,,,,,,,,,,,,,,,,,,,,,,,,,,,,,,,,,,,,,,,,,,,,,,,,,,,,,,,,,,,,,,,,,,,,,,,,,,,,,,,,,,,,,,,,,,,,,,32,001,0,34,475,400,2022_Oct_27_1019,Experiment,2021.1.4,359.9647234503977,
,,,,,,,,,,,,,,,,,,,,,,,,,,,,,,,,,,,,,,,,,,,,,13,Alert,rating,4.0,8.155787400000008,,,,,,,,,,,,,,,,,,,,,,,,,,,,,,,,,,,,,,,,,,,,,,,,,,,,,,,,,,,,,,,,,,,,,,,,,,,,,,,,,,,,,,,,,,,,,,,,,,,,,,,,,,,,,,,,,,,32,001,0,34,475,400,2022_Oct_27_1019,Experiment,2021.1.4,359.9647234503977,
,,,,,,,,,,,,,,,,,,,,,,,,,,,,,,,,,,,,,,,,,,,,,14,Ashamed,rating,1.0,7.2207174999994095,,,,,,,,,,,,,,,,,,,,,,,,,,,,,,,,,,,,,,,,,,,,,,,,,,,,,,,,,,,,,,,,,,,,,,,,,,,,,,,,,,,,,,,,,,,,,,,,,,,,,,,,,,,,,,,,,,,32,001,0,34,475,400,2022_Oct_27_1019,Experiment,2021.1.4,359.9647234503977,
,,,,,,,,,,,,,,,,,,,,,,,,,,,,,,,,,,,,,,,,,,,,,15,Inspired,rating,3.0,7.2415741000004346,,,,,,,,,,,,,,,,,,,,,,,,,,,,,,,,,,,,,,,,,,,,,,,,,,,,,,,,,,,,,,,,,,,,,,,,,,,,,,,,,,,,,,,,,,,,,,,,,,,,,,,,,,,,,,,,,,,32,001,0,34,475,400,2022_Oct_27_1019,Experiment,2021.1.4,359.9647234503977,
,,,,,,,,,,,,,,,,,,,,,,,,,,,,,,,,,,,,,,,,,,,,,16,Nervous,rating,1.0,6.901569300000119,,,,,,,,,,,,,,,,,,,,,,,,,,,,,,,,,,,,,,,,,,,,,,,,,,,,,,,,,,,,,,,,,,,,,,,,,,,,,,,,,,,,,,,,,,,,,,,,,,,,,,,,,,,,,,,,,,,32,001,0,34,475,400,2022_Oct_27_1019,Experiment,2021.1.4,359.9647234503977,
,,,,,,,,,,,,,,,,,,,,,,,,,,,,,,,,,,,,,,,,,,,,,17,Determined,rating,4.0,7.876650000000154,,,,,,,,,,,,,,,,,,,,,,,,,,,,,,,,,,,,,,,,,,,,,,,,,,,,,,,,,,,,,,,,,,,,,,,,,,,,,,,,,,,,,,,,,,,,,,,,,,,,,,,,,,,,,,,,,,,32,001,0,34,475,400,2022_Oct_27_1019,Experiment,2021.1.4,359.9647234503977,
,,,,,,,,,,,,,,,,,,,,,,,,,,,,,,,,,,,,,,,,,,,,,18,Attentive,rating,4.0,6.645235400000274,,,,,,,,,,,,,,,,,,,,,,,,,,,,,,,,,,,,,,,,,,,,,,,,,,,,,,,,,,,,,,,,,,,,,,,,,,,,,,,,,,,,,,,,,,,,,,,,,,,,,,,,,,,,,,,,,,,32,001,0,34,475,400,2022_Oct_27_1019,Experiment,2021.1.4,359.9647234503977,
,,,,,,,,,,,,,,,,,,,,,,,,,,,,,,,,,,,,,,,,,,,,,19,Jittery,rating,1.0,6.557740199999898,,,,,,,,,,,,,,,,,,,,,,,,,,,,,,,,,,,,,,,,,,,,,,,,,,,,,,,,,,,,,,,,,,,,,,,,,,,,,,,,,,,,,,,,,,,,,,,,,,,,,,,,,,,,,,,,,,,32,001,0,34,475,400,2022_Oct_27_1019,Experiment,2021.1.4,359.9647234503977,
,,,,,,,,,,,,,,,,,,,,,,,,,,,,,,,,,,,,,,,,,,,,,20,Active,rating,3.0,6.167963599999894,,,,,,,,,,,,,,,,,,,,,,,,,,,,,,,,,,,,,,,,,,,,,,,,,,,,,,,,,,,,,,,,,,,,,,,,,,,,,,,,,,,,,,,,,,,,,,,,,,,,,,,,,,,,,,,,,,,32,001,0,34,475,400,2022_Oct_27_1019,Experiment,2021.1.4,359.9647234503977,
,,,,,,,,,,,,,,,,,,,,,,,,,,,,,,,,,,,,,,,,,,,,,21,Afraid,rating,1.0,6.3261358999998265,,,,,,,,,,,,,,,,,,,,,,,,,,,,,,,,,,,,,,,,,,,,,,,,,,,,,,,,,,,,,,,,,,,,,,,,,,,,,,,,,,,,,,,,,,,,,,,,,,,,,,,,,,,,,,,,,,,32,001,0,34,475,400,2022_Oct_27_1019,Experiment,2021.1.4,359.9647234503977,
,,,,,,,,,,,,,,,,,,,,,,,,,,,,,,,,,,,,,,,,,,,,,22,Press the + button to submit your answers,description,,,,,,,,,,,,,,,,,,,,,,,,,,,,,,,,,,,,,,,,,,,,,,,,,,,,,,,,,,,,,,,,,,,,,,,,,,,,,,,,,,,,,,,,,,,,,,,,,,,,,,,,,,,,,,,,,,,,,32,001,0,34,475,400,2022_Oct_27_1019,Experiment,2021.1.4,359.9647234503977,
,,,,,,,,,,,,,,,,,,,,,,,,,,,,,,,,,,,,,,,,,,,,,,,,,,num_add,52.5807477999997,52.37435230000028,None,,,,,,,,,,,,,,,,,,,,,,,,,,,,,,,,,,,,,,,,,,,,,,,,,,,,,,,,,,,,,,,,,,,,,,,,,,,,,,,,,,,,,,,,,,,,,,,,,,,,,,,,,,,,,,,32,001,0,34,475,400,2022_Oct_27_1019,Experiment,2021.1.4,359.9647234503977,
,,,,,,,,,,,,,,,,,,,,,,,,,,,,,,,,,,,,,,,,,,,,,,,,,,,,,,104.98322860000007,None,num_add,12.69191310000042,,,,,,,,,,,,,,,,,,,,,,,,,,,,,,,,,,,,,,,,,,,,,,,,,,,,,,,,,,,,,,,,,,,,,,,,,,,,,,,,,,,,,,,,,,,,,,,,,,,,,,,,,,,32,001,0,34,475,400,2022_Oct_27_1019,Experiment,2021.1.4,359.9647234503977,
,,,,,,,,,,,,,,,,,,,,,,,,,,,,,,,,,,,,,,,,,,,,,,,,,,,,,,,,,,117.68200140000044,None,num_add,11.737038799999937,117.68200140000044,None,,,,,,,,,,,,,,,,,,,,,,,,,,,,,,,,,,,,,,,,,,,,,,,,,,,,,,,,,,,,,,,,,,,,,,,,,,,,,,,,,,,,,,,,,,,,,,,,,,,,,32,001,0,34,475,400,2022_Oct_27_1019,Experiment,2021.1.4,359.9647234503977,
,,,,,,,,,,,,,,,,,,,,,,,,,,,,,,,,,,,,,,,,,,,,,,,,,,,,,,,,,,,,,,,,129.4422994000006,None,num_add,7.352636800000255,,,,,,,,,,,,,,,,,,,,,,,,,,,,,,,,,,,,,,,,,,,,,,,,,,,,,,,,,,,,,,,,,,,,,,,,,,,,,,,,,,,,,,,,,,,,,,,,,32,001,0,34,475,400,2022_Oct_27_1019,Experiment,2021.1.4,359.9647234503977,
,,,,,,,,,,,,,,,,,,,,,,,,,,,,,,,,,,,,,,,,,,,,,,,,,,,,,,,,,,,,,,,,,,,,136.80388650000077,None,space,21.511032200000045,,,,,,,,,,,,,,,,,,,,,,,,,,,,,,,,,,,,,,,,,,,,,,,,,,,,,,,,,,,,,,,,,,,,,,,,,,,,,,,,,,,,,,,,,,,,,32,001,0,34,475,400,2022_Oct_27_1019,Experiment,2021.1.4,359.9647234503977,
images\S22_M_S_02.png,images\S22_M_S_02_scrambled.png,22,Sad,0.2,M,0,0,practice,off,1,0.5,0.75,0.5,0.751,3,,,,,,,,,,,0,0,0,3,,,,,,,,,,,,,,,,,,,,,,,,,,,,,,,,,,,,,,,,,,,158.49164660000042,158.99426160000075,158.99426160000075,159.74402940000073,159.74402940000073,160.24956420000035,160.24956420000035,161.00753280000026,161.00753280000026,None,num_4,0.8918069000001196,161.00753280000026,None,,,,,,,,,,,,,,,,,,,,,,,,,,,,,,,,,,,,,,,,,,,,,,,,,,,,,,,,,,,,,,,,,,,,,,,,,,,,,,,32,001,0,34,475,400,2022_Oct_27_1019,Experiment,2021.1.4,359.9647234503977,
images\S22_M_H_02.png,images\S22_M_H_02_scrambled.png,22,Happy,-0.2,M,0,0,practice,off,1,0.5,0.75,0.5,0.883,3,,,,,,,,,,,0,1,1,2,,,,,,,,,,,,,,,,,,,,,,,,,,,,,,,,,,,,,,,,,,,161.98778480000055,162.49331770000026,162.49331770000026,163.2457701000003,163.2457701000003,163.74556380000013,163.74556380000013,164.63427130000036,164.63427130000036,None,num_6,0.7448856000000887,164.63427130000036,None,,,,,,,,,,,,,,,,,,,,,,,,,,,,,,,,,,,,,,,,,,,,,,,,,,,,,,,,,,,,,,,,,,,,,,,,,,,,,,,32,001,0,34,475,400,2022_Oct_27_1019,Experiment,2021.1.4,359.9647234503977,
images\S22_M_S_01.png,images\S22_M_S_01_scrambled.png,22,Sad,0.1,M,0,0,practice,on,2,0.5,0.75,0.5,0.867,3,,,,,,,,,,,0,2,2,5,,,,,,,,,,,,,,,,,,,,,,,,,,,,,,,,,,,,,,,,,,,165.47007030000077,165.97548730000017,165.97548730000017,166.72803280000062,166.72803280000062,167.2306520000002,167.2306520000002,168.09983960000045,168.09983960000045,None,num_6,0.9839019999999437,168.09983960000045,None,,,,,,,,,,,,,,,,,,,,,,,,,,,,,,,,,,,,,,,,,,,,,,,,,,,,,,,,,,,,,,,,,,,,,,,,,,,,,,,32,001,0,34,475,400,2022_Oct_27_1019,Experiment,2021.1.4,359.9647234503977,
images\S21_F_H_02.png,images\S21_F_H_02_scrambled.png,21,Happy,-0.2,F,0,0,practice,off,1,0.5,0.75,0.5,0.91,3,,,,,,,,,,,0,3,3,1,,,,,,,,,,,,,,,,,,,,,,,,,,,,,,,,,,,,,,,,,,,169.1772348000004,169.67990590000045,169.67990590000045,170.42964120000033,170.42964120000033,170.93508270000075,170.93508270000075,171.84875720000036,171.84875720000036,None,num_6,0.38676329999998416,171.84875720000036,None,,,,,,,,,,,,,,,,,,,,,,,,,,,,,,,,,,,,,,,,,,,,,,,,,,,,,,,,,,,,,,,,,,,,,,,,,,,,,,,32,001,0,34,475,400,2022_Oct_27_1019,Experiment,2021.1.4,359.9647234503977,
images\S22_M_S_02.png,images\S22_M_S_02_scrambled.png,22,Sad,0.2,M,0,0,practice,on,2,0.5,0.75,0.5,0.783,3,,,,,,,,,,,0,4,4,6,,,,,,,,,,,,,,,,,,,,,,,,,,,,,,,,,,,,,,,,,,,172.28739100000075,172.79005140000027,172.79005140000027,173.5425998999999,173.5425998999999,174.04522300000008,174.04522300000008,174.83107500000006,174.83107500000006,None,num_6,0.4123409999992873,174.83107500000006,None,,,,,,,,,,,,,,,,,,,,,,,,,,,,,,,,,,,,,,,,,,,,,,,,,,,,,,,,,,,,,,,,,,,,,,,,,,,,,,,32,001,0,34,475,400,2022_Oct_27_1019,Experiment,2021.1.4,359.9647234503977,
images\S22_M_S_03.png,images\S22_M_S_03_scrambled.png,22,Sad,0.3,M,0,0,practice,on,2,0.5,0.75,0.5,0.87,3,,,,,,,,,,,0,5,5,4,,,,,,,,,,,,,,,,,,,,,,,,,,,,,,,,,,,,,,,,,,,175.33645490000072,175.83919550000064,175.83919550000064,176.58882489999996,176.58882489999996,177.09432800000013,177.09432800000013,177.96621589999995,177.96621589999995,None,num_4,0.6372103000003335,177.96621589999995,None,,,,,,,,,,,,,,,,,,,,,,,,,,,,,,,,,,,,,,,,,,,,,,,,,,,,,,,,,,,,,,,,,,,,,,,,,,,,,,,32,001,0,34,475,400,2022_Oct_27_1019,Experiment,2021.1.4,359.9647234503977,
images\S22_M_S_03.png,images\S22_M_S_03_scrambled.png,22,Sad,0.3,M,0,0,practice,on,2,0.5,0.75,0.5,0.794,3,,,,,,,,,,,0,6,6,7,,,,,,,,,,,,,,,,,,,,,,,,,,,,,,,,,,,,,,,,,,,178.66041730000052,179.16317140000046,179.16317140000046,179.9128395000007,179.9128395000007,180.41546090000065,180.41546090000065,181.21523669999988,181.21523669999988,None,num_4,0.5560099000003902,181.21523669999988,None,,,,,,,,,,,,,,,,,,,,,,,,,,,,,,,,,,,,,,,,,,,,,,,,,,,,,,,,,,,,,,,,,,,,,,,,,,,,,,,32,001,0,34,475,400,2022_Oct_27_1019,Experiment,2021.1.4,359.9647234503977,
images\S21_F_H_01.png,images\S21_F_H_01_scrambled.png,21,Happy,-0.1,F,0,0,practice,off,1,0.5,0.75,0.5,0.853,3,,,,,,,,,,,0,7,7,0,,,,,,,,,,,,,,,,,,,,,,,,,,,,,,,,,,,,,,,,,,,181.88721740000074,182.38983590000043,182.38983590000043,183.14238640000076,183.14238640000076,183.64504209999996,183.64504209999996,184.5003228000005,184.5003228000005,None,num_6,0.5030194000000847,184.5003228000005,None,,,,,,,,,,,,,,,,,,,,,,,,,,,,,,,,,,,,,,,,,,,,,,,,,,,,,,,,,,,,,,,,,,,,,,,,,,,,,,,32,001,0,34,475,400,2022_Oct_27_1019,Experiment,2021.1.4,359.9647234503977,
,,,,,,,,,,,,,,,,,,,,,,,,,,,,,,,,,,,,,,,,,,,,,,,,,,,,,,,,,,,,,,,,,,,,,,,,,,,,,,,,,,,,,,185.03067940000074,None,space,75.67616499999986,,,,,,,,,,,,,,,,,,,,,,,,,,,,,,,,,,,,,,,,,,,,,,,,,,,,,,,,,,,,,,,,,,,,,,,,,,,32,001,0,34,475,400,2022_Oct_27_1019,Experiment,2021.1.4,359.9647234503977,
images\S3_F_S_01.png,images\S3_F_S_01_scrambled.png,3,sad,-10,female,3,,496,off,1,0.5,0.75,0.5,0.844,3,495,1,1,1,0,0,0,0,3,,,,,,0,0,0,0,,,,,,,,,,,,,,,,,,,,,,,,,,,,,,,,,,,,,,,,,,,,,,,,,,,,,,,,,261.20997400000033,261.70982640000057,261.70982640000057,262.46236600000066,262.46236600000066,262.96504320000076,262.96504320000076,263.8147441000001,263.8147441000001,None,num_6,0.2365568000004714,263.8147441000001,None,happy,0,Sad,264.0646728500001,None,None,264.0646728500001,None,,,,,,,,,,,,,,,,,,,,,,,,,,,,,,,,,,,,,,,,,,,,,,,,,,,,,32,001,0,34,475,400,2022_Oct_27_1019,Experiment,2021.1.4,359.9647234503977,
images\S10_M_S_02.png,images\S10_M_S_02_scrambled.png,10,sad,-20,male,2,,59,off,1,0.5,0.75,0.5,0.81,3,58,2,1,1,0,0,0,0,2,,,,,,0,1,1,1,,,,,,,,,,,,,,,,,,,,,,,,,,,,,,,,,,,,,,,,,,,,,,,,,,,,,,,,,264.15350920000037,264.6590341000001,264.6590341000001,265.41435869999987,265.41435869999987,265.91684690000056,265.91684690000056,266.7305229000003,266.7305229000003,None,num_6,0.4648466999997254,266.7305229000003,None,happy,0,Sad,267.1998088999999,None,None,267.1998088999999,None,,,,,,,,,,,,,,,,,,,,,,,,,,,,,,,,,,,,,,,,,,,,,,,,,,,,,32,001,0,34,475,400,2022_Oct_27_1019,Experiment,2021.1.4,359.9647234503977,
images\S7_F_H_03.png,images\S7_F_H_03_scrambled.png,7,happy,30,female,6,,519,off,1,0.5,0.75,0.5,0.856,3,518,3,1,1,0,0,0,0,6,,,,,,0,2,2,2,,,,,,,,,,,,,,,,,,,,,,,,,,,,,,,,,,,,,,,,,,,,,,,,,,,,,,,,,267.28865380000025,267.7884933000005,267.7884933000005,268.54394090000005,268.54394090000005,269.04935730000034,269.04935730000034,269.9101079000002,269.9101079000002,None,num_6,0.0450340999996115,269.9101079000002,None,happy,0,Happy,269.9794367000004,None,None,269.9794367000004,None,,,,,,,,,,,,,,,,,,,,,,,,,,,,,,,,,,,,,,,,,,,,,,,,,,,,,32,001,0,34,475,400,2022_Oct_27_1019,Experiment,2021.1.4,359.9647234503977,
images\S10_M_H_02.png,images\S10_M_H_02_scrambled.png,10,happy,20,male,5,,596,on,2,0.5,0.75,0.5,0.94,3,595,1,1,1,2,2,32,128,165,,,,,,0,3,3,3,,,,,,,,,,,,,,,,,,,,,,,,,,,,,,,,,,,,,,,,,,,,,,,,,,,,,,,,,270.0905573,270.5904177000002,270.5904177000002,271.34573530000034,271.34573530000034,271.8483989000006,271.8483989000006,272.79532500000005,272.79532500000005,None,num_6,0.3202178000001368,272.79532500000005,None,happy,0,Happy,273.1452457000005,None,None,273.1452457000005,None,,,,,,,,,,,,,,,,,,,,,,,,,,,,,,,,,,,,,,,,,,,,,,,,,,,,,32,001,0,34,475,400,2022_Oct_27_1019,Experiment,2021.1.4,359.9647234503977,
images\S6_M_H_02.png,images\S6_M_H_02_scrambled.png,6,happy,20,male,5,,452,on,2,0.5,0.75,0.5,0.923,3,451,2,1,2,2,2,32,128,165,,,,,,0,4,4,4,,,,,,,,,,,,,,,,,,,,,,,,,,,,,,,,,,,,,,,,,,,,,,,,,,,,,,,,,273.25625370000034,273.7590082000006,273.7590082000006,274.5086729000004,274.5086729000004,275.0112889000002,275.0112889000002,275.94156509999993,275.94156509999993,None,num_6,0.7258405000002313,275.94156509999993,None,happy,0,Happy,276.68295055000044,None,None,276.68295055000044,None,,,,,,,,,,,,,,,,,,,,,,,,,,,,,,,,,,,,,,,,,,,,,,,,,,,,,32,001,0,34,475,400,2022_Oct_27_1019,Experiment,2021.1.4,359.9647234503977,
images\S4_M_S_01.png,images\S4_M_S_01_scrambled.png,4,sad,-10,male,3,,322,on,2,0.5,0.75,0.5,0.862,3,321,3,1,1,2,2,32,128,163,,,,,,0,5,5,5,,,,,,,,,,,,,,,,,,,,,,,,,,,,,,,,,,,,,,,,,,,,,,,,,,,,,,,,,276.76631799999996,277.27170040000055,277.27170040000055,278.02438340000026,278.02438340000026,278.52971700000035,278.52971700000035,279.3960567000004,279.3960567000004,None,num_4,0.3832217999997738,279.3960567000004,None,sad,0,Sad,279.7903446999999,None,None,279.7903446999999,None,,,,,,,,,,,,,,,,,,,,,,,,,,,,,,,,,,,,,,,,,,,,,,,,,,,,,32,001,0,34,475,400,2022_Oct_27_1019,Experiment,2021.1.4,359.9647234503977,
images\S3_F_H_01.png,images\S3_F_H_01_scrambled.png,3,happy,10,female,4,,73,on,2,0.5,0.75,0.5,0.768,3,72,4,1,1,2,2,32,128,164,,,,,,0,6,6,6,,,,,,,,,,,,,,,,,,,,,,,,,,,,,,,,,,,,,,,,,,,,,,,,,,,,,,,,,279.8764492,280.37919110000075,280.37919110000075,281.1316262,281.1316262,281.63146700000016,281.63146700000016,282.4062303999999,282.4062303999999,None,num_4,0.5411484000005657,282.4062303999999,None,sad,0,Happy,282.9560153000002,None,None,282.9560153000002,None,,,,,,,,,,,,,,,,,,,,,,,,,,,,,,,,,,,,,,,,,,,,,,,,,,,,,32,001,0,34,475,400,2022_Oct_27_1019,Experiment,2021.1.4,359.9647234503977,
images\S4_M_H_02.png,images\S4_M_H_02_scrambled.png,4,happy,20,male,5,,380,off,1,0.5,0.75,0.5,0.862,3,379,1,1,1,0,0,0,0,5,,,,,,0,7,7,7,,,,,,,,,,,,,,,,,,,,,,,,,,,,,,,,,,,,,,,,,,,,,,,,,,,,,,,,,283.0421403,283.54479450000053,283.54479450000053,284.3001155000002,284.3001155000002,284.80551130000003,284.80551130000003,285.6718685000005,285.6718685000005,None,num_4,0.5073732999999265,285.6718685000005,None,sad,0,Happy,286.18561150000005,None,None,286.18561150000005,None,,,,,,,,,,,,,,,,,,,,,,,,,,,,,,,,,,,,,,,,,,,,,,,,,,,,,32,001,0,34,475,400,2022_Oct_27_1019,Experiment,2021.1.4,359.9647234503977,
images\S3_F_H_01.png,images\S3_F_H_01_scrambled.png,3,happy,10,female,4,,373,off,1,0.5,0.75,0.5,0.759,3,372,2,1,1,0,0,0,0,4,,,,,,0,8,8,8,,,,,,,,,,,,,,,,,,,,,,,,,,,,,,,,,,,,,,,,,,,,,,,,,,,,,,,,,286.23558820000017,286.74098460000005,286.74098460000005,287.4963312,287.4963312,287.99905730000046,287.99905730000046,288.75985370000035,288.75985370000035,None,num_4,0.6435234000000492,288.75985370000035,None,sad,0,Happy,289.4123755999999,None,None,289.4123755999999,None,,,,,,,,,,,,,,,,,,,,,,,,,,,,,,,,,,,,,,,,,,,,,,,,,,,,,32,001,0,34,475,400,2022_Oct_27_1019,Experiment,2021.1.4,359.9647234503977,
images\blank.jpg,images\blank.jpg,none,none,none,none,0,,620,on,2,0.5,0.75,0.5,0.873,0,619,1,1,1,3,3,48,192,240,,,,,,0,9,9,9,,,,,,,,,,,,,,,,,,,,,,,,,,,,,,,,,,,,,,,,,,,,,,,,,,,,,,,,,289.54895790000046,290.0482998000007,290.0482998000007,290.7980735000001,290.7980735000001,291.3006886000003,291.3006886000003,292.1726847,292.1726847,292.1726847,None,,292.1726847,None,miss,0,,295.1745119500006,None,None,295.1745119500006,None,,,,,,,,,,,,,,,,,,,,,,,,,,,,,,,,,,,,,,,,,,,,,,,,,,,,,32,001,0,34,475,400,2022_Oct_27_1019,Experiment,2021.1.4,359.9647234503977,
images\S3_F_H_02.png,images\S3_F_H_02_scrambled.png,3,happy,20,female,5,,134,off,1,0.5,0.75,0.5,0.947,3,133,1,1,1,0,0,0,0,5,,,,,,0,10,10,10,,,,,,,,,,,,,,,,,,,,,,,,,,,,,,,,,,,,,,,,,,,,,,,,,,,,,,,,,295.32183030000033,295.82441910000034,295.82441910000034,296.57408510000005,296.57408510000005,297.07954920000066,297.07954920000066,298.02930689999994,298.02930689999994,None,num_6,0.5501451000000088,298.02930689999994,295.32183030000033,happy,0,Happy,298.5928672,None,None,298.5928672,None,,,,,,,,,,,,,,,,,,,,,,,,,,,,,,,,,,,,,,,,,,,,,,,,,,,,,32,001,0,34,475,400,2022_Oct_27_1019,Experiment,2021.1.4,359.9647234503977,
images\S4_M_H_03.png,images\S4_M_H_03_scrambled.png,4,happy,30,male,6,,501,off,1,0.5,0.75,0.5,0.948,3,500,2,1,1,0,0,0,0,6,,,,,,0,11,11,11,,,,,,,,,,,,,,,,,,,,,,,,,,,,,,,,,,,,,,,,,,,,,,,,,,,,,,,,,298.6761972000004,299.1789389000005,299.1789389000005,299.92857580000054,299.92857580000054,300.4312367000002,300.4312367000002,301.3838345000004,301.3838345000004,None,num_6,1.1235303000003114,301.3838345000004,None,happy,0,Happy,302.52223140000024,None,None,302.52223140000024,None,,,,,,,,,,,,,,,,,,,,,,,,,,,,,,,,,,,,,,,,,,,,,,,,,,,,,32,001,0,34,475,400,2022_Oct_27_1019,Experiment,2021.1.4,359.9647234503977,
images\S4_M_S_01.png,images\S4_M_S_01_scrambled.png,4,sad,-10,male,3,,22,off,1,0.5,0.75,0.5,0.79,3,21,3,2,1,0,0,0,0,3,,,,,,0,12,12,12,,,,,,,,,,,,,,,,,,,,,,,,,,,,,,,,,,,,,,,,,,,,,,,,,,,,,,,,,302.56944569999996,303.07487990000027,303.07487990000027,303.83020920000035,303.83020920000035,304.33279070000026,304.33279070000026,305.1298112000004,305.1298112000004,None,num_4,0.4016554999998334,305.1298112000004,None,sad,0,Sad,305.56018980000044,None,None,305.56018980000044,None,,,,,,,,,,,,,,,,,,,,,,,,,,,,,,,,,,,,,,,,,,,,,,,,,,,,,32,001,0,34,475,400,2022_Oct_27_1019,Experiment,2021.1.4,359.9647234503977,
images\S9_F_H_01.png,images\S9_F_H_01_scrambled.png,9,happy,10,female,4,,589,on,2,0.5,0.75,0.5,0.833,3,588,1,1,1,2,2,32,128,164,,,,,,0,13,13,13,,,,,,,,,,,,,,,,,,,,,,,,,,,,,,,,,,,,,,,,,,,,,,,,,,,,,,,,,305.66571010000007,306.1655516000001,306.1655516000001,306.91813249999996,306.91813249999996,307.41796030000023,307.41796030000023,308.25659150000047,308.25659150000047,None,num_6,0.4826419999999416,308.25659150000047,None,happy,0,Happy,308.75085730000046,None,None,308.75085730000046,None,,,,,,,,,,,,,,,,,,,,,,,,,,,,,,,,,,,,,,,,,,,,,,,,,,,,,32,001,0,34,475,400,2022_Oct_27_1019,Experiment,2021.1.4,359.9647234503977,
images\S6_M_S_03.png,images\S6_M_S_03_scrambled.png,6,sad,-30,male,1,,276,off,1,0.5,0.75,0.5,0.826,3,275,1,1,1,0,0,0,0,1,,,,,,0,14,14,14,,,,,,,,,,,,,,,,,,,,,,,,,,,,,,,,,,,,,,,,,,,,,,,,,,,,,,,,,308.83695380000063,309.33678710000004,309.33678710000004,310.08656190000056,310.08656190000056,310.58930970000074,310.58930970000074,311.4195706999999,311.4195706999999,None,num_4,0.4716364000005342,311.4195706999999,None,sad,0,Sad,311.90544275,None,None,311.90544275,None,,,,,,,,,,,,,,,,,,,,,,,,,,,,,,,,,,,,,,,,,,,,,,,,,,,,,32,001,0,34,475,400,2022_Oct_27_1019,Experiment,2021.1.4,359.9647234503977,
images\S5_F_H_02.png,images\S5_F_H_02_scrambled.png,5,happy,20,female,5,,266,off,1,0.5,0.75,0.5,0.828,3,265,2,1,1,0,0,0,0,5,,,,,,0,15,15,15,,,,,,,,,,,,,,,,,,,,,,,,,,,,,,,,,,,,,,,,,,,,,,,,,,,,,,,,,311.9887598000005,312.49139939999986,312.49139939999986,313.24405130000014,313.24405130000014,313.7437998000005,313.7437998000005,314.57419389999995,314.57419389999995,None,num_6,0.5892272999999477,314.57419389999995,None,happy,0,Happy,315.1766453,None,None,315.1766453,None,,,,,,,,,,,,,,,,,,,,,,,,,,,,,,,,,,,,,,,,,,,,,,,,,,,,,32,001,0,34,475,400,2022_Oct_27_1019,Experiment,2021.1.4,359.9647234503977,
images\S5_F_H_01.png,images\S5_F_H_01_scrambled.png,5,happy,10,female,4,,505,off,1,0.5,0.75,0.5,0.815,3,504,3,2,1,0,0,0,0,4,,,,,,0,16,16,16,,,,,,,,,,,,,,,,,,,,,,,,,,,,,,,,,,,,,,,,,,,,,,,,,,,,,,,,,315.26275429999987,315.7625900000003,315.7625900000003,316.51519559999997,316.51519559999997,317.0205612,317.0205612,317.83696320000035,317.83696320000035,None,num_6,0.4944411000005857,317.83696320000035,None,happy,0,Happy,318.36177490000046,None,None,318.36177490000046,None,,,,,,,,,,,,,,,,,,,,,,,,,,,,,,,,,,,,,,,,,,,,,,,,,,,,,32,001,0,34,475,400,2022_Oct_27_1019,Experiment,2021.1.4,359.9647234503977,
images\S9_F_S_02.png,images\S9_F_S_02_scrambled.png,9,sad,-20,female,2,,593,on,2,0.5,0.75,0.5,0.773,3,592,1,1,1,2,2,32,128,162,,,,,,0,17,17,17,,,,,,,,,,,,,,,,,,,,,,,,,,,,,,,,,,,,,,,,,,,,,,,,,,,,,,,,,318.44787500000075,318.94773630000054,318.94773630000054,319.69748849999996,319.69748849999996,320.2001581000004,320.2001581000004,320.97492220000004,320.97492220000004,None,num_4,0.4687368000004426,320.97492220000004,None,sad,0,Sad,321.4553977000005,None,None,321.4553977000005,None,,,,,,,,,,,,,,,,,,,,,,,,,,,,,,,,,,,,,,,,,,,,,,,,,,,,,32,001,0,34,475,400,2022_Oct_27_1019,Experiment,2021.1.4,359.9647234503977,
images\S7_F_H_03.png,images\S7_F_H_03_scrambled.png,7,happy,30,female,6,,579,on,2,0.5,0.75,0.5,0.814,3,578,2,1,1,2,2,32,128,166,,,,,,0,18,18,18,,,,,,,,,,,,,,,,,,,,,,,,,,,,,,,,,,,,,,,,,,,,,,,,,,,,,,,,,321.5246450000004,322.0301436,322.0301436,322.7854696000004,322.7854696000004,323.29085490000034,323.29085490000034,324.11005190000014,324.11005190000014,None,num_6,0.3012158999999883,324.11005190000014,None,happy,0,Happy,324.42659040000035,None,None,324.42659040000035,None,,,,,,,,,,,,,,,,,,,,,,,,,,,,,,,,,,,,,,,,,,,,,,,,,,,,,32,001,0,34,475,400,2022_Oct_27_1019,Experiment,2021.1.4,359.9647234503977,
images\S2_M_H_01.png,images\S2_M_H_01_scrambled.png,2,happy,10,male,4,,307,on,2,0.5,0.75,0.5,0.856,3,306,3,1,1,2,2,32,128,164,,,,,,0,19,19,19,,,,,,,,,,,,,,,,,,,,,,,,,,,,,,,,,,,,,,,,,,,,,,,,,,,,,,,,,324.5071174000004,325.0097888999999,325.0097888999999,325.7623263000005,325.7623263000005,326.2649373000004,326.2649373000004,327.1257845,327.1257845,None,num_4,0.7975820000001477,327.1257845,None,sad,0,Happy,327.9338346000004,None,None,327.9338346000004,None,,,,,,,,,,,,,,,,,,,,,,,,,,,,,,,,,,,,,,,,,,,,,,,,,,,,,32,001,0,34,475,400,2022_Oct_27_1019,Experiment,2021.1.4,359.9647234503977,
images\S8_M_S_01.png,images\S8_M_S_01_scrambled.png,8,sad,-10,male,3,,406,off,1,0.5,0.75,0.5,0.848,3,405,1,1,1,0,0,0,0,3,,,,,,0,20,20,20,,,,,,,,,,,,,,,,,,,,,,,,,,,,,,,,,,,,,,,,,,,,,,,,,,,,,,,,,328.0199255000007,328.52255610000066,328.52255610000066,329.27514130000054,329.27514130000054,329.7777713000005,329.7777713000005,330.63027710000006,330.63027710000006,None,num_4,0.8289291999999477,330.63027710000006,None,sad,0,Sad,331.46888670000044,None,None,331.46888670000044,None,,,,,,,,,,,,,,,,,,,,,,,,,,,,,,,,,,,,,,,,,,,,,,,,,,,,,32,001,0,34,475,400,2022_Oct_27_1019,Experiment,2021.1.4,359.9647234503977,
images\S4_M_H_01.png,images\S4_M_H_01_scrambled.png,4,happy,10,male,4,,499,off,1,0.5,0.75,0.5,0.8,3,498,2,1,1,0,0,0,0,4,,,,,,0,21,21,21,,,,,,,,,,,,,,,,,,,,,,,,,,,,,,,,,,,,,,,,,,,,,,,,,,,,,,,,,331.5521991000005,332.0547980000001,332.0547980000001,332.8101578000005,332.8101578000005,333.31555560000015,333.31555560000015,334.1208494000002,334.1208494000002,None,num_4,0.5063688000000184,334.1208494000002,None,sad,0,Happy,334.6317962000003,None,None,334.6317962000003,None,,,,,,,,,,,,,,,,,,,,,,,,,,,,,,,,,,,,,,,,,,,,,,,,,,,,,32,001,0,34,475,400,2022_Oct_27_1019,Experiment,2021.1.4,359.9647234503977,
images\S1_F_H_01.png,images\S1_F_H_01_scrambled.png,1,happy,10,female,4,,421,on,2,0.5,0.75,0.5,0.85,3,420,1,1,2,2,2,32,128,164,,,,,,0,22,22,22,,,,,,,,,,,,,,,,,,,,,,,,,,,,,,,,,,,,,,,,,,,,,,,,,,,,,,,,,334.71786020000036,335.22052150000036,335.22052150000036,335.9758350000002,335.9758350000002,336.4784567000006,336.4784567000006,337.3309699000001,337.3309699000001,None,num_6,0.48833099999956175,337.3309699000001,None,happy,0,Happy,337.83354510000026,None,None,337.83354510000026,None,,,,,,,,,,,,,,,,,,,,,,,,,,,,,,,,,,,,,,,,,,,,,,,,,,,,,32,001,0,34,475,400,2022_Oct_27_1019,Experiment,2021.1.4,359.9647234503977,
images\S6_M_S_03.png,images\S6_M_S_03_scrambled.png,6,sad,-30,male,1,,336,on,2,0.5,0.75,0.5,0.866,3,335,2,1,1,2,2,32,128,161,,,,,,0,23,23,23,,,,,,,,,,,,,,,,,,,,,,,,,,,,,,,,,,,,,,,,,,,,,,,,,,,,,,,,,337.8807845000001,338.38619259999996,338.38619259999996,339.13884980000057,339.13884980000057,339.64426040000035,339.64426040000035,340.5105153000004,340.5105153000004,None,num_4,0.47689879999961704,340.5105153000004,None,sad,0,Sad,341.0020061000005,None,None,341.0020061000005,None,,,,,,,,,,,,,,,,,,,,,,,,,,,,,,,,,,,,,,,,,,,,,,,,,,,,,32,001,0,34,475,400,2022_Oct_27_1019,Experiment,2021.1.4,359.9647234503977,
images\S8_M_H_03.png,images\S8_M_H_03_scrambled.png,8,happy,30,male,6,,45,off,1,0.5,0.75,0.5,0.842,3,44,1,1,1,0,0,0,0,6,,,,,,0,24,24,24,,,,,,,,,,,,,,,,,,,,,,,,,,,,,,,,,,,,,,,,,,,,,,,,,,,,,,,,,341.08535089999987,341.5879685,341.5879685,342.34054689999994,342.34054689999994,342.8459364999999,342.8459364999999,343.6901009000003,343.6901009000003,None,num_6,0.7290709999997489,343.6901009000003,None,happy,0,Happy,344.43986290000066,None,None,344.43986290000066,None,,,,,,,,,,,,,,,,,,,,,,,,,,,,,,,,,,,,,,,,,,,,,,,,,,,,,32,001,0,34,475,400,2022_Oct_27_1019,Experiment,2021.1.4,359.9647234503977,
images\blank.jpg,images\blank.jpg,none,none,none,none,0,,605,on,2,0.5,0.75,0.5,0.94,0,604,1,1,1,3,3,48,192,240,,,,,,0,25,25,25,,,,,,,,,,,,,,,,,,,,,,,,,,,,,,,,,,,,,,,,,,,,,,,,,,,,,,,,,344.52641420000054,345.0285698000007,345.0285698000007,345.7811478000003,345.7811478000003,346.28653720000057,346.28653720000057,347.22792930000014,347.22792930000014,347.22792930000014,None,,347.22792930000014,None,miss,0,,350.22699045000036,None,None,350.22699045000036,None,,,,,,,,,,,,,,,,,,,,,,,,,,,,,,,,,,,,,,,,,,,,,,,,,,,,,32,001,0,34,475,400,2022_Oct_27_1019,Experiment,2021.1.4,359.9647234503977,
images\S6_M_S_02.png,images\S6_M_S_02_scrambled.png,6,sad,-20,male,2,,335,on,2,0.5,0.75,0.5,0.918,3,334,2,1,1,2,2,32,128,162,,,,,,0,26,26,26,,,,,,,,,,,,,,,,,,,,,,,,,,,,,,,,,,,,,,,,,,,,,,,,,,,,,,,,,350.37438569999995,350.87964850000026,350.87964850000026,351.62930870000037,351.62930870000037,352.12918010000067,352.12918010000067,353.0511148000005,353.0511148000005,None,num_4,0.6080966999998054,353.0511148000005,350.37438569999995,sad,0,Sad,353.67037100000016,None,None,353.67037100000016,None,,,,,,,,,,,,,,,,,,,,,,,,,,,,,,,,,,,,,,,,,,,,,,,,,,,,,32,001,0,34,475,400,2022_Oct_27_1019,Experiment,2021.1.4,359.9647234503977,
images\S1_F_S_03.png,images\S1_F_S_03_scrambled.png,1,sad,-30,female,1,,366,off,1,0.5,0.75,0.5,0.802,3,365,1,1,1,0,0,0,0,1,,,,,,0,27,27,27,,,,,,,,,,,,,,,,,,,,,,,,,,,,,,,,,,,,,,,,,,,,,,,,,,,,,,,,,353.75920850000057,354.2618560000001,354.2618560000001,355.01717009999993,355.01717009999993,355.51982399999997,355.51982399999997,356.32513050000034,356.32513050000034,None,num_6,1.3181420999999318,356.32513050000034,None,happy,0,Sad,357.65242750000016,None,None,357.65242750000016,None,,,,,,,,,,,,,,,,,,,,,,,,,,,,,,,,,,,,,,,,,,,,,,,,,,,,,32,001,0,34,475,400,2022_Oct_27_1019,Experiment,2021.1.4,359.9647234503977,
images\S10_M_S_02.png,images\S10_M_S_02_scrambled.png,10,sad,-20,male,2,,539,off,1,0.5,0.75,0.5,0.776,3,538,2,1,1,0,0,0,0,2,,,,,,0,28,28,28,,,,,,,,,,,,,,,,,,,,,,,,,,,,,,,,,,,,,,,,,,,,,,,,,,,,,,,,,357.6996681999999,358.2051041000004,358.2051041000004,358.9576067000007,358.9576067000007,359.4602697999999,359.4602697999999,360.2405750000007,360.2405750000007,None,num_6,0.49062249999951746,360.2405750000007,None,happy,0,Sad,360.7403939000005,None,None,360.7403939000005,None,,,,,,,,,,,,,,,,,,,,,,,,,,,,,,,,,,,,,,,,,,,,,,,,,,,,,32,001,0,34,475,400,2022_Oct_27_1019,Experiment,2021.1.4,359.9647234503977,
images\S7_F_H_01.png,images\S7_F_H_01_scrambled.png,7,happy,10,female,4,,457,on,2,0.5,0.75,0.5,0.846,3,456,1,1,1,2,2,32,128,164,,,,,,0,29,29,29,,,,,,,,,,,,,,,,,,,,,,,,,,,,,,,,,,,,,,,,,,,,,,,,,,,,,,,,,360.82371800000055,361.3292270000002,361.3292270000002,362.08450340000036,362.08450340000036,362.58986240000013,362.58986240000013,363.43963450000047,363.43963450000047,None,num_6,0.7074638000003688,363.43963450000047,None,happy,0,Happy,364.1615319000002,None,None,364.1615319000002,None,,,,,,,,,,,,,,,,,,,,,,,,,,,,,,,,,,,,,,,,,,,,,,,,,,,,,32,001,0,34,475,400,2022_Oct_27_1019,Experiment,2021.1.4,359.9647234503977,
images\S5_F_S_01.png,images\S5_F_S_01_scrambled.png,5,sad,-10,female,3,,268,off,1,0.5,0.75,0.5,0.792,3,267,1,1,1,0,0,0,0,3,,,,,,0,30,30,30,,,,,,,,,,,,,,,,,,,,,,,,,,,,,,,,,,,,,,,,,,,,,,,,,,,,,,,,,364.2420897000002,364.74471410000024,364.74471410000024,365.49726890000056,365.49726890000056,365.9999217000004,365.9999217000004,366.79423120000047,366.79423120000047,None,num_6,0.7047966999998607,366.79423120000047,None,happy,0,Sad,367.5076841,None,None,367.5076841,None,,,,,,,,,,,,,,,,,,,,,,,,,,,,,,,,,,,,,,,,,,,,,,,,,,,,,32,001,0,34,475,400,2022_Oct_27_1019,Experiment,2021.1.4,359.9647234503977,
images\blank.jpg,images\blank.jpg,none,none,none,none,0,,613,on,2,0.5,0.75,0.5,0.916,0,612,1,1,1,3,3,48,192,240,,,,,,0,31,31,31,,,,,,,,,,,,,,,,,,,,,,,,,,,,,,,,,,,,,,,,,,,,,,,,,,,,,,,,,367.5885143000005,368.0881239,368.0881239,368.8378978999999,368.8378978999999,369.3405588000005,369.3405588000005,370.2568326999999,370.2568326999999,370.2568326999999,None,,370.2568326999999,None,miss,0,,373.2587980500007,None,None,373.2587980500007,None,,,,,,,,,,,,,,,,,,,,,,,,,,,,,,,,,,,,,,,,,,,,,,,,,,,,,32,001,0,34,475,400,2022_Oct_27_1019,Experiment,2021.1.4,359.9647234503977,
images\S1_F_H_02.png,images\S1_F_H_02_scrambled.png,1,happy,20,female,5,,362,off,1,0.5,0.75,0.5,0.888,3,361,1,1,1,0,0,0,0,5,,,,,,0,32,32,32,,,,,,,,,,,,,,,,,,,,,,,,,,,,,,,,,,,,,,,,,,,,,,,,,,,,,,,,,373.42272159999993,373.9224447000006,373.9224447000006,374.6722137000006,374.6722137000006,375.1748852999999,375.1748852999999,376.0634402000005,376.0634402000005,None,num_6,0.5721833999996306,376.0634402000005,373.42272159999993,happy,0,Happy,376.6633847000003,None,None,376.6633847000003,None,,,,,,,,,,,,,,,,,,,,,,,,,,,,,,,,,,,,,,,,,,,,,,,,,,,,,32,001,0,34,475,400,2022_Oct_27_1019,Experiment,2021.1.4,359.9647234503977,
images\S1_F_S_01.png,images\S1_F_S_01_scrambled.png,1,sad,-10,female,3,,124,off,1,0.5,0.75,0.5,0.791,3,123,2,2,1,0,0,0,0,3,,,,,,0,33,33,33,,,,,,,,,,,,,,,,,,,,,,,,,,,,,,,,,,,,,,,,,,,,,,,,,,,,,,,,,376.74935110000024,377.25479780000023,377.25479780000023,378.0101248000001,378.0101248000001,378.5155027999999,378.5155027999999,379.3097138000003,379.3097138000003,None,num_6,0.7974632999994355,379.3097138000003,None,happy,0,Sad,380.11494050000056,None,None,380.11494050000056,None,,,,,,,,,,,,,,,,,,,,,,,,,,,,,,,,,,,,,,,,,,,,,,,,,,,,,32,001,0,34,475,400,2022_Oct_27_1019,Experiment,2021.1.4,359.9647234503977,
images\S8_M_H_02.png,images\S8_M_H_02_scrambled.png,8,happy,20,male,5,,104,on,2,0.5,0.75,0.5,0.949,3,103,1,1,1,2,2,32,128,165,,,,,,0,34,34,34,,,,,,,,,,,,,,,,,,,,,,,,,,,,,,,,,,,,,,,,,,,,,,,,,,,,,,,,,380.19550550000076,380.69812490000004,380.69812490000004,381.45066750000024,381.45066750000024,381.95333030000074,381.95333030000074,382.90581050000037,382.90581050000037,None,num_6,0.6574843999997029,382.90581050000037,None,happy,0,Happy,383.57780249999996,None,None,383.57780249999996,None,,,,,,,,,,,,,,,,,,,,,,,,,,,,,,,,,,,,,,,,,,,,,,,,,,,,,32,001,0,34,475,400,2022_Oct_27_1019,Experiment,2021.1.4,359.9647234503977,
images\S9_F_S_03.png,images\S9_F_S_03_scrambled.png,9,sad,-30,female,1,,294,off,1,0.5,0.75,0.5,0.85,3,293,1,1,1,0,0,0,0,1,,,,,,0,35,35,35,,,,,,,,,,,,,,,,,,,,,,,,,,,,,,,,,,,,,,,,,,,,,,,,,,,,,,,,,383.6611197000002,384.1638518,384.1638518,384.9162989000006,384.9162989000006,385.4216903000006,385.4216903000006,386.27697830000034,386.27697830000034,None,num_4,0.5182236999999077,386.27697830000034,None,sad,0,Sad,386.8212205,None,None,386.8212205,None,,,,,,,,,,,,,,,,,,,,,,,,,,,,,,,,,,,,,,,,,,,,,,,,,,,,,32,001,0,34,475,400,2022_Oct_27_1019,Experiment,2021.1.4,359.9647234503977,
images\S3_F_H_03.png,images\S3_F_H_03_scrambled.png,3,happy,30,female,6,,15,off,1,0.5,0.75,0.5,0.829,3,14,2,1,1,0,0,0,0,6,,,,,,0,36,36,36,,,,,,,,,,,,,,,,,,,,,,,,,,,,,,,,,,,,,,,,,,,,,,,,,,,,,,,,,386.9128801000006,387.41549790000045,387.41549790000045,388.17085080000015,388.17085080000015,388.67358160000003,388.67358160000003,389.5093925000001,389.5093925000001,None,num_6,0.5179077000002508,389.5093925000001,None,happy,0,Happy,390.04244410000047,None,None,390.04244410000047,None,,,,,,,,,,,,,,,,,,,,,,,,,,,,,,,,,,,,,,,,,,,,,,,,,,,,,32,001,0,34,475,400,2022_Oct_27_1019,Experiment,2021.1.4,359.9647234503977,
images\S9_F_S_03.png,images\S9_F_S_03_scrambled.png,9,sad,-30,female,1,,474,on,2,0.5,0.75,0.5,0.809,3,473,1,1,1,2,2,32,128,161,,,,,,0,37,37,37,,,,,,,,,,,,,,,,,,,,,,,,,,,,,,,,,,,,,,,,,,,,,,,,,,,,,,,,,390.09245869999995,390.5951190000005,390.5951190000005,391.3504361000005,391.3504361000005,391.85582969999996,391.85582969999996,392.66953360000025,392.66953360000025,None,num_4,0.35756020000007993,392.66953360000025,None,sad,0,Sad,393.03875340000013,None,None,393.03875340000013,None,,,,,,,,,,,,,,,,,,,,,,,,,,,,,,,,,,,,,,,,,,,,,,,,,,,,,32,001,0,34,475,400,2022_Oct_27_1019,Experiment,2021.1.4,359.9647234503977,
images\S8_M_S_02.png,images\S8_M_S_02_scrambled.png,8,sad,-20,male,2,,587,on,2,0.5,0.75,0.5,0.775,3,586,2,1,1,2,2,32,128,162,,,,,,0,38,38,38,,,,,,,,,,,,,,,,,,,,,,,,,,,,,,,,,,,,,,,,,,,,,,,,,,,,,,,,,393.1220744000002,393.62475220000033,393.62475220000033,394.38006380000024,394.38006380000024,394.88267820000056,394.88267820000056,395.66017550000015,395.66017550000015,None,num_4,0.3508975000004284,395.66017550000015,None,sad,0,Sad,396.0267364000001,None,None,396.0267364000001,None,,,,,,,,,,,,,,,,,,,,,,,,,,,,,,,,,,,,,,,,,,,,,,,,,,,,,32,001,0,34,475,400,2022_Oct_27_1019,Experiment,2021.1.4,359.9647234503977,
images\S3_F_H_02.png,images\S3_F_H_02_scrambled.png,3,happy,20,female,5,,314,on,2,0.5,0.75,0.5,0.864,3,313,3,1,1,2,2,32,128,165,,,,,,0,39,39,39,,,,,,,,,,,,,,,,,,,,,,,,,,,,,,,,,,,,,,,,,,,,,,,,,,,,,,,,,396.07394270000077,396.57378080000035,396.57378080000035,397.3263581000001,397.3263581000001,397.828974,397.828974,398.6953989000003,398.6953989000003,None,num_6,0.48352040000008856,398.6953989000003,None,happy,0,Happy,399.1896667000001,None,None,399.1896667000001,None,,,,,,,,,,,,,,,,,,,,,,,,,,,,,,,,,,,,,,,,,,,,,,,,,,,,,32,001,0,34,475,400,2022_Oct_27_1019,Experiment,2021.1.4,359.9647234503977,
images\S8_M_S_02.png,images\S8_M_S_02_scrambled.png,8,sad,-20,male,2,,527,off,1,0.5,0.75,0.5,0.836,3,526,1,1,1,0,0,0,0,2,,,,,,0,40,40,40,,,,,,,,,,,,,,,,,,,,,,,,,,,,,,,,,,,,,,,,,,,,,,,,,,,,,,,,,399.23962160000065,399.74506999999994,399.74506999999994,400.5003551,400.5003551,401.0030153000007,401.0030153000007,401.8388270000005,401.8388270000005,None,num_4,0.46839619999991555,401.8388270000005,None,sad,0,Sad,402.3220233000002,None,None,402.3220233000002,None,,,,,,,,,,,,,,,,,,,,,,,,,,,,,,,,,,,,,,,,,,,,,,,,,,,,,32,001,0,34,475,400,2022_Oct_27_1019,Experiment,2021.1.4,359.9647234503977,
images\S10_M_H_02.png,images\S10_M_H_02_scrambled.png,10,happy,20,male,5,,116,on,2,0.5,0.75,0.5,0.778,3,115,1,1,1,2,2,32,128,165,,,,,,0,41,41,41,,,,,,,,,,,,,,,,,,,,,,,,,,,,,,,,,,,,,,,,,,,,,,,,,,,,,,,,,402.3720049000003,402.8746663000002,402.8746663000002,403.6299847999999,403.6299847999999,404.1353846000002,404.1353846000002,404.91856200000075,404.91856200000075,None,num_6,0.35700720000022557,404.91856200000075,None,happy,0,Happy,405.2989690500003,None,None,405.2989690500003,None,,,,,,,,,,,,,,,,,,,,,,,,,,,,,,,,,,,,,,,,,,,,,,,,,,,,,32,001,0,34,475,400,2022_Oct_27_1019,Experiment,2021.1.4,359.9647234503977,
images\S10_M_H_01.png,images\S10_M_H_01_scrambled.png,10,happy,10,male,4,,55,off,1,0.5,0.75,0.5,0.833,3,54,1,2,1,0,0,0,0,4,,,,,,0,42,42,42,,,,,,,,,,,,,,,,,,,,,,,,,,,,,,,,,,,,,,,,,,,,,,,,,,,,,,,,,405.4071749000004,405.9070348000005,405.9070348000005,406.65961360000074,406.65961360000074,407.1650040000004,407.1650040000004,408.00084909999987,408.00084909999987,None,num_6,0.4422595999994883,408.00084909999987,None,happy,0,Happy,408.4534770999999,None,None,408.4534770999999,None,,,,,,,,,,,,,,,,,,,,,,,,,,,,,,,,,,,,,,,,,,,,,,,,,,,,,32,001,0,34,475,400,2022_Oct_27_1019,Experiment,2021.1.4,359.9647234503977,
images\S9_F_H_01.png,images\S9_F_H_01_scrambled.png,9,happy,10,female,4,,289,off,1,0.5,0.75,0.5,0.875,3,288,2,1,2,0,0,0,0,4,,,,,,0,43,43,43,,,,,,,,,,,,,,,,,,,,,,,,,,,,,,,,,,,,,,,,,,,,,,,,,,,,,,,,,408.5034398000007,409.00608340000053,409.00608340000053,409.7614061000004,409.7614061000004,410.26410790000045,410.26410790000045,411.14153950000036,411.14153950000036,None,num_6,0.733749799999714,411.14153950000036,None,happy,0,Happy,411.88574490000065,None,None,411.88574490000065,None,,,,,,,,,,,,,,,,,,,,,,,,,,,,,,,,,,,,,,,,,,,,,,,,,,,,,32,001,0,34,475,400,2022_Oct_27_1019,Experiment,2021.1.4,359.9647234503977,
images\S9_F_H_01.png,images\S9_F_H_01_scrambled.png,9,happy,10,female,4,,349,on,2,0.5,0.75,0.5,0.836,3,348,1,2,3,2,2,32,128,164,,,,,,0,44,44,44,,,,,,,,,,,,,,,,,,,,,,,,,,,,,,,,,,,,,,,,,,,,,,,,,,,,,,,,,411.93571000000065,412.43555170000036,412.43555170000036,413.1881428000006,413.1881428000006,413.6907280000005,413.6907280000005,414.5294491000004,414.5294491000004,None,num_6,0.5142479999994976,414.5294491000004,None,happy,0,Happy,415.0626196000003,None,None,415.0626196000003,None,,,,,,,,,,,,,,,,,,,,,,,,,,,,,,,,,,,,,,,,,,,,,,,,,,,,,32,001,0,34,475,400,2022_Oct_27_1019,Experiment,2021.1.4,359.9647234503977,
images\S5_F_H_02.png,images\S5_F_H_02_scrambled.png,5,happy,20,female,5,,206,on,2,0.5,0.75,0.5,0.786,3,205,2,1,1,2,2,32,128,165,,,,,,0,45,45,45,,,,,,,,,,,,,,,,,,,,,,,,,,,,,,,,,,,,,,,,,,,,,,,,,,,,,,,,,415.1152941999999,415.6207193,415.6207193,416.37335520000033,416.37335520000033,416.8758886000005,416.8758886000005,417.66458800000055,417.66458800000055,None,num_6,0.4027840999997352,417.66458800000055,None,happy,0,Happy,418.0922131500006,None,None,418.0922131500006,None,,,,,,,,,,,,,,,,,,,,,,,,,,,,,,,,,,,,,,,,,,,,,,,,,,,,,32,001,0,34,475,400,2022_Oct_27_1019,Experiment,2021.1.4,359.9647234503977,
images\S3_F_H_02.png,images\S3_F_H_02_scrambled.png,3,happy,20,female,5,,494,off,1,0.5,0.75,0.5,0.936,3,493,1,1,2,0,0,0,0,5,,,,,,0,46,46,46,,,,,,,,,,,,,,,,,,,,,,,,,,,,,,,,,,,,,,,,,,,,,,,,,,,,,,,,,418.14770600000065,418.6503556000007,418.6503556000007,419.40289870000015,419.40289870000015,419.9027091000007,419.9027091000007,420.8441696,420.8441696,None,num_6,0.3747562000007747,420.8441696,None,happy,0,Happy,421.2328287,None,None,421.2328287,None,,,,,,,,,,,,,,,,,,,,,,,,,,,,,,,,,,,,,,,,,,,,,,,,,,,,,32,001,0,34,475,400,2022_Oct_27_1019,Experiment,2021.1.4,359.9647234503977,
images\S10_M_H_02.png,images\S10_M_H_02_scrambled.png,10,happy,20,male,5,,536,off,1,0.5,0.75,0.5,0.893,3,535,2,1,3,0,0,0,0,5,,,,,,0,47,47,47,,,,,,,,,,,,,,,,,,,,,,,,,,,,,,,,,,,,,,,,,,,,,,,,,,,,,,,,,421.2800557999999,421.7854851000002,421.7854851000002,422.5408148000006,422.5408148000006,423.04356240000016,423.04356240000016,423.9375753000004,423.9375753000004,None,num_6,0.3703593999998702,423.9375753000004,None,happy,0,Happy,424.3292682000001,None,None,424.3292682000001,None,,,,,,,,,,,,,,,,,,,,,,,,,,,,,,,,,,,,,,,,,,,,,,,,,,,,,32,001,0,34,475,400,2022_Oct_27_1019,Experiment,2021.1.4,359.9647234503977,
images\S8_M_S_01.png,images\S8_M_S_01_scrambled.png,8,sad,-10,male,3,,286,off,1,0.5,0.75,0.5,0.851,3,285,3,1,1,0,0,0,0,3,,,,,,0,48,48,48,,,,,,,,,,,,,,,,,,,,,,,,,,,,,,,,,,,,,,,,,,,,,,,,,,,,,,,,,424.38188230000014,424.88455370000065,424.88455370000065,425.6398686000002,425.6398686000002,426.14525370000047,426.14525370000047,427.00054100000034,427.00054100000034,None,num_4,0.35443709999981365,427.00054100000034,None,sad,0,Sad,427.3670560999999,None,None,427.3670560999999,None,,,,,,,,,,,,,,,,,,,,,,,,,,,,,,,,,,,,,,,,,,,,,,,,,,,,,32,001,0,34,475,400,2022_Oct_27_1019,Experiment,2021.1.4,359.9647234503977,
images\S3_F_S_02.png,images\S3_F_S_02_scrambled.png,3,sad,-20,female,2,,437,on,2,0.5,0.75,0.5,0.816,3,436,1,1,1,2,2,32,128,162,,,,,,0,49,49,49,,,,,,,,,,,,,,,,,,,,,,,,,,,,,,,,,,,,,,,,,,,,,,,,,,,,,,,,,427.4503783,427.95299870000053,427.95299870000053,428.7027983000007,428.7027983000007,429.2054308000006,429.2054308000006,430.0246285000003,430.0246285000003,None,num_4,0.4987608999999793,430.0246285000003,None,sad,0,Sad,430.5382870000003,None,None,430.5382870000003,None,,,,,,,,,,,,,,,,,,,,,,,,,,,,,,,,,,,,,,,,,,,,,,,,,,,,,32,001,0,34,475,400,2022_Oct_27_1019,Experiment,2021.1.4,359.9647234503977,
images\S7_F_S_02.png,images\S7_F_S_02_scrambled.png,7,sad,-20,female,2,,101,on,2,0.5,0.75,0.5,0.775,3,100,2,1,2,2,2,32,128,162,,,,,,0,50,50,50,,,,,,,,,,,,,,,,,,,,,,,,,,,,,,,,,,,,,,,,,,,,,,,,,,,,,,,,,430.6244037000006,431.1270226000006,431.1270226000006,431.8795680000003,431.8795680000003,432.3850106,432.3850106,433.16530990000047,433.16530990000047,None,num_4,0.23827369999980874,433.16530990000047,None,sad,0,Sad,433.42367605000027,None,None,433.42367605000027,None,,,,,,,,,,,,,,,,,,,,,,,,,,,,,,,,,,,,,,,,,,,,,,,,,,,,,32,001,0,34,475,400,2022_Oct_27_1019,Experiment,2021.1.4,359.9647234503977,
images\S4_M_S_01.png,images\S4_M_S_01_scrambled.png,4,sad,-10,male,3,,502,off,1,0.5,0.75,0.5,0.854,3,501,1,1,1,0,0,0,0,3,,,,,,0,51,51,51,,,,,,,,,,,,,,,,,,,,,,,,,,,,,,,,,,,,,,,,,,,,,,,,,,,,,,,,,433.4735232000003,433.9733939000007,433.9733939000007,434.7259417000005,434.7259417000005,435.2257571,435.2257571,436.08398080000006,436.08398080000006,None,num_4,0.487201300000379,436.08398080000006,None,sad,0,Sad,436.59484840000005,None,None,436.59484840000005,None,,,,,,,,,,,,,,,,,,,,,,,,,,,,,,,,,,,,,,,,,,,,,,,,,,,,,32,001,0,34,475,400,2022_Oct_27_1019,Experiment,2021.1.4,359.9647234503977,
images\S3_F_H_01.png,images\S3_F_H_01_scrambled.png,3,happy,10,female,4,,493,off,1,0.5,0.75,0.5,0.831,3,492,2,1,1,0,0,0,0,4,,,,,,0,52,52,52,,,,,,,,,,,,,,,,,,,,,,,,,,,,,,,,,,,,,,,,,,,,,,,,,,,,,,,,,436.65864990000046,437.16125740000007,437.16125740000007,437.91381439999986,437.91381439999986,438.4193012000005,438.4193012000005,439.24952180000037,439.24952180000037,None,num_4,0.49005789999955596,439.24952180000037,None,sad,0,Happy,439.75213745000065,None,None,439.75213745000065,None,,,,,,,,,,,,,,,,,,,,,,,,,,,,,,,,,,,,,,,,,,,,,,,,,,,,,32,001,0,34,475,400,2022_Oct_27_1019,Experiment,2021.1.4,359.9647234503977,
images\S7_F_H_03.png,images\S7_F_H_03_scrambled.png,7,happy,30,female,6,,159,off,1,0.5,0.75,0.5,0.828,3,158,3,1,1,0,0,0,0,6,,,,,,0,53,53,53,,,,,,,,,,,,,,,,,,,,,,,,,,,,,,,,,,,,,,,,,,,,,,,,,,,,,,,,,439.8104745999999,440.3103039000007,440.3103039000007,441.0628852,441.0628852,441.5683747000003,441.5683747000003,442.3957805,442.3957805,None,num_6,0.35141639999983454,442.3957805,None,happy,0,Happy,442.76226600000064,None,None,442.76226600000064,None,,,,,,,,,,,,,,,,,,,,,,,,,,,,,,,,,,,,,,,,,,,,,,,,,,,,,32,001,0,34,475,400,2022_Oct_27_1019,Experiment,2021.1.4,359.9647234503977,
images\S4_M_S_01.png,images\S4_M_S_01_scrambled.png,4,sad,-10,male,3,,382,off,1,0.5,0.75,0.5,0.809,3,381,4,1,1,0,0,0,0,3,,,,,,0,54,54,54,,,,,,,,,,,,,,,,,,,,,,,,,,,,,,,,,,,,,,,,,,,,,,,,,,,,,,,,,442.80953640000007,443.3121632000002,443.3121632000002,444.0646947000005,444.0646947000005,444.5701368,444.5701368,445.38098870000067,445.38098870000067,None,num_4,0.43020249999972293,445.38098870000067,None,sad,0,Sad,445.8252400000001,None,None,445.8252400000001,None,,,,,,,,,,,,,,,,,,,,,,,,,,,,,,,,,,,,,,,,,,,,,,,,,,,,,32,001,0,34,475,400,2022_Oct_27_1019,Experiment,2021.1.4,359.9647234503977,
images\S6_M_H_02.png,images\S6_M_H_02_scrambled.png,6,happy,20,male,5,,212,on,2,0.5,0.75,0.5,0.752,3,211,1,1,1,2,2,32,128,165,,,,,,0,55,55,55,,,,,,,,,,,,,,,,,,,,,,,,,,,,,,,,,,,,,,,,,,,,,,,,,,,,,,,,,445.87247209999987,446.37801020000006,446.37801020000006,447.1276477000001,447.1276477000001,447.63030359999993,447.63030359999993,448.38558680000006,448.38558680000006,None,num_6,0.4099929999993037,448.38558680000006,None,happy,0,Happy,448.81893034999985,None,None,448.81893034999985,None,,,,,,,,,,,,,,,,,,,,,,,,,,,,,,,,,,,,,,,,,,,,,,,,,,,,,32,001,0,34,475,400,2022_Oct_27_1019,Experiment,2021.1.4,359.9647234503977,
images\S3_F_S_01.png,images\S3_F_S_01_scrambled.png,3,sad,-10,female,3,,256,off,1,0.5,0.75,0.5,0.909,3,255,1,1,1,0,0,0,0,3,,,,,,0,56,56,56,,,,,,,,,,,,,,,,,,,,,,,,,,,,,,,,,,,,,,,,,,,,,,,,,,,,,,,,,448.8687761000001,449.37141900000006,449.37141900000006,450.1239605999999,450.1239605999999,450.6294344000007,450.6294344000007,451.5402012000004,451.5402012000004,None,num_4,0.4069337999999334,451.5402012000004,None,sad,0,Sad,451.97351295,None,None,451.97351295,None,,,,,,,,,,,,,,,,,,,,,,,,,,,,,,,,,,,,,,,,,,,,,,,,,,,,,32,001,0,34,475,400,2022_Oct_27_1019,Experiment,2021.1.4,359.9647234503977,
images\S7_F_H_03.png,images\S7_F_H_03_scrambled.png,7,happy,30,female,6,,39,off,1,0.5,0.75,0.5,0.798,3,38,2,1,1,0,0,0,0,6,,,,,,0,57,57,57,,,,,,,,,,,,,,,,,,,,,,,,,,,,,,,,,,,,,,,,,,,,,,,,,,,,,,,,,452.0233592000004,452.5260003000003,452.5260003000003,453.2813231,453.2813231,453.78407400000015,453.78407400000015,454.58648040000026,454.58648040000026,None,num_6,0.32068880000042554,454.58648040000026,None,happy,0,Happy,454.9169270000002,None,None,454.9169270000002,None,,,,,,,,,,,,,,,,,,,,,,,,,,,,,,,,,,,,,,,,,,,,,,,,,,,,,32,001,0,34,475,400,2022_Oct_27_1019,Experiment,2021.1.4,359.9647234503977,
images\S7_F_H_03.png,images\S7_F_H_03_scrambled.png,7,happy,30,female,6,,279,off,1,0.5,0.75,0.5,0.945,3,278,3,2,2,0,0,0,0,6,,,,,,0,58,58,58,,,,,,,,,,,,,,,,,,,,,,,,,,,,,,,,,,,,,,,,,,,,,,,,,,,,,,,,,454.96411480000006,455.4639836000006,455.4639836000006,456.2165276000005,456.2165276000005,456.7192812000003,456.7192812000003,457.66605400000026,457.66605400000026,None,num_6,0.2650751000001037,457.66605400000026,None,happy,0,Happy,457.9548542000002,None,None,457.9548542000002,None,,,,,,,,,,,,,,,,,,,,,,,,,,,,,,,,,,,,,,,,,,,,,,,,,,,,,32,001,0,34,475,400,2022_Oct_27_1019,Experiment,2021.1.4,359.9647234503977,
images\S7_F_S_03.png,images\S7_F_S_03_scrambled.png,7,sad,-30,female,1,,222,on,2,0.5,0.75,0.5,0.813,3,221,1,3,1,2,2,32,128,161,,,,,,0,59,59,59,,,,,,,,,,,,,,,,,,,,,,,,,,,,,,,,,,,,,,,,,,,,,,,,,,,,,,,,,458.0686589000006,458.57135780000044,458.57135780000044,459.3239028000007,459.3239028000007,459.82937459999994,459.82937459999994,460.6457248000006,460.6457248000006,None,num_4,0.661388800000168,460.6457248000006,None,sad,0,Sad,461.3177091000007,None,None,461.3177091000007,None,,,,,,,,,,,,,,,,,,,,,,,,,,,,,,,,,,,,,,,,,,,,,,,,,,,,,32,001,0,34,475,400,2022_Oct_27_1019,Experiment,2021.1.4,359.9647234503977,
images\blank.jpg,images\blank.jpg,none,none,none,none,0,,627,on,2,0.5,0.75,0.5,0.816,0,626,2,1,1,3,3,48,192,240,,,,,,0,60,60,60,,,,,,,,,,,,,,,,,,,,,,,,,,,,,,,,,,,,,,,,,,,,,,,,,,,,,,,,,461.40406540000004,461.90644150000026,461.90644150000026,462.65911270000015,462.65911270000015,463.16445900000053,463.16445900000053,463.98635940000077,463.98635940000077,463.98635940000077,None,,463.98635940000077,None,miss,0,,466.99103150000064,None,None,466.99103150000064,None,,,,,,,,,,,,,,,,,,,,,,,,,,,,,,,,,,,,,,,,,,,,,,,,,,,,,32,001,0,34,475,400,2022_Oct_27_1019,Experiment,2021.1.4,359.9647234503977,
images\S5_F_S_02.png,images\S5_F_S_02_scrambled.png,5,sad,-20,female,2,,269,off,1,0.5,0.75,0.5,0.768,3,268,1,1,1,0,0,0,0,2,,,,,,0,61,61,61,,,,,,,,,,,,,,,,,,,,,,,,,,,,,,,,,,,,,,,,,,,,,,,,,,,,,,,,,467.1494547000002,467.6546950000002,467.6546950000002,468.4100102000002,468.4100102000002,468.9153984000004,468.9153984000004,469.6873628000003,469.6873628000003,None,num_6,0.5157219000002442,469.6873628000003,467.1494547000002,happy,0,Sad,470.2121666000003,None,None,470.2121666000003,None,,,,,,,,,,,,,,,,,,,,,,,,,,,,,,,,,,,,,,,,,,,,,,,,,,,,,32,001,0,34,475,400,2022_Oct_27_1019,Experiment,2021.1.4,359.9647234503977,
images\S6_M_S_03.png,images\S6_M_S_03_scrambled.png,6,sad,-30,male,1,,516,off,1,0.5,0.75,0.5,0.784,3,515,2,1,1,0,0,0,0,1,,,,,,0,62,62,62,,,,,,,,,,,,,,,,,,,,,,,,,,,,,,,,,,,,,,,,,,,,,,,,,,,,,,,,,470.26218700000027,470.76483890000054,470.76483890000054,471.52015030000075,471.52015030000075,472.0227846000007,472.0227846000007,472.8114116000006,472.8114116000006,None,num_4,0.41566140000031737,472.8114116000006,None,sad,0,Sad,473.2417919999998,None,None,473.2417919999998,None,,,,,,,,,,,,,,,,,,,,,,,,,,,,,,,,,,,,,,,,,,,,,,,,,,,,,32,001,0,34,475,400,2022_Oct_27_1019,Experiment,2021.1.4,359.9647234503977,
images\S10_M_H_01.png,images\S10_M_H_01_scrambled.png,10,happy,10,male,4,,595,on,2,0.5,0.75,0.5,0.92,3,594,1,1,1,2,2,32,128,164,,,,,,0,63,63,63,,,,,,,,,,,,,,,,,,,,,,,,,,,,,,,,,,,,,,,,,,,,,,,,,,,,,,,,,473.2890262000001,473.78889250000066,473.78889250000066,474.5386662000001,474.5386662000001,475.04417680000006,475.04417680000006,475.9716234000007,475.9716234000007,None,num_6,0.5031330000001617,475.9716234000007,None,happy,0,Happy,476.48527790000026,None,None,476.48527790000026,None,,,,,,,,,,,,,,,,,,,,,,,,,,,,,,,,,,,,,,,,,,,,,,,,,,,,,32,001,0,34,475,400,2022_Oct_27_1019,Experiment,2021.1.4,359.9647234503977,
images\S3_F_H_02.png,images\S3_F_H_02_scrambled.png,3,happy,20,female,5,,254,off,1,0.5,0.75,0.5,0.772,3,253,1,1,1,0,0,0,0,5,,,,,,0,64,64,64,,,,,,,,,,,,,,,,,,,,,,,,,,,,,,,,,,,,,,,,,,,,,,,,,,,,,,,,,476.5324811999999,477.03512880000017,477.03512880000017,477.7848681000005,477.7848681000005,478.2902987000007,478.2902987000007,479.0650619000007,479.0650619000007,None,num_4,0.5380511000003025,479.0650619000007,None,sad,0,Happy,479.6148475,None,None,479.6148475,None,,,,,,,,,,,,,,,,,,,,,,,,,,,,,,,,,,,,,,,,,,,,,,,,,,,,,32,001,0,34,475,400,2022_Oct_27_1019,Experiment,2021.1.4,359.9647234503977,
images\S10_M_S_03.png,images\S10_M_S_03_scrambled.png,10,sad,-30,male,1,,300,off,1,0.5,0.75,0.5,0.874,3,299,2,1,1,0,0,0,0,1,,,,,,0,65,65,65,,,,,,,,,,,,,,,,,,,,,,,,,,,,,,,,,,,,,,,,,,,,,,,,,,,,,,,,,479.69816190000074,480.2008082000002,480.2008082000002,480.9534856999999,480.9534856999999,481.4559785000001,481.4559785000001,482.33360840000023,482.33360840000023,None,num_4,0.7415768999999273,482.33360840000023,None,sad,0,Sad,483.08876130000044,None,None,483.08876130000044,None,,,,,,,,,,,,,,,,,,,,,,,,,,,,,,,,,,,,,,,,,,,,,,,,,,,,,32,001,0,34,475,400,2022_Oct_27_1019,Experiment,2021.1.4,359.9647234503977,
images\S9_F_H_01.png,images\S9_F_H_01_scrambled.png,9,happy,10,female,4,,169,off,1,0.5,0.75,0.5,0.856,3,168,3,1,1,0,0,0,0,4,,,,,,0,66,66,66,,,,,,,,,,,,,,,,,,,,,,,,,,,,,,,,,,,,,,,,,,,,,,,,,,,,,,,,,483.13598400000046,483.6387407000002,483.6387407000002,484.3940773000004,484.3940773000004,484.89655330000005,484.89655330000005,485.75462980000066,485.75462980000066,None,num_6,0.7365741000003254,485.75462980000066,None,happy,0,Happy,486.5072302499998,None,None,486.5072302499998,None,,,,,,,,,,,,,,,,,,,,,,,,,,,,,,,,,,,,,,,,,,,,,,,,,,,,,32,001,0,34,475,400,2022_Oct_27_1019,Experiment,2021.1.4,359.9647234503977,
images\S4_M_H_02.png,images\S4_M_H_02_scrambled.png,4,happy,20,male,5,,200,on,2,0.5,0.75,0.5,0.765,3,199,1,1,1,2,2,32,128,165,,,,,,0,67,67,67,,,,,,,,,,,,,,,,,,,,,,,,,,,,,,,,,,,,,,,,,,,,,,,,,,,,,,,,,486.5571469000006,487.0598230000005,487.0598230000005,487.8151426000004,487.8151426000004,488.31772080000064,488.31772080000064,489.0869311000006,489.0869311000006,None,num_6,0.700944499999423,489.0869311000006,None,happy,0,Happy,489.81462329999977,None,None,489.81462329999977,None,,,,,,,,,,,,,,,,,,,,,,,,,,,,,,,,,,,,,,,,,,,,,,,,,,,,,32,001,0,34,475,400,2022_Oct_27_1019,Experiment,2021.1.4,359.9647234503977,
images\S9_F_S_02.png,images\S9_F_S_02_scrambled.png,9,sad,-20,female,2,,233,on,2,0.5,0.75,0.5,0.853,3,232,2,1,1,2,2,32,128,162,,,,,,0,68,68,68,,,,,,,,,,,,,,,,,,,,,,,,,,,,,,,,,,,,,,,,,,,,,,,,,,,,,,,,,489.87835580000046,490.38098700000046,490.38098700000046,491.1336504000001,491.1336504000001,491.6390586000007,491.6390586000007,492.4942508000004,492.4942508000004,None,num_4,0.35676240000066173,492.4942508000004,None,sad,0,Sad,492.86629189999985,None,None,492.86629189999985,None,,,,,,,,,,,,,,,,,,,,,,,,,,,,,,,,,,,,,,,,,,,,,,,,,,,,,32,001,0,34,475,400,2022_Oct_27_1019,Experiment,2021.1.4,359.9647234503977,
images\S3_F_H_03.png,images\S3_F_H_03_scrambled.png,3,happy,30,female,6,,75,on,2,0.5,0.75,0.5,0.865,3,74,3,1,1,2,2,32,128,166,,,,,,0,69,69,69,,,,,,,,,,,,,,,,,,,,,,,,,,,,,,,,,,,,,,,,,,,,,,,,,,,,,,,,,492.9135249000001,493.41905380000026,493.41905380000026,494.1743256,494.1743256,494.6796959000003,494.6796959000003,495.54881710000063,495.54881710000063,None,num_6,0.43029440000009345,495.54881710000063,None,happy,0,Happy,495.99043729999994,None,None,495.99043729999994,None,,,,,,,,,,,,,,,,,,,,,,,,,,,,,,,,,,,,,,,,,,,,,,,,,,,,,32,001,0,34,475,400,2022_Oct_27_1019,Experiment,2021.1.4,359.9647234503977,
images\S3_F_S_03.png,images\S3_F_S_03_scrambled.png,3,sad,-30,female,1,,378,off,1,0.5,0.75,0.5,0.876,3,377,1,2,1,0,0,0,0,1,,,,,,0,70,70,70,,,,,,,,,,,,,,,,,,,,,,,,,,,,,,,,,,,,,,,,,,,,,,,,,,,,,,,,,496.0736661000001,496.5735388000003,496.5735388000003,497.3233108000004,497.3233108000004,497.82592600000044,497.82592600000044,498.7090924000004,498.7090924000004,None,num_4,0.4378794000003836,498.7090924000004,None,sad,0,Sad,499.1615939000003,None,None,499.1615939000003,None,,,,,,,,,,,,,,,,,,,,,,,,,,,,,,,,,,,,,,,,,,,,,,,,,,,,,32,001,0,34,475,400,2022_Oct_27_1019,Experiment,2021.1.4,359.9647234503977,
images\S2_M_S_01.png,images\S2_M_S_01_scrambled.png,2,sad,-10,male,3,,250,off,1,0.5,0.75,0.5,0.778,3,249,2,1,1,0,0,0,0,3,,,,,,0,71,71,71,,,,,,,,,,,,,,,,,,,,,,,,,,,,,,,,,,,,,,,,,,,,,,,,,,,,,,,,,499.26989930000036,499.77252990000034,499.77252990000034,500.5250679999999,500.5250679999999,501.03049869999995,501.03049869999995,501.8107791000002,501.8107791000002,None,num_4,0.6885051999997813,501.8107791000002,None,sad,0,Sad,502.51331910000044,None,None,502.51331910000044,None,,,,,,,,,,,,,,,,,,,,,,,,,,,,,,,,,,,,,,,,,,,,,,,,,,,,,32,001,0,34,475,400,2022_Oct_27_1019,Experiment,2021.1.4,359.9647234503977,
images\S1_F_H_01.png,images\S1_F_H_01_scrambled.png,1,happy,10,female,4,,61,on,2,0.5,0.75,0.5,0.779,3,60,1,1,1,2,2,32,128,164,,,,,,0,72,72,72,,,,,,,,,,,,,,,,,,,,,,,,,,,,,,,,,,,,,,,,,,,,,,,,,,,,,,,,,502.56055130000004,503.0659722999999,503.0659722999999,503.82129350000014,503.82129350000014,504.3211248000007,504.3211248000007,505.1043070000005,505.1043070000005,None,num_6,0.3787652999999409,505.1043070000005,None,happy,0,Happy,505.51525070000025,None,None,505.51525070000025,None,,,,,,,,,,,,,,,,,,,,,,,,,,,,,,,,,,,,,,,,,,,,,,,,,,,,,32,001,0,34,475,400,2022_Oct_27_1019,Experiment,2021.1.4,359.9647234503977,
images\S6_M_S_01.png,images\S6_M_S_01_scrambled.png,6,sad,-10,male,3,,454,on,2,0.5,0.75,0.5,0.874,3,453,2,1,1,2,2,32,128,163,,,,,,0,73,73,73,,,,,,,,,,,,,,,,,,,,,,,,,,,,,,,,,,,,,,,,,,,,,,,,,,,,,,,,,505.6262746000002,506.12905709999995,506.12905709999995,506.88145729999997,506.88145729999997,507.3841941999999,507.3841941999999,508.2615714000003,508.2615714000003,None,num_4,0.49354760000005626,508.2615714000003,None,sad,0,Sad,508.77805424999997,None,None,508.77805424999997,None,,,,,,,,,,,,,,,,,,,,,,,,,,,,,,,,,,,,,,,,,,,,,,,,,,,,,32,001,0,34,475,400,2022_Oct_27_1019,Experiment,2021.1.4,359.9647234503977,
images\S3_F_S_03.png,images\S3_F_S_03_scrambled.png,3,sad,-30,female,1,,138,off,1,0.5,0.75,0.5,0.855,3,137,1,1,1,0,0,0,0,1,,,,,,0,74,74,74,,,,,,,,,,,,,,,,,,,,,,,,,,,,,,,,,,,,,,,,,,,,,,,,,,,,,,,,,508.8447249999999,509.3501690000003,509.3501690000003,510.0998927999999,510.0998927999999,510.6025133000003,510.6025133000003,511.4606179000002,511.4606179000002,None,num_4,0.5026764999993247,511.4606179000002,None,sad,0,Sad,511.98821335,None,None,511.98821335,None,,,,,,,,,,,,,,,,,,,,,,,,,,,,,,,,,,,,,,,,,,,,,,,,,,,,,32,001,0,34,475,400,2022_Oct_27_1019,Experiment,2021.1.4,359.9647234503977,
images\S5_F_S_02.png,images\S5_F_S_02_scrambled.png,5,sad,-20,female,2,,569,on,2,0.5,0.75,0.5,0.903,3,568,1,1,1,2,2,32,128,162,,,,,,0,75,75,75,,,,,,,,,,,,,,,,,,,,,,,,,,,,,,,,,,,,,,,,,,,,,,,,,,,,,,,,,512.0409722000004,512.5436682,512.5436682,513.2990451000005,513.2990451000005,513.8015287000007,513.8015287000007,514.7068187000004,514.7068187000004,None,num_6,0.5042966999999408,514.7068187000004,None,happy,0,Sad,515.2261547500007,None,None,515.2261547500007,None,,,,,,,,,,,,,,,,,,,,,,,,,,,,,,,,,,,,,,,,,,,,,,,,,,,,,32,001,0,34,475,400,2022_Oct_27_1019,Experiment,2021.1.4,359.9647234503977,
images\S10_M_S_03.png,images\S10_M_S_03_scrambled.png,10,sad,-30,male,1,,180,off,1,0.5,0.75,0.5,0.904,3,179,1,1,1,0,0,0,0,1,,,,,,0,76,76,76,,,,,,,,,,,,,,,,,,,,,,,,,,,,,,,,,,,,,,,,,,,,,,,,,,,,,,,,,515.2844038000003,515.7898461000004,515.7898461000004,516.5451320000002,516.5451320000002,517.0449755,517.0449755,517.9558317000001,517.9558317000001,None,num_4,0.48742330000004586,517.9558317000001,None,sad,0,Sad,518.4612132000002,None,None,518.4612132000002,None,,,,,,,,,,,,,,,,,,,,,,,,,,,,,,,,,,,,,,,,,,,,,,,,,,,,,32,001,0,34,475,400,2022_Oct_27_1019,Experiment,2021.1.4,359.9647234503977,
images\S9_F_H_01.png,images\S9_F_H_01_scrambled.png,9,happy,10,female,4,,469,on,2,0.5,0.75,0.5,0.817,3,468,1,1,1,2,2,32,128,164,,,,,,0,77,77,77,,,,,,,,,,,,,,,,,,,,,,,,,,,,,,,,,,,,,,,,,,,,,,,,,,,,,,,,,518.5084156000003,519.0139580000005,519.0139580000005,519.7635829000001,519.7635829000001,520.2691031000004,520.2691031000004,521.0909685000006,521.0909685000006,None,num_6,0.46400030000040715,521.0909685000006,None,happy,0,Happy,521.5657953999998,None,None,521.5657953999998,None,,,,,,,,,,,,,,,,,,,,,,,,,,,,,,,,,,,,,,,,,,,,,,,,,,,,,32,001,0,34,475,400,2022_Oct_27_1019,Experiment,2021.1.4,359.9647234503977,
images\S9_F_H_02.png,images\S9_F_H_02_scrambled.png,9,happy,20,female,5,,530,off,1,0.5,0.75,0.5,0.776,3,529,1,2,1,0,0,0,0,5,,,,,,0,78,78,78,,,,,,,,,,,,,,,,,,,,,,,,,,,,,,,,,,,,,,,,,,,,,,,,,,,,,,,,,521.6463348000007,522.1517481000001,522.1517481000001,522.9070749000002,522.9070749000002,523.4096754000002,523.4096754000002,524.1900249,524.1900249,None,num_6,0.508898400000362,524.1900249,None,happy,0,Happy,524.7287025000005,None,None,524.7287025000005,None,,,,,,,,,,,,,,,,,,,,,,,,,,,,,,,,,,,,,,,,,,,,,,,,,,,,,32,001,0,34,475,400,2022_Oct_27_1019,Experiment,2021.1.4,359.9647234503977,
images\S5_F_H_02.png,images\S5_F_H_02_scrambled.png,5,happy,20,female,5,,386,off,1,0.5,0.75,0.5,0.895,3,385,2,1,2,0,0,0,0,5,,,,,,0,79,79,79,,,,,,,,,,,,,,,,,,,,,,,,,,,,,,,,,,,,,,,,,,,,,,,,,,,,,,,,,524.7842614000001,525.2897159000004,525.2897159000004,526.0394257000007,526.0394257000007,526.5448738000005,526.5448738000005,527.4445537000001,527.4445537000001,None,num_6,0.3585768000002645,527.4445537000001,None,happy,0,Happy,527.8139009000006,None,None,527.8139009000006,None,,,,,,,,,,,,,,,,,,,,,,,,,,,,,,,,,,,,,,,,,,,,,,,,,,,,,32,001,0,34,475,400,2022_Oct_27_1019,Experiment,2021.1.4,359.9647234503977,
images\S8_M_H_01.png,images\S8_M_H_01_scrambled.png,8,happy,10,male,4,,43,off,1,0.5,0.75,0.5,0.837,3,42,3,1,1,0,0,0,0,4,,,,,,0,80,80,80,,,,,,,,,,,,,,,,,,,,,,,,,,,,,,,,,,,,,,,,,,,,,,,,,,,,,,,,,527.9193997000002,528.4248427000002,528.4248427000002,529.1745476000006,529.1745476000006,529.6800147000004,529.6800147000004,530.5242414000004,530.5242414000004,None,num_6,0.3508615999999165,530.5242414000004,None,happy,0,Happy,530.8878995000005,None,None,530.8878995000005,None,,,,,,,,,,,,,,,,,,,,,,,,,,,,,,,,,,,,,,,,,,,,,,,,,,,,,32,001,0,34,475,400,2022_Oct_27_1019,Experiment,2021.1.4,359.9647234503977,
images\S3_F_H_01.png,images\S3_F_H_01_scrambled.png,3,happy,10,female,4,,13,off,1,0.5,0.75,0.5,0.759,3,12,4,1,2,0,0,0,0,4,,,,,,0,81,81,81,,,,,,,,,,,,,,,,,,,,,,,,,,,,,,,,,,,,,,,,,,,,,,,,,,,,,,,,,530.9379134000001,531.4405647000003,531.4405647000003,532.1930792000003,532.1930792000003,532.6957325000003,532.6957325000003,533.4594448000007,533.4594448000007,None,num_4,0.0556085999996867,533.4594448000007,None,sad,0,Happy,533.5260644499999,None,None,533.5260644499999,None,,,,,,,,,,,,,,,,,,,,,,,,,,,,,,,,,,,,,,,,,,,,,,,,,,,,,32,001,0,34,475,400,2022_Oct_27_1019,Experiment,2021.1.4,359.9647234503977,
images\S1_F_S_01.png,images\S1_F_S_01_scrambled.png,1,sad,-10,female,3,,424,on,2,0.5,0.75,0.5,0.829,3,423,1,1,1,2,2,32,128,163,,,,,,0,82,82,82,,,,,,,,,,,,,,,,,,,,,,,,,,,,,,,,,,,,,,,,,,,,,,,,,,,,,,,,,533.5898701000006,534.0952783000002,534.0952783000002,534.8506269,534.8506269,535.3504357000002,535.3504357000002,536.1863142000002,536.1863142000002,None,num_6,0.3285721000002013,536.1863142000002,None,happy,0,Sad,536.5250865000007,None,None,536.5250865000007,None,,,,,,,,,,,,,,,,,,,,,,,,,,,,,,,,,,,,,,,,,,,,,,,,,,,,,32,001,0,34,475,400,2022_Oct_27_1019,Experiment,2021.1.4,359.9647234503977,
images\S6_M_S_01.png,images\S6_M_S_01_scrambled.png,6,sad,-10,male,3,,94,on,2,0.5,0.75,0.5,0.947,3,93,2,1,2,2,2,32,128,163,,,,,,0,83,83,83,,,,,,,,,,,,,,,,,,,,,,,,,,,,,,,,,,,,,,,,,,,,,,,,,,,,,,,,,536.5722898000004,537.0749128000007,537.0749128000007,537.8275193,537.8275193,538.3300899000005,538.3300899000005,539.2798263000004,539.2798263000004,None,num_4,0.307243400000516,539.2798263000004,None,sad,0,Sad,539.6019166000005,None,None,539.6019166000005,None,,,,,,,,,,,,,,,,,,,,,,,,,,,,,,,,,,,,,,,,,,,,,,,,,,,,,32,001,0,34,475,400,2022_Oct_27_1019,Experiment,2021.1.4,359.9647234503977,
images\S7_F_H_03.png,images\S7_F_H_03_scrambled.png,7,happy,30,female,6,,219,on,2,0.5,0.75,0.5,0.931,3,218,3,1,1,2,2,32,128,166,,,,,,0,84,84,84,,,,,,,,,,,,,,,,,,,,,,,,,,,,,,,,,,,,,,,,,,,,,,,,,,,,,,,,,539.6491200999999,540.1517389999999,540.1517389999999,540.9015348000003,540.9015348000003,541.4042162000005,541.4042162000005,542.3399935000007,542.3399935000007,None,num_6,0.35078839999914635,542.3399935000007,None,happy,0,Happy,542.7204630500005,None,None,542.7204630500005,None,,,,,,,,,,,,,,,,,,,,,,,,,,,,,,,,,,,,,,,,,,,,,,,,,,,,,32,001,0,34,475,400,2022_Oct_27_1019,Experiment,2021.1.4,359.9647234503977,
images\S4_M_S_03.png,images\S4_M_S_03_scrambled.png,4,sad,-30,male,1,,504,off,1,0.5,0.75,0.5,0.906,3,503,1,1,1,0,0,0,0,1,,,,,,0,85,85,85,,,,,,,,,,,,,,,,,,,,,,,,,,,,,,,,,,,,,,,,,,,,,,,,,,,,,,,,,542.8231326000005,543.3257940000003,543.3257940000003,544.0811042000005,544.0811042000005,544.5837277999999,544.5837277999999,545.4945809000001,545.4945809000001,None,num_4,0.48441749999983585,545.4945809000001,None,sad,0,Sad,545.9943564000005,None,None,545.9943564000005,None,,,,,,,,,,,,,,,,,,,,,,,,,,,,,,,,,,,,,,,,,,,,,,,,,,,,,32,001,0,34,475,400,2022_Oct_27_1019,Experiment,2021.1.4,359.9647234503977,
images\S10_M_H_01.png,images\S10_M_H_01_scrambled.png,10,happy,10,male,4,,415,off,1,0.5,0.75,0.5,0.819,3,414,2,1,1,0,0,0,0,4,,,,,,0,86,86,86,,,,,,,,,,,,,,,,,,,,,,,,,,,,,,,,,,,,,,,,,,,,,,,,,,,,,,,,,546.0415888000007,546.5442851000007,546.5442851000007,547.2995808000005,547.2995808000005,547.8049736000003,547.8049736000003,548.6268995,548.6268995,None,num_6,0.3199592999999368,548.6268995,None,happy,0,Happy,548.9573803000003,None,None,548.9573803000003,None,,,,,,,,,,,,,,,,,,,,,,,,,,,,,,,,,,,,,,,,,,,,,,,,,,,,,32,001,0,34,475,400,2022_Oct_27_1019,Experiment,2021.1.4,359.9647234503977,
images\blank.jpg,images\blank.jpg,none,none,none,none,0,,609,on,2,0.5,0.75,0.5,0.786,0,608,1,1,1,3,3,48,192,240,,,,,,0,87,87,87,,,,,,,,,,,,,,,,,,,,,,,,,,,,,,,,,,,,,,,,,,,,,,,,,,,,,,,,,549.0408863000002,549.5434057000002,549.5434057000002,550.2958630000003,550.2958630000003,550.7985881000004,550.7985881000004,551.5843875999999,551.5843875999999,551.5843875999999,None,,551.5843875999999,None,miss,0,,554.5861923500001,None,None,554.5861923500001,None,,,,,,,,,,,,,,,,,,,,,,,,,,,,,,,,,,,,,,,,,,,,,,,,,,,,,32,001,0,34,475,400,2022_Oct_27_1019,Experiment,2021.1.4,359.9647234503977,
images\S1_F_H_01.png,images\S1_F_H_01_scrambled.png,1,happy,10,female,4,,181,on,2,0.5,0.75,0.5,0.861,3,180,2,1,1,2,2,32,128,164,,,,,,0,88,88,88,,,,,,,,,,,,,,,,,,,,,,,,,,,,,,,,,,,,,,,,,,,,,,,,,,,,,,,,,554.7003197000004,555.2054735000002,555.2054735000002,555.9580055000006,555.9580055000006,556.4606467000003,556.4606467000003,557.3243138000007,557.3243138000007,None,num_6,0.3665937000005215,557.3243138000007,554.7003197000004,happy,0,Happy,557.7186889000004,None,None,557.7186889000004,None,,,,,,,,,,,,,,,,,,,,,,,,,,,,,,,,,,,,,,,,,,,,,,,,,,,,,32,001,0,34,475,400,2022_Oct_27_1019,Experiment,2021.1.4,359.9647234503977,
images\S1_F_H_03.png,images\S1_F_H_03_scrambled.png,1,happy,30,female,6,,483,off,1,0.5,0.75,0.5,0.925,3,482,1,2,1,0,0,0,0,6,,,,,,0,89,89,89,,,,,,,,,,,,,,,,,,,,,,,,,,,,,,,,,,,,,,,,,,,,,,,,,,,,,,,,,557.8074081000004,558.3072493,558.3072493,559.0598524000006,559.0598524000006,559.5624213000001,559.5624213000001,560.4899508000008,560.4899508000008,None,num_6,0.28922549999970215,560.4899508000008,None,happy,0,Happy,560.7953775000005,None,None,560.7953775000005,None,,,,,,,,,,,,,,,,,,,,,,,,,,,,,,,,,,,,,,,,,,,,,,,,,,,,,32,001,0,34,475,400,2022_Oct_27_1019,Experiment,2021.1.4,359.9647234503977,
images\S5_F_S_03.png,images\S5_F_S_03_scrambled.png,5,sad,-30,female,1,,390,off,1,0.5,0.75,0.5,0.927,3,389,2,1,1,0,0,0,0,1,,,,,,0,90,90,90,,,,,,,,,,,,,,,,,,,,,,,,,,,,,,,,,,,,,,,,,,,,,,,,,,,,,,,,,560.9064563000002,561.4118798,561.4118798,562.1644526,562.1644526,562.6642433000006,562.6642433000006,563.5945193000007,563.5945193000007,None,num_4,0.2729198000006363,563.5945193000007,None,sad,0,Sad,563.8889230000004,None,None,563.8889230000004,None,,,,,,,,,,,,,,,,,,,,,,,,,,,,,,,,,,,,,,,,,,,,,,,,,,,,,32,001,0,34,475,400,2022_Oct_27_1019,Experiment,2021.1.4,359.9647234503977,
images\S8_M_S_02.png,images\S8_M_S_02_scrambled.png,8,sad,-20,male,2,,347,on,2,0.5,0.75,0.5,0.884,3,346,1,1,1,2,2,32,128,162,,,,,,0,91,91,91,,,,,,,,,,,,,,,,,,,,,,,,,,,,,,,,,,,,,,,,,,,,,,,,,,,,,,,,,563.9360724000007,564.4388281000001,564.4388281000001,565.1884912000005,565.1884912000005,565.6939849999999,565.6939849999999,566.5824738000001,566.5824738000001,None,num_4,0.508541599999262,566.5824738000001,None,sad,0,Sad,567.1184328999998,None,None,567.1184328999998,None,,,,,,,,,,,,,,,,,,,,,,,,,,,,,,,,,,,,,,,,,,,,,,,,,,,,,32,001,0,34,475,400,2022_Oct_27_1019,Experiment,2021.1.4,359.9647234503977,
images\S6_M_H_01.png,images\S6_M_H_01_scrambled.png,6,happy,10,male,4,,211,on,2,0.5,0.75,0.5,0.877,3,210,2,1,1,2,2,32,128,164,,,,,,0,92,92,92,,,,,,,,,,,,,,,,,,,,,,,,,,,,,,,,,,,,,,,,,,,,,,,,,,,,,,,,,567.2045124000006,567.7099553000007,567.7099553000007,568.4596841000002,568.4596841000002,568.9651187,568.9651187,569.8453589000001,569.8453589000001,None,num_6,0.37373870000010356,569.8453589000001,None,happy,0,Happy,570.2286442000004,None,None,570.2286442000004,None,,,,,,,,,,,,,,,,,,,,,,,,,,,,,,,,,,,,,,,,,,,,,,,,,,,,,32,001,0,34,475,400,2022_Oct_27_1019,Experiment,2021.1.4,359.9647234503977,
images\S5_F_H_03.png,images\S5_F_H_03_scrambled.png,5,happy,30,female,6,,567,on,2,0.5,0.75,0.5,0.753,3,566,3,1,1,2,2,32,128,166,,,,,,0,93,93,93,,,,,,,,,,,,,,,,,,,,,,,,,,,,,,,,,,,,,,,,,,,,,,,,,,,,,,,,,570.3202148,570.8228360000003,570.8228360000003,571.5754348,571.5754348,572.0781376000004,572.0781376000004,572.8361275000007,572.8361275000007,None,num_6,0.5349962999998752,572.8361275000007,None,happy,0,Happy,573.3859143,None,None,573.3859143,None,,,,,,,,,,,,,,,,,,,,,,,,,,,,,,,,,,,,,,,,,,,,,,,,,,,,,32,001,0,34,475,400,2022_Oct_27_1019,Experiment,2021.1.4,359.9647234503977,
images\S10_M_S_02.png,images\S10_M_S_02_scrambled.png,10,sad,-20,male,2,,119,on,2,0.5,0.75,0.5,0.901,3,118,4,1,1,2,2,32,128,162,,,,,,0,94,94,94,,,,,,,,,,,,,,,,,,,,,,,,,,,,,,,,,,,,,,,,,,,,,,,,,,,,,,,,,573.4331622,573.9386720000002,573.9386720000002,574.6911103000002,574.6911103000002,575.1936824000004,575.1936824000004,576.0991020000001,576.0991020000001,None,num_4,0.5037767999992866,576.0991020000001,None,sad,0,Sad,576.6182489000003,None,None,576.6182489000003,None,,,,,,,,,,,,,,,,,,,,,,,,,,,,,,,,,,,,,,,,,,,,,,,,,,,,,32,001,0,34,475,400,2022_Oct_27_1019,Experiment,2021.1.4,359.9647234503977,
images\S8_M_H_03.png,images\S8_M_H_03_scrambled.png,8,happy,30,male,6,,405,off,1,0.5,0.75,0.5,0.788,3,404,1,1,1,0,0,0,0,6,,,,,,0,95,95,95,,,,,,,,,,,,,,,,,,,,,,,,,,,,,,,,,,,,,,,,,,,,,,,,,,,,,,,,,576.6654944000002,577.1709109000003,577.1709109000003,577.9262225000002,577.9262225000002,578.4288590000006,578.4288590000006,579.2202878000007,579.2202878000007,None,num_6,0.6945765999998912,579.2202878000007,None,happy,0,Happy,579.9255745,None,None,579.9255745,None,,,,,,,,,,,,,,,,,,,,,,,,,,,,,,,,,,,,,,,,,,,,,,,,,,,,,32,001,0,34,475,400,2022_Oct_27_1019,Experiment,2021.1.4,359.9647234503977,
images\S3_F_H_01.png,images\S3_F_H_01_scrambled.png,3,happy,10,female,4,,433,on,2,0.5,0.75,0.5,0.865,3,432,1,1,1,2,2,32,128,164,,,,,,0,96,96,96,,,,,,,,,,,,,,,,,,,,,,,,,,,,,,,,,,,,,,,,,,,,,,,,,,,,,,,,,579.9727953000001,580.4754520000006,580.4754520000006,581.2280041000004,581.2280041000004,581.7278444000003,581.7278444000003,582.5997901999999,582.5997901999999,None,num_4,0.6832310999998299,582.5997901999999,None,sad,0,Happy,583.291193,None,None,583.291193,None,,,,,,,,,,,,,,,,,,,,,,,,,,,,,,,,,,,,,,,,,,,,,,,,,,,,,32,001,0,34,475,400,2022_Oct_27_1019,Experiment,2021.1.4,359.9647234503977,
images\S10_M_H_01.png,images\S10_M_H_01_scrambled.png,10,happy,10,male,4,,535,off,1,0.5,0.75,0.5,0.797,3,534,1,1,2,0,0,0,0,4,,,,,,0,97,97,97,,,,,,,,,,,,,,,,,,,,,,,,,,,,,,,,,,,,,,,,,,,,,,,,,,,,,,,,,583.3384286,583.8382707999999,583.8382707999999,584.5880278000004,584.5880278000004,585.0906559000005,585.0906559000005,585.8904393000003,585.8904393000003,None,num_6,0.4647778999997172,585.8904393000003,None,happy,0,Happy,586.3708234000005,None,None,586.3708234000005,None,,,,,,,,,,,,,,,,,,,,,,,,,,,,,,,,,,,,,,,,,,,,,,,,,,,,,32,001,0,34,475,400,2022_Oct_27_1019,Experiment,2021.1.4,359.9647234503977,
images\S2_M_S_03.png,images\S2_M_S_03_scrambled.png,2,sad,-30,male,1,,552,on,2,0.5,0.75,0.5,0.782,3,551,1,1,1,2,2,32,128,161,,,,,,0,98,98,98,,,,,,,,,,,,,,,,,,,,,,,,,,,,,,,,,,,,,,,,,,,,,,,,,,,,,,,,,586.4791161000003,586.9845642999999,586.9845642999999,587.7398484000005,587.7398484000005,588.2452804000004,588.2452804000004,589.0340352000003,589.0340352000003,None,num_4,0.44882219999999506,589.0340352000003,None,sad,0,Sad,589.4976433000002,None,None,589.4976433000002,None,,,,,,,,,,,,,,,,,,,,,,,,,,,,,,,,,,,,,,,,,,,,,,,,,,,,,32,001,0,34,475,400,2022_Oct_27_1019,Experiment,2021.1.4,359.9647234503977,
images\S5_F_S_03.png,images\S5_F_S_03_scrambled.png,5,sad,-30,female,1,,90,on,2,0.5,0.75,0.5,0.929,3,89,2,1,2,2,2,32,128,161,,,,,,0,99,99,99,,,,,,,,,,,,,,,,,,,,,,,,,,,,,,,,,,,,,,,,,,,,,,,,,,,,,,,,,589.5448519000001,590.0502734000002,590.0502734000002,590.8055916000003,590.8055916000003,591.305437,591.305437,592.2412514000007,592.2412514000007,None,num_4,0.4100541999996494,592.2412514000007,None,sad,0,Sad,592.6776117999998,None,None,592.6776117999998,None,,,,,,,,,,,,,,,,,,,,,,,,,,,,,,,,,,,,,,,,,,,,,,,,,,,,,32,001,0,34,475,400,2022_Oct_27_1019,Experiment,2021.1.4,359.9647234503977,
images\S10_M_S_03.png,images\S10_M_S_03_scrambled.png,10,sad,-30,male,1,,480,on,2,0.5,0.75,0.5,0.843,3,479,3,1,3,2,2,32,128,161,,,,,,0,100,100,100,,,,,,,,,,,,,,,,,,,,,,,,,,,,,,,,,,,,,,,,,,,,,,,,,,,,,,,,,592.7299773000004,593.2354001000003,593.2354001000003,593.9879594000004,593.9879594000004,594.4934350000003,594.4934350000003,595.3431639999999,595.3431639999999,None,num_4,0.3480557000002591,595.3431639999999,None,sad,0,Sad,595.7180339000006,None,None,595.7180339000006,None,,,,,,,,,,,,,,,,,,,,,,,,,,,,,,,,,,,,,,,,,,,,,,,,,,,,,32,001,0,34,475,400,2022_Oct_27_1019,Experiment,2021.1.4,359.9647234503977,
images\S10_M_H_01.png,images\S10_M_H_01_scrambled.png,10,happy,10,male,4,,175,off,1,0.5,0.75,0.5,0.916,3,174,1,2,1,0,0,0,0,4,,,,,,0,101,101,101,,,,,,,,,,,,,,,,,,,,,,,,,,,,,,,,,,,,,,,,,,,,,,,,,,,,,,,,,595.7707016000004,596.2734515000002,596.2734515000002,597.0258979999999,597.0258979999999,597.5312944000007,597.5312944000007,598.4504359000002,598.4504359000002,None,num_6,0.43246610000005603,598.4504359000002,None,happy,0,Happy,598.8974963999999,None,None,598.8974963999999,None,,,,,,,,,,,,,,,,,,,,,,,,,,,,,,,,,,,,,,,,,,,,,,,,,,,,,32,001,0,34,475,400,2022_Oct_27_1019,Experiment,2021.1.4,359.9647234503977,
images\S2_M_S_01.png,images\S2_M_S_01_scrambled.png,2,sad,-10,male,3,,370,off,1,0.5,0.75,0.5,0.948,3,369,2,1,1,0,0,0,0,3,,,,,,0,102,102,102,,,,,,,,,,,,,,,,,,,,,,,,,,,,,,,,,,,,,,,,,,,,,,,,,,,,,,,,,598.9447164000003,599.4501638000002,599.4501638000002,600.2054772000001,600.2054772000001,600.7052886000001,600.7052886000001,601.6605814000004,601.6605814000004,None,num_4,0.35040120000030583,601.6605814000004,None,sad,0,Sad,602.03268075,None,None,602.03268075,None,,,,,,,,,,,,,,,,,,,,,,,,,,,,,,,,,,,,,,,,,,,,,,,,,,,,,32,001,0,34,475,400,2022_Oct_27_1019,Experiment,2021.1.4,359.9647234503977,
images\S7_F_S_01.png,images\S7_F_S_01_scrambled.png,7,sad,-10,female,3,,160,off,1,0.5,0.75,0.5,0.81,3,159,3,1,2,0,0,0,0,3,,,,,,0,103,103,103,,,,,,,,,,,,,,,,,,,,,,,,,,,,,,,,,,,,,,,,,,,,,,,,,,,,,,,,,602.1437354,602.6463883000006,602.6463883000006,603.3989287000004,603.3989287000004,603.9043604000008,603.9043604000008,604.7179471,604.7179471,None,num_4,0.581210800000008,604.7179471,None,sad,0,Sad,605.3149819,None,None,605.3149819,None,,,,,,,,,,,,,,,,,,,,,,,,,,,,,,,,,,,,,,,,,,,,,,,,,,,,,32,001,0,34,475,400,2022_Oct_27_1019,Experiment,2021.1.4,359.9647234503977,
images\S9_F_H_03.png,images\S9_F_H_03_scrambled.png,9,happy,30,female,6,,111,on,2,0.5,0.75,0.5,0.864,3,110,1,1,1,2,2,32,128,166,,,,,,0,104,104,104,,,,,,,,,,,,,,,,,,,,,,,,,,,,,,,,,,,,,,,,,,,,,,,,,,,,,,,,,605.4010855000006,605.9036850000002,605.9036850000002,606.6534569000005,606.6534569000005,607.1589056000003,607.1589056000003,608.0252602,608.0252602,None,num_6,0.3856266000002506,608.0252602,None,happy,0,Happy,608.4223499,None,None,608.4223499,None,,,,,,,,,,,,,,,,,,,,,,,,,,,,,,,,,,,,,,,,,,,,,,,,,,,,,32,001,0,34,475,400,2022_Oct_27_1019,Experiment,2021.1.4,359.9647234503977,
images\S4_M_S_03.png,images\S4_M_S_03_scrambled.png,4,sad,-30,male,1,,24,off,1,0.5,0.75,0.5,0.872,3,23,1,1,1,0,0,0,0,1,,,,,,0,105,105,105,,,,,,,,,,,,,,,,,,,,,,,,,,,,,,,,,,,,,,,,,,,,,,,,,,,,,,,,,608.4723432000001,608.9750022000007,608.9750022000007,609.7303263000003,609.7303263000003,610.2301281,610.2301281,611.1049007000001,611.1049007000001,None,num_4,0.3701163000005181,611.1049007000001,None,sad,0,Sad,611.4908568000001,None,None,611.4908568000001,None,,,,,,,,,,,,,,,,,,,,,,,,,,,,,,,,,,,,,,,,,,,,,,,,,,,,,32,001,0,34,475,400,2022_Oct_27_1019,Experiment,2021.1.4,359.9647234503977,
images\S1_F_H_01.png,images\S1_F_H_01_scrambled.png,1,happy,10,female,4,,1,off,1,0.5,0.75,0.5,0.759,3,0,2,1,1,0,0,0,0,4,,,,,,0,106,106,106,,,,,,,,,,,,,,,,,,,,,,,,,,,,,,,,,,,,,,,,,,,,,,,,,,,,,,,,,611.5380648999999,612.0379160000002,612.0379160000002,612.7877215000008,612.7877215000008,613.2903260000003,613.2903260000003,614.0541055000003,614.0541055000003,None,num_6,0.404794199999742,614.0541055000003,None,happy,0,Happy,614.4732485000004,None,None,614.4732485000004,None,,,,,,,,,,,,,,,,,,,,,,,,,,,,,,,,,,,,,,,,,,,,,,,,,,,,,32,001,0,34,475,400,2022_Oct_27_1019,Experiment,2021.1.4,359.9647234503977,
images\S1_F_H_03.png,images\S1_F_H_03_scrambled.png,1,happy,30,female,6,,543,on,2,0.5,0.75,0.5,0.848,3,542,1,2,1,2,2,32,128,166,,,,,,0,107,107,107,,,,,,,,,,,,,,,,,,,,,,,,,,,,,,,,,,,,,,,,,,,,,,,,,,,,,,,,,614.5287478999999,615.0314465000001,615.0314465000001,615.7841123000007,615.7841123000007,616.2865864000005,616.2865864000005,617.1392142000004,617.1392142000004,None,num_6,0.40813969999999244,617.1392142000004,None,happy,0,Happy,617.5668526999998,None,None,617.5668526999998,None,,,,,,,,,,,,,,,,,,,,,,,,,,,,,,,,,,,,,,,,,,,,,,,,,,,,,32,001,0,34,475,400,2022_Oct_27_1019,Experiment,2021.1.4,359.9647234503977,
images\S6_M_S_03.png,images\S6_M_S_03_scrambled.png,6,sad,-30,male,1,,216,on,2,0.5,0.75,0.5,0.934,3,215,2,1,1,2,2,32,128,161,,,,,,0,108,108,108,,,,,,,,,,,,,,,,,,,,,,,,,,,,,,,,,,,,,,,,,,,,,,,,,,,,,,,,,617.6195364000005,618.119369,618.119369,618.8719559000001,618.8719559000001,619.3745345000007,619.3745345000007,620.3103533000003,620.3103533000003,None,num_4,0.40452600000025996,620.3103533000003,None,sad,0,Sad,620.7324775500006,None,None,620.7324775500006,None,,,,,,,,,,,,,,,,,,,,,,,,,,,,,,,,,,,,,,,,,,,,,,,,,,,,,32,001,0,34,475,400,2022_Oct_27_1019,Experiment,2021.1.4,359.9647234503977,
images\S2_M_H_02.png,images\S2_M_H_02_scrambled.png,2,happy,20,male,5,,308,on,2,0.5,0.75,0.5,0.847,3,307,3,1,1,2,2,32,128,165,,,,,,0,109,109,109,,,,,,,,,,,,,,,,,,,,,,,,,,,,,,,,,,,,,,,,,,,,,,,,,,,,,,,,,620.8379719000004,621.3406251000006,621.3406251000006,622.0903805000007,622.0903805000007,622.5957985000005,622.5957985000005,623.4427258000005,623.4427258000005,None,num_6,0.4641854000001331,623.4427258000005,None,happy,0,Happy,623.923143,None,None,623.923143,None,,,,,,,,,,,,,,,,,,,,,,,,,,,,,,,,,,,,,,,,,,,,,,,,,,,,,32,001,0,34,475,400,2022_Oct_27_1019,Experiment,2021.1.4,359.9647234503977,
images\S4_M_S_02.png,images\S4_M_S_02_scrambled.png,4,sad,-20,male,2,,23,off,1,0.5,0.75,0.5,0.753,3,22,1,1,1,0,0,0,0,2,,,,,,0,110,110,110,,,,,,,,,,,,,,,,,,,,,,,,,,,,,,,,,,,,,,,,,,,,,,,,,,,,,,,,,624.0092261,624.5090810000002,624.5090810000002,625.2644307999999,625.2644307999999,625.7698224000005,625.7698224000005,626.5223427999999,626.5223427999999,None,num_4,0.2885500000002139,626.5223427999999,None,sad,0,Sad,626.8222055000006,None,None,626.8222055000006,None,,,,,,,,,,,,,,,,,,,,,,,,,,,,,,,,,,,,,,,,,,,,,,,,,,,,,32,001,0,34,475,400,2022_Oct_27_1019,Experiment,2021.1.4,359.9647234503977,
images\S10_M_H_03.png,images\S10_M_H_03_scrambled.png,10,happy,30,male,6,,57,off,1,0.5,0.75,0.5,0.854,3,56,2,1,1,0,0,0,0,6,,,,,,0,111,111,111,,,,,,,,,,,,,,,,,,,,,,,,,,,,,,,,,,,,,,,,,,,,,,,,,,,,,,,,,626.9083221000001,627.4081962,627.4081962,628.1636306,628.1636306,628.6690014000005,628.6690014000005,629.5297843000008,629.5297843000008,None,num_6,0.38541389999954845,629.5297843000008,None,happy,0,Happy,629.9324877999998,None,None,629.9324877999998,None,,,,,,,,,,,,,,,,,,,,,,,,,,,,,,,,,,,,,,,,,,,,,,,,,,,,,32,001,0,34,475,400,2022_Oct_27_1019,Experiment,2021.1.4,359.9647234503977,
images\S8_M_S_01.png,images\S8_M_S_01_scrambled.png,8,sad,-10,male,3,,346,on,2,0.5,0.75,0.5,0.773,3,345,1,1,1,2,2,32,128,163,,,,,,0,112,112,112,,,,,,,,,,,,,,,,,,,,,,,,,,,,,,,,,,,,,,,,,,,,,,,,,,,,,,,,,629.9851526000002,630.487779,630.487779,631.2403247000002,631.2403247000002,631.7457457999999,631.7457457999999,632.5233396000003,632.5233396000003,None,num_4,0.6635966999992888,632.5233396000003,None,sad,0,Sad,633.1980438,None,None,633.1980438,None,,,,,,,,,,,,,,,,,,,,,,,,,,,,,,,,,,,,,,,,,,,,,,,,,,,,,32,001,0,34,475,400,2022_Oct_27_1019,Experiment,2021.1.4,359.9647234503977,
images\S10_M_S_01.png,images\S10_M_S_01_scrambled.png,10,sad,-10,male,3,,478,on,2,0.5,0.75,0.5,0.925,3,477,2,1,2,2,2,32,128,163,,,,,,0,113,113,113,,,,,,,,,,,,,,,,,,,,,,,,,,,,,,,,,,,,,,,,,,,,,,,,,,,,,,,,,633.2785842000003,633.7840586000002,633.7840586000002,634.5365403000005,634.5365403000005,635.0392440000005,635.0392440000005,635.9666543000003,635.9666543000003,None,num_6,0.5724731999998767,635.9666543000003,None,happy,0,Sad,636.5443202000006,None,None,636.5443202000006,None,,,,,,,,,,,,,,,,,,,,,,,,,,,,,,,,,,,,,,,,,,,,,,,,,,,,,32,001,0,34,475,400,2022_Oct_27_1019,Experiment,2021.1.4,359.9647234503977,
images\S6_M_H_03.png,images\S6_M_H_03_scrambled.png,6,happy,30,male,6,,393,off,1,0.5,0.75,0.5,0.796,3,392,1,1,1,0,0,0,0,6,,,,,,0,114,114,114,,,,,,,,,,,,,,,,,,,,,,,,,,,,,,,,,,,,,,,,,,,,,,,,,,,,,,,,,636.6275527000007,637.1301737000003,637.1301737000003,637.8799367000001,637.8799367000001,638.3853812000007,638.3853812000007,639.1823041000007,639.1823041000007,None,num_6,0.4045589999996082,639.1823041000007,None,happy,0,Happy,639.6016164000002,None,None,639.6016164000002,None,,,,,,,,,,,,,,,,,,,,,,,,,,,,,,,,,,,,,,,,,,,,,,,,,,,,,32,001,0,34,475,400,2022_Oct_27_1019,Experiment,2021.1.4,359.9647234503977,
images\S8_M_H_01.png,images\S8_M_H_01_scrambled.png,8,happy,10,male,4,,343,on,2,0.5,0.75,0.5,0.844,3,342,1,1,1,2,2,32,128,164,,,,,,0,115,115,115,,,,,,,,,,,,,,,,,,,,,,,,,,,,,,,,,,,,,,,,,,,,,,,,,,,,,,,,,639.6488321000006,640.1487146,640.1487146,640.9041252000006,640.9041252000006,641.4094503000006,641.4094503000006,642.2592371000001,642.2592371000001,None,num_4,0.6397584999995161,642.2592371000001,None,sad,0,Happy,642.9061712000002,None,None,642.9061712000002,None,,,,,,,,,,,,,,,,,,,,,,,,,,,,,,,,,,,,,,,,,,,,,,,,,,,,,32,001,0,34,475,400,2022_Oct_27_1019,Experiment,2021.1.4,359.9647234503977,
images\S1_F_S_02.png,images\S1_F_S_02_scrambled.png,1,sad,-20,female,2,,5,off,1,0.5,0.75,0.5,0.779,3,4,1,1,1,0,0,0,0,2,,,,,,0,116,116,116,,,,,,,,,,,,,,,,,,,,,,,,,,,,,,,,,,,,,,,,,,,,,,,,,,,,,,,,,642.9894917000001,643.4920884000003,643.4920884000003,644.2418765000002,644.2418765000002,644.7444883000007,644.7444883000007,645.5275842000001,645.5275842000001,None,num_4,0.6993732000000819,645.5275842000001,None,sad,0,Sad,646.2412750000003,None,None,646.2412750000003,None,,,,,,,,,,,,,,,,,,,,,,,,,,,,,,,,,,,,,,,,,,,,,,,,,,,,,32,001,0,34,475,400,2022_Oct_27_1019,Experiment,2021.1.4,359.9647234503977,
images\S10_M_H_03.png,images\S10_M_H_03_scrambled.png,10,happy,30,male,6,,357,on,2,0.5,0.75,0.5,0.835,3,356,1,1,1,2,2,32,128,166,,,,,,0,117,117,117,,,,,,,,,,,,,,,,,,,,,,,,,,,,,,,,,,,,,,,,,,,,,,,,,,,,,,,,,646.2884695000002,646.7910968000006,646.7910968000006,647.5437759000006,647.5437759000006,648.0434679,648.0434679,648.8849201000003,648.8849201000003,None,num_6,0.3099698999994871,648.8849201000003,None,happy,0,Happy,649.2236553000002,None,None,649.2236553000002,None,,,,,,,,,,,,,,,,,,,,,,,,,,,,,,,,,,,,,,,,,,,,,,,,,,,,,32,001,0,34,475,400,2022_Oct_27_1019,Experiment,2021.1.4,359.9647234503977,
images\S3_F_S_02.png,images\S3_F_S_02_scrambled.png,3,sad,-20,female,2,,317,on,2,0.5,0.75,0.5,0.927,3,316,2,1,1,2,2,32,128,162,,,,,,0,118,118,118,,,,,,,,,,,,,,,,,,,,,,,,,,,,,,,,,,,,,,,,,,,,,,,,,,,,,,,,,649.2792105000008,649.7790494000001,649.7790494000001,650.5288357,650.5288357,651.0314367000001,651.0314367000001,651.9645444000007,651.9645444000007,None,num_4,0.5582307000004221,651.9645444000007,None,sad,0,Sad,652.5337638999999,None,None,652.5337638999999,None,,,,,,,,,,,,,,,,,,,,,,,,,,,,,,,,,,,,,,,,,,,,,,,,,,,,,32,001,0,34,475,400,2022_Oct_27_1019,Experiment,2021.1.4,359.9647234503977,
images\S5_F_S_01.png,images\S5_F_S_01_scrambled.png,5,sad,-10,female,3,,148,off,1,0.5,0.75,0.5,0.823,3,147,1,1,1,0,0,0,0,3,,,,,,0,119,119,119,,,,,,,,,,,,,,,,,,,,,,,,,,,,,,,,,,,,,,,,,,,,,,,,,,,,,,,,,652.5809638999999,653.0837218000006,653.0837218000006,653.8390450000006,653.8390450000006,654.3443497000007,654.3443497000007,655.1746507000007,655.1746507000007,None,num_4,0.4762387000000672,655.1746507000007,None,sad,0,Sad,655.6661325000005,None,None,655.6661325000005,None,,,,,,,,,,,,,,,,,,,,,,,,,,,,,,,,,,,,,,,,,,,,,,,,,,,,,32,001,0,34,475,400,2022_Oct_27_1019,Experiment,2021.1.4,359.9647234503977,
images\S8_M_H_02.png,images\S8_M_H_02_scrambled.png,8,happy,20,male,5,,44,off,1,0.5,0.75,0.5,0.949,3,43,2,1,1,0,0,0,0,5,,,,,,0,120,120,120,,,,,,,,,,,,,,,,,,,,,,,,,,,,,,,,,,,,,,,,,,,,,,,,,,,,,,,,,655.7133395999999,656.2159755000002,656.2159755000002,656.9685278000006,656.9685278000006,657.4740317000005,657.4740317000005,658.4263977999999,658.4263977999999,None,num_6,0.5203163000005588,658.4263977999999,None,happy,0,Happy,658.9623253999998,None,None,658.9623253999998,None,,,,,,,,,,,,,,,,,,,,,,,,,,,,,,,,,,,,,,,,,,,,,,,,,,,,,32,001,0,34,475,400,2022_Oct_27_1019,Experiment,2021.1.4,359.9647234503977,
images\blank.jpg,images\blank.jpg,none,none,none,none,0,,639,on,2,0.5,0.75,0.5,0.867,0,638,1,1,1,3,3,48,192,240,,,,,,0,121,121,121,,,,,,,,,,,,,,,,,,,,,,,,,,,,,,,,,,,,,,,,,,,,,,,,,,,,,,,,,659.0458994999999,659.5484157000001,659.5484157000001,660.2980204000005,660.2980204000005,660.7978747000006,660.7978747000006,661.6642747000005,661.6642747000005,661.6642747000005,None,,661.6642747000005,None,miss,0,,664.6633624500005,None,None,664.6633624500005,None,,,,,,,,,,,,,,,,,,,,,,,,,,,,,,,,,,,,,,,,,,,,,,,,,,,,,32,001,0,34,475,400,2022_Oct_27_1019,Experiment,2021.1.4,359.9647234503977,
images\S9_F_S_01.png,images\S9_F_S_01_scrambled.png,9,sad,-10,female,3,,52,off,1,0.5,0.75,0.5,0.827,3,51,1,1,1,0,0,0,0,3,,,,,,0,122,122,122,,,,,,,,,,,,,,,,,,,,,,,,,,,,,,,,,,,,,,,,,,,,,,,,,,,,,,,,,664.8135222000001,665.3159518000002,665.3159518000002,666.0685928000003,666.0685928000003,666.5739684,666.5739684,667.4042605000004,667.4042605000004,None,num_4,0.6947082999995473,667.4042605000004,664.8135222000001,sad,0,Sad,668.1095343000006,None,None,668.1095343000006,None,,,,,,,,,,,,,,,,,,,,,,,,,,,,,,,,,,,,,,,,,,,,,,,,,,,,,32,001,0,34,475,400,2022_Oct_27_1019,Experiment,2021.1.4,359.9647234503977,
images\S4_M_H_03.png,images\S4_M_H_03_scrambled.png,4,happy,30,male,6,,441,on,2,0.5,0.75,0.5,0.835,3,440,1,1,1,2,2,32,128,166,,,,,,0,123,123,123,,,,,,,,,,,,,,,,,,,,,,,,,,,,,,,,,,,,,,,,,,,,,,,,,,,,,,,,,668.1595212000002,668.664933,668.664933,669.4202101000001,669.4202101000001,669.9228773000004,669.9228773000004,670.7614792000004,670.7614792000004,None,num_6,0.37748519999968266,670.7614792000004,None,happy,0,Happy,671.1557917,None,None,671.1557917,None,,,,,,,,,,,,,,,,,,,,,,,,,,,,,,,,,,,,,,,,,,,,,,,,,,,,,32,001,0,34,475,400,2022_Oct_27_1019,Experiment,2021.1.4,359.9647234503977,
images\S2_M_S_01.png,images\S2_M_S_01_scrambled.png,2,sad,-10,male,3,,490,off,1,0.5,0.75,0.5,0.782,3,489,1,1,1,0,0,0,0,3,,,,,,0,124,124,124,,,,,,,,,,,,,,,,,,,,,,,,,,,,,,,,,,,,,,,,,,,,,,,,,,,,,,,,,671.2058563999999,671.7111935000003,671.7111935000003,672.4637479000003,672.4637479000003,672.9692168000001,672.9692168000001,673.7550320999999,673.7550320999999,None,num_4,0.45620270000017626,673.7550320999999,None,sad,0,Sad,674.2299249500006,None,None,674.2299249500006,None,,,,,,,,,,,,,,,,,,,,,,,,,,,,,,,,,,,,,,,,,,,,,,,,,,,,,32,001,0,34,475,400,2022_Oct_27_1019,Experiment,2021.1.4,359.9647234503977,
images\S9_F_S_01.png,images\S9_F_S_01_scrambled.png,9,sad,-10,female,3,,172,off,1,0.5,0.75,0.5,0.777,3,171,2,1,2,0,0,0,0,3,,,,,,0,125,125,125,,,,,,,,,,,,,,,,,,,,,,,,,,,,,,,,,,,,,,,,,,,,,,,,,,,,,,,,,674.2770538000004,674.7796719000007,674.7796719000007,675.5294436000004,675.5294436000004,676.0348807,676.0348807,676.8151919000002,676.8151919000002,None,num_4,0.5235775999999532,676.8151919000002,None,sad,0,Sad,677.3538631000001,None,None,677.3538631000001,None,,,,,,,,,,,,,,,,,,,,,,,,,,,,,,,,,,,,,,,,,,,,,,,,,,,,,32,001,0,34,475,400,2022_Oct_27_1019,Experiment,2021.1.4,359.9647234503977,
images\S7_F_H_02.png,images\S7_F_H_02_scrambled.png,7,happy,20,female,5,,398,off,1,0.5,0.75,0.5,0.826,3,397,3,1,1,0,0,0,0,5,,,,,,0,126,126,126,,,,,,,,,,,,,,,,,,,,,,,,,,,,,,,,,,,,,,,,,,,,,,,,,,,,,,,,,677.4344193000006,677.9398140000003,677.9398140000003,678.6895967,678.6895967,679.1950197000006,679.1950197000006,680.0281979000001,680.0281979000001,None,num_6,0.3746866000001319,680.0281979000001,None,happy,0,Happy,680.4168075000007,None,None,680.4168075000007,None,,,,,,,,,,,,,,,,,,,,,,,,,,,,,,,,,,,,,,,,,,,,,,,,,,,,,32,001,0,34,475,400,2022_Oct_27_1019,Experiment,2021.1.4,359.9647234503977,
images\S6_M_S_01.png,images\S6_M_S_01_scrambled.png,6,sad,-10,male,3,,394,off,1,0.5,0.75,0.5,0.767,3,393,4,1,1,0,0,0,0,3,,,,,,0,127,127,127,,,,,,,,,,,,,,,,,,,,,,,,,,,,,,,,,,,,,,,,,,,,,,,,,,,,,,,,,680.4640236000005,680.9666698000001,680.9666698000001,681.7164215000003,681.7164215000003,682.2162634000006,682.2162634000006,682.9854701000004,682.9854701000004,None,num_4,0.40129890000025625,682.9854701000004,None,sad,0,Sad,683.3992475000005,None,None,683.3992475000005,None,,,,,,,,,,,,,,,,,,,,,,,,,,,,,,,,,,,,,,,,,,,,,,,,,,,,,32,001,0,34,475,400,2022_Oct_27_1019,Experiment,2021.1.4,359.9647234503977,
images\S7_F_H_03.png,images\S7_F_H_03_scrambled.png,7,happy,30,female,6,,399,off,1,0.5,0.75,0.5,0.875,3,398,5,1,1,0,0,0,0,6,,,,,,0,128,128,128,,,,,,,,,,,,,,,,,,,,,,,,,,,,,,,,,,,,,,,,,,,,,,,,,,,,,,,,,683.4464446000002,683.9491576,683.9491576,684.7044334000002,684.7044334000002,685.2098310000001,685.2098310000001,686.0901211,686.0901211,None,num_6,0.3046922000003178,686.0901211,None,happy,0,Happy,686.4094008000002,None,None,686.4094008000002,None,,,,,,,,,,,,,,,,,,,,,,,,,,,,,,,,,,,,,,,,,,,,,,,,,,,,,32,001,0,34,475,400,2022_Oct_27_1019,Experiment,2021.1.4,359.9647234503977,
images\S5_F_H_01.png,images\S5_F_H_01_scrambled.png,5,happy,10,female,4,,445,on,2,0.5,0.75,0.5,0.815,3,444,1,1,1,2,2,32,128,164,,,,,,0,129,129,129,,,,,,,,,,,,,,,,,,,,,,,,,,,,,,,,,,,,,,,,,,,,,,,,,,,,,,,,,686.456623,686.9593015,686.9593015,687.7146195000005,687.7146195000005,688.2200152000005,688.2200152000005,689.0392249000006,689.0392249000006,None,num_6,0.3795264999998835,689.0392249000006,None,happy,0,Happy,689.4445921000006,None,None,689.4445921000006,None,,,,,,,,,,,,,,,,,,,,,,,,,,,,,,,,,,,,,,,,,,,,,,,,,,,,,32,001,0,34,475,400,2022_Oct_27_1019,Experiment,2021.1.4,359.9647234503977,
images\S1_F_H_02.png,images\S1_F_H_02_scrambled.png,1,happy,20,female,5,,482,off,1,0.5,0.75,0.5,0.886,3,481,1,1,1,0,0,0,0,5,,,,,,0,130,130,130,,,,,,,,,,,,,,,,,,,,,,,,,,,,,,,,,,,,,,,,,,,,,,,,,,,,,,,,,689.4945823000007,690.0000171000002,690.0000171000002,690.7497540000004,690.7497540000004,691.2523599000006,691.2523599000006,692.1410025000005,692.1410025000005,None,num_6,0.32619550000072195,692.1410025000005,None,happy,0,Happy,692.4964623000005,None,space,692.4964623000005,None,72.99389470000006,,,,,,,,,,,,,,,,,,,,,,,,,,,,,,,,,,,,,,,,,,,,,,,,,,,,32,001,0,34,475,400,2022_Oct_27_1019,Experiment,2021.1.4,359.9647234503977,
images\blank.jpg,images\blank.jpg,none,none,none,none,0,,649,on,2,0.5,0.75,0.5,0.814,0,648,1,1,1,3,3,48,192,240,,,,,,0,131,131,131,,,,,,,,,,,,,,,,,,,,,,,,,,,,,,,,,,,,,,,,,,,,,,,,,,,,,,,,,765.5797622,766.0821179000004,766.0821179000004,766.8318362,766.8318362,767.3344692999999,767.3344692999999,768.1509635000002,768.1509635000002,768.1509635000002,None,,768.1509635000002,None,miss,0,,771.1639285000001,None,None,771.1639285000001,None,,,,,,,,,,,,,,,,,,,,,,,,,,,,,,,,,,,,,,,,,,,,,,,,,,,,,32,001,0,34,475,400,2022_Oct_27_1019,Experiment,2021.1.4,359.9647234503977,
images\S9_F_H_01.png,images\S9_F_H_01_scrambled.png,9,happy,10,female,4,,49,off,1,0.5,0.75,0.5,0.879,3,48,1,1,1,0,0,0,0,4,,,,,,0,132,132,132,,,,,,,,,,,,,,,,,,,,,,,,,,,,,,,,,,,,,,,,,,,,,,,,,,,,,,,,,771.2807609000001,771.7859281000001,771.7859281000001,772.5412402000002,772.5412402000002,773.0466399000006,773.0466399000006,773.9268828000004,773.9268828000004,None,num_6,0.2600423999992927,773.9268828000004,771.2807609000001,happy,0,Happy,774.2017882999999,None,None,774.2017882999999,None,,,,,,,,,,,,,,,,,,,,,,,,,,,,,,,,,,,,,,,,,,,,,,,,,,,,,32,001,0,34,475,400,2022_Oct_27_1019,Experiment,2021.1.4,359.9647234503977,
images\S2_M_H_03.png,images\S2_M_H_03_scrambled.png,2,happy,30,male,6,,9,off,1,0.5,0.75,0.5,0.834,3,8,2,1,1,0,0,0,0,6,,,,,,0,133,133,133,,,,,,,,,,,,,,,,,,,,,,,,,,,,,,,,,,,,,,,,,,,,,,,,,,,,,,,,,774.3128749000007,774.8182942000003,774.8182942000003,775.5709492000005,775.5709492000005,776.0762657000005,776.0762657000005,776.9149995000007,776.9149995000007,None,num_6,0.4398624999994354,776.9149995000007,None,happy,0,Happy,777.3730939500006,None,None,777.3730939500006,None,,,,,,,,,,,,,,,,,,,,,,,,,,,,,,,,,,,,,,,,,,,,,,,,,,,,,32,001,0,34,475,400,2022_Oct_27_1019,Experiment,2021.1.4,359.9647234503977,
images\blank.jpg,images\blank.jpg,none,none,none,none,0,,608,on,2,0.5,0.75,0.5,0.944,0,607,1,1,1,3,3,48,192,240,,,,,,0,134,134,134,,,,,,,,,,,,,,,,,,,,,,,,,,,,,,,,,,,,,,,,,,,,,,,,,,,,,,,,,777.4566321000002,777.9617494000004,777.9617494000004,778.714293,778.714293,779.2169179000002,779.2169179000002,780.1638940000003,780.1638940000003,780.1638940000003,None,,780.1638940000003,None,miss,0,,783.1657624,None,None,783.1657624,None,,,,,,,,,,,,,,,,,,,,,,,,,,,,,,,,,,,,,,,,,,,,,,,,,,,,,32,001,0,34,475,400,2022_Oct_27_1019,Experiment,2021.1.4,359.9647234503977,
images\S8_M_S_02.png,images\S8_M_S_02_scrambled.png,8,sad,-20,male,2,,107,on,2,0.5,0.75,0.5,0.934,3,106,2,1,1,2,2,32,128,162,,,,,,0,135,135,135,,,,,,,,,,,,,,,,,,,,,,,,,,,,,,,,,,,,,,,,,,,,,,,,,,,,,,,,,783.2882064000005,783.7906353000008,783.7906353000008,784.5430735,784.5430735,785.0458048999999,785.0458048999999,785.9815463000004,785.9815463000004,None,num_4,0.26115180000033433,785.9815463000004,783.2882064000005,sad,0,Sad,786.2675639499998,None,None,786.2675639499998,None,,,,,,,,,,,,,,,,,,,,,,,,,,,,,,,,,,,,,,,,,,,,,,,,,,,,,32,001,0,34,475,400,2022_Oct_27_1019,Experiment,2021.1.4,359.9647234503977,
images\blank.jpg,images\blank.jpg,none,none,none,none,0,,640,on,2,0.5,0.75,0.5,0.841,0,639,3,1,1,3,3,48,192,240,,,,,,0,136,136,136,,,,,,,,,,,,,,,,,,,,,,,,,,,,,,,,,,,,,,,,,,,,,,,,,,,,,,,,,786.3565670000007,786.8618260000003,786.8618260000003,787.6171422000007,787.6171422000007,788.1225336000007,788.1225336000007,788.9639096999999,788.9639096999999,788.9639096999999,None,,788.9639096999999,None,miss,0,,791.9658321000006,None,None,791.9658321000006,None,,,,,,,,,,,,,,,,,,,,,,,,,,,,,,,,,,,,,,,,,,,,,,,,,,,,,32,001,0,34,475,400,2022_Oct_27_1019,Experiment,2021.1.4,359.9647234503977,
images\S4_M_S_03.png,images\S4_M_S_03_scrambled.png,4,sad,-30,male,1,,84,on,2,0.5,0.75,0.5,0.9,3,83,4,1,1,2,2,32,128,161,,,,,,0,137,137,137,,,,,,,,,,,,,,,,,,,,,,,,,,,,,,,,,,,,,,,,,,,,,,,,,,,,,,,,,792.0881224000004,792.5933568999999,792.5933568999999,793.3459148000002,793.3459148000002,793.8513361000005,793.8513361000005,794.7566085000008,794.7566085000008,None,num_4,0.32617649999974674,794.7566085000008,792.0881224000004,sad,0,Sad,795.0925957999998,None,None,795.0925957999998,None,,,,,,,,,,,,,,,,,,,,,,,,,,,,,,,,,,,,,,,,,,,,,,,,,,,,,32,001,0,34,475,400,2022_Oct_27_1019,Experiment,2021.1.4,359.9647234503977,
images\S1_F_S_02.png,images\S1_F_S_02_scrambled.png,1,sad,-20,female,2,,545,on,2,0.5,0.75,0.5,0.863,3,544,5,1,1,2,2,32,128,162,,,,,,0,138,138,138,,,,,,,,,,,,,,,,,,,,,,,,,,,,,,,,,,,,,,,,,,,,,,,,,,,,,,,,,795.1397778,795.6396342000007,795.6396342000007,796.3922273000007,796.3922273000007,796.8949558000004,796.8949558000004,797.7612431000007,797.7612431000007,None,num_6,0.4893832999996448,797.7612431000007,None,happy,0,Sad,798.2610541000004,None,None,798.2610541000004,None,,,,,,,,,,,,,,,,,,,,,,,,,,,,,,,,,,,,,,,,,,,,,,,,,,,,,32,001,0,34,475,400,2022_Oct_27_1019,Experiment,2021.1.4,359.9647234503977,
images\S7_F_H_01.png,images\S7_F_H_01_scrambled.png,7,happy,10,female,4,,157,off,1,0.5,0.75,0.5,0.938,3,156,1,1,1,0,0,0,0,4,,,,,,0,139,139,139,,,,,,,,,,,,,,,,,,,,,,,,,,,,,,,,,,,,,,,,,,,,,,,,,,,,,,,,,798.3082570000006,798.8136758,798.8136758,799.5634346000006,799.5634346000006,800.0661330000003,800.0661330000003,801.0103005999999,801.0103005999999,None,num_6,0.39231459999973595,801.0103005999999,None,happy,0,Happy,801.4183981000006,None,None,801.4183981000006,None,,,,,,,,,,,,,,,,,,,,,,,,,,,,,,,,,,,,,,,,,,,,,,,,,,,,,32,001,0,34,475,400,2022_Oct_27_1019,Experiment,2021.1.4,359.9647234503977,
images\blank.jpg,images\blank.jpg,none,none,none,none,0,,632,on,2,0.5,0.75,0.5,0.781,0,631,1,1,1,3,3,48,192,240,,,,,,0,140,140,140,,,,,,,,,,,,,,,,,,,,,,,,,,,,,,,,,,,,,,,,,,,,,,,,,,,,,,,,,801.5019358,802.0043684000002,802.0043684000002,802.7541017000003,802.7541017000003,803.2540019000007,803.2540019000007,804.0399402000003,804.0399402000003,804.0399402000003,None,,804.0399402000003,None,miss,0,,807.0416849500002,None,None,807.0416849500002,None,,,,,,,,,,,,,,,,,,,,,,,,,,,,,,,,,,,,,,,,,,,,,,,,,,,,,32,001,0,34,475,400,2022_Oct_27_1019,Experiment,2021.1.4,359.9647234503977,
