image_face,image_scram,avatar,emo,emotion,sex,trigeeg,dac,trial_no,NMES,stimtime,baseline,iti,face,scr_face,resp_time,index,count_NMES,count_avatar,count_emotion,dac1,dac2,dac1_output,dac2_output,trigs_out,nmes,practice_trials.thisRepN,practice_trials.thisTrialN,practice_trials.thisN,practice_trials.thisIndex,real_trials.thisRepN,real_trials.thisTrialN,real_trials.thisN,real_trials.thisIndex,trials.thisRepN,trials.thisTrialN,trials.thisN,trials.thisIndex,position,Welcome.started,Welcome.stopped,Welcome_resp.keys,Welcome_resp.rt,text_2.started,text_2.stopped,form_2.index,form_2.itemText,form_2.type,form_2.response,form_2.rt,key_resp_4.keys,key_resp_4.rt,key_resp_4.started,key_resp_4.stopped,instructions.started,instructions.stopped,end_instr.keys,end_instr.rt,instructions_2.started,instructions_2.stopped,end_instr_2.keys,end_instr_2.rt,end_instr_2.started,end_instr_2.stopped,instruct_keypress.started,instruct_keypress.stopped,end_instruct_keypress.keys,end_instruct_keypress.rt,start_practice.started,start_practice.stopped,start_practice_resp.keys,start_practice_resp.rt,prac_baseline.started,prac_baseline.stopped,prac_iti.started,prac_iti.stopped,prac_stimulus.started,prac_stimulus.stopped,prac_scram_stim.started,prac_scram_stim.stopped,prac_stimulus_resp.started,prac_stimulus_resp.stopped,prac_resp.keys,prac_resp.rt,prac_resp.started,prac_resp.stopped,transition_to_real.started,transition_to_real.stopped,end_transition_to_real.keys,end_transition_to_real.rt,fixation_cross.started,fixation_cross.stopped,tr_iti.started,tr_iti.stopped,stimulus.started,stimulus.stopped,scram_stim.started,scram_stim.stopped,response_txt.started,response_txt.stopped,response.keys,response.started,response.stopped,participant_Resp,grouping,corAnswer,break_msg.started,break_msg.stopped,end_break.keys,end_break.started,end_break.stopped,response.rt,end_break.rt,text.started,text.stopped,key_resp_3.keys,key_resp_3.rt,key_resp_3.started,key_resp_3.stopped,fix_cross_comf.started,fix_cross_comf.stopped,stimulation_comf.started,stimulation_comf.stopped,rate_instr.started,rate_instr.stopped,comfort_rating.response,comfort_rating.rt,comfort_rating.started,comfort_rating.stopped,resp_form.keys,resp_form.rt,resp_form.started,resp_form.stopped,survey_instructions.started,survey_instructions.stopped,key_resp_2.keys,key_resp_2.rt,key_resp_2.started,key_resp_2.stopped,form.index,form.itemText,form.type,form.response,form.rt,key_resp.keys,key_resp.rt,key_resp.started,key_resp.stopped,text_3.started,text_3.stopped,rate_smile.response,rate_smile.rt,rate_smile.started,rate_smile.stopped,key_resp_5.keys,key_resp_5.rt,key_resp_5.started,key_resp_5.stopped,end_msg.started,end_msg.stopped,end_resp.keys,end_resp.rt,end_resp.started,end_resp.stopped,participant,session,gender,age,LEFT,RIGHT,date,expName,psychopyVersion,frameRate,
,,,,,,,,,,,,,,,,,,,,,,,,,,,,,,,,,,,,,,H-S,34.59306459999971,None,num_add,2.992815300000075,,,,,,,,,,,,,,,,,,,,,,,,,,,,,,,,,,,,,,,,,,,,,,,,,,,,,,,,,,,,,,,,,,,,,,,,,,,,,,,,,,,,,,,,,,,,,,,,,,,,,,,,,,,,,,,,,,,,,,,,,,33,001,0,22,600,600,2022_Oct_28_1231,Experiment,2021.1.4,360.0010080013301,
,,,,,,,,,,,,,,,,,,,,,,,,,,,,,,,,,,,,,,,,,,,37.613608399999976,39.64895759999945,1,"This scale consistes of a number of words that describe different feelings and emotion. Read each item and then list the number from the scale below each word. Indicate (by clicking) to what extend you feel this way RIGHT NOW, that is, AT THE PRESENT MOMENT.",description,,,,,,,,,,,,,,,,,,,,,,,,,,,,,,,,,,,,,,,,,,,,,,,,,,,,,,,,,,,,,,,,,,,,,,,,,,,,,,,,,,,,,,,,,,,,,,,,,,,,,,,,,,,,,,,,,,,,,33,001,0,22,600,600,2022_Oct_28_1231,Experiment,2021.1.4,360.0010080013301,
,,,,,,,,,,,,,,,,,,,,,,,,,,,,,,,,,,,,,,,,,,,,,2,Interested,rating,3.0,17.930308900000455,,,,,,,,,,,,,,,,,,,,,,,,,,,,,,,,,,,,,,,,,,,,,,,,,,,,,,,,,,,,,,,,,,,,,,,,,,,,,,,,,,,,,,,,,,,,,,,,,,,,,,,,,,,,,,,,,,,33,001,0,22,600,600,2022_Oct_28_1231,Experiment,2021.1.4,360.0010080013301,
,,,,,,,,,,,,,,,,,,,,,,,,,,,,,,,,,,,,,,,,,,,,,3,Distressed,rating,1.0,20.00923039999998,,,,,,,,,,,,,,,,,,,,,,,,,,,,,,,,,,,,,,,,,,,,,,,,,,,,,,,,,,,,,,,,,,,,,,,,,,,,,,,,,,,,,,,,,,,,,,,,,,,,,,,,,,,,,,,,,,,33,001,0,22,600,600,2022_Oct_28_1231,Experiment,2021.1.4,360.0010080013301,
,,,,,,,,,,,,,,,,,,,,,,,,,,,,,,,,,,,,,,,,,,,,,4,Excited,rating,1.0,21.712458299999525,,,,,,,,,,,,,,,,,,,,,,,,,,,,,,,,,,,,,,,,,,,,,,,,,,,,,,,,,,,,,,,,,,,,,,,,,,,,,,,,,,,,,,,,,,,,,,,,,,,,,,,,,,,,,,,,,,,33,001,0,22,600,600,2022_Oct_28_1231,Experiment,2021.1.4,360.0010080013301,
,,,,,,,,,,,,,,,,,,,,,,,,,,,,,,,,,,,,,,,,,,,,,5,Upset,rating,1.0,25.98217509999995,,,,,,,,,,,,,,,,,,,,,,,,,,,,,,,,,,,,,,,,,,,,,,,,,,,,,,,,,,,,,,,,,,,,,,,,,,,,,,,,,,,,,,,,,,,,,,,,,,,,,,,,,,,,,,,,,,,33,001,0,22,600,600,2022_Oct_28_1231,Experiment,2021.1.4,360.0010080013301,
,,,,,,,,,,,,,,,,,,,,,,,,,,,,,,,,,,,,,,,,,,,,,6,Strong,rating,2.0,28.475470000000314,,,,,,,,,,,,,,,,,,,,,,,,,,,,,,,,,,,,,,,,,,,,,,,,,,,,,,,,,,,,,,,,,,,,,,,,,,,,,,,,,,,,,,,,,,,,,,,,,,,,,,,,,,,,,,,,,,,33,001,0,22,600,600,2022_Oct_28_1231,Experiment,2021.1.4,360.0010080013301,
,,,,,,,,,,,,,,,,,,,,,,,,,,,,,,,,,,,,,,,,,,,,,7,Guilty,rating,1.0,6.8416777000002185,,,,,,,,,,,,,,,,,,,,,,,,,,,,,,,,,,,,,,,,,,,,,,,,,,,,,,,,,,,,,,,,,,,,,,,,,,,,,,,,,,,,,,,,,,,,,,,,,,,,,,,,,,,,,,,,,,,33,001,0,22,600,600,2022_Oct_28_1231,Experiment,2021.1.4,360.0010080013301,
,,,,,,,,,,,,,,,,,,,,,,,,,,,,,,,,,,,,,,,,,,,,,8,Scared,rating,1.0,8.019108399999823,,,,,,,,,,,,,,,,,,,,,,,,,,,,,,,,,,,,,,,,,,,,,,,,,,,,,,,,,,,,,,,,,,,,,,,,,,,,,,,,,,,,,,,,,,,,,,,,,,,,,,,,,,,,,,,,,,,33,001,0,22,600,600,2022_Oct_28_1231,Experiment,2021.1.4,360.0010080013301,
,,,,,,,,,,,,,,,,,,,,,,,,,,,,,,,,,,,,,,,,,,,,,9,Hostile,rating,1.0,7.179888399999982,,,,,,,,,,,,,,,,,,,,,,,,,,,,,,,,,,,,,,,,,,,,,,,,,,,,,,,,,,,,,,,,,,,,,,,,,,,,,,,,,,,,,,,,,,,,,,,,,,,,,,,,,,,,,,,,,,,33,001,0,22,600,600,2022_Oct_28_1231,Experiment,2021.1.4,360.0010080013301,
,,,,,,,,,,,,,,,,,,,,,,,,,,,,,,,,,,,,,,,,,,,,,10,Enthusiastic,rating,2.0,5.2847609000000375,,,,,,,,,,,,,,,,,,,,,,,,,,,,,,,,,,,,,,,,,,,,,,,,,,,,,,,,,,,,,,,,,,,,,,,,,,,,,,,,,,,,,,,,,,,,,,,,,,,,,,,,,,,,,,,,,,,33,001,0,22,600,600,2022_Oct_28_1231,Experiment,2021.1.4,360.0010080013301,
,,,,,,,,,,,,,,,,,,,,,,,,,,,,,,,,,,,,,,,,,,,,,11,Proud,rating,1.0,5.430964799999856,,,,,,,,,,,,,,,,,,,,,,,,,,,,,,,,,,,,,,,,,,,,,,,,,,,,,,,,,,,,,,,,,,,,,,,,,,,,,,,,,,,,,,,,,,,,,,,,,,,,,,,,,,,,,,,,,,,33,001,0,22,600,600,2022_Oct_28_1231,Experiment,2021.1.4,360.0010080013301,
,,,,,,,,,,,,,,,,,,,,,,,,,,,,,,,,,,,,,,,,,,,,,12,Irritable,rating,1.0,5.011763400000746,,,,,,,,,,,,,,,,,,,,,,,,,,,,,,,,,,,,,,,,,,,,,,,,,,,,,,,,,,,,,,,,,,,,,,,,,,,,,,,,,,,,,,,,,,,,,,,,,,,,,,,,,,,,,,,,,,,33,001,0,22,600,600,2022_Oct_28_1231,Experiment,2021.1.4,360.0010080013301,
,,,,,,,,,,,,,,,,,,,,,,,,,,,,,,,,,,,,,,,,,,,,,13,Alert,rating,3.0,5.643244900000354,,,,,,,,,,,,,,,,,,,,,,,,,,,,,,,,,,,,,,,,,,,,,,,,,,,,,,,,,,,,,,,,,,,,,,,,,,,,,,,,,,,,,,,,,,,,,,,,,,,,,,,,,,,,,,,,,,,33,001,0,22,600,600,2022_Oct_28_1231,Experiment,2021.1.4,360.0010080013301,
,,,,,,,,,,,,,,,,,,,,,,,,,,,,,,,,,,,,,,,,,,,,,14,Ashamed,rating,1.0,5.389652900000328,,,,,,,,,,,,,,,,,,,,,,,,,,,,,,,,,,,,,,,,,,,,,,,,,,,,,,,,,,,,,,,,,,,,,,,,,,,,,,,,,,,,,,,,,,,,,,,,,,,,,,,,,,,,,,,,,,,33,001,0,22,600,600,2022_Oct_28_1231,Experiment,2021.1.4,360.0010080013301,
,,,,,,,,,,,,,,,,,,,,,,,,,,,,,,,,,,,,,,,,,,,,,15,Inspired,rating,1.0,6.656770599999618,,,,,,,,,,,,,,,,,,,,,,,,,,,,,,,,,,,,,,,,,,,,,,,,,,,,,,,,,,,,,,,,,,,,,,,,,,,,,,,,,,,,,,,,,,,,,,,,,,,,,,,,,,,,,,,,,,,33,001,0,22,600,600,2022_Oct_28_1231,Experiment,2021.1.4,360.0010080013301,
,,,,,,,,,,,,,,,,,,,,,,,,,,,,,,,,,,,,,,,,,,,,,16,Nervous,rating,1.0,4.971427199999198,,,,,,,,,,,,,,,,,,,,,,,,,,,,,,,,,,,,,,,,,,,,,,,,,,,,,,,,,,,,,,,,,,,,,,,,,,,,,,,,,,,,,,,,,,,,,,,,,,,,,,,,,,,,,,,,,,,33,001,0,22,600,600,2022_Oct_28_1231,Experiment,2021.1.4,360.0010080013301,
,,,,,,,,,,,,,,,,,,,,,,,,,,,,,,,,,,,,,,,,,,,,,17,Determined,rating,1.0,5.76743179999994,,,,,,,,,,,,,,,,,,,,,,,,,,,,,,,,,,,,,,,,,,,,,,,,,,,,,,,,,,,,,,,,,,,,,,,,,,,,,,,,,,,,,,,,,,,,,,,,,,,,,,,,,,,,,,,,,,,33,001,0,22,600,600,2022_Oct_28_1231,Experiment,2021.1.4,360.0010080013301,
,,,,,,,,,,,,,,,,,,,,,,,,,,,,,,,,,,,,,,,,,,,,,18,Attentive,rating,3.0,5.917970799999239,,,,,,,,,,,,,,,,,,,,,,,,,,,,,,,,,,,,,,,,,,,,,,,,,,,,,,,,,,,,,,,,,,,,,,,,,,,,,,,,,,,,,,,,,,,,,,,,,,,,,,,,,,,,,,,,,,,33,001,0,22,600,600,2022_Oct_28_1231,Experiment,2021.1.4,360.0010080013301,
,,,,,,,,,,,,,,,,,,,,,,,,,,,,,,,,,,,,,,,,,,,,,19,Jittery,rating,1.0,6.0535808999993606,,,,,,,,,,,,,,,,,,,,,,,,,,,,,,,,,,,,,,,,,,,,,,,,,,,,,,,,,,,,,,,,,,,,,,,,,,,,,,,,,,,,,,,,,,,,,,,,,,,,,,,,,,,,,,,,,,,33,001,0,22,600,600,2022_Oct_28_1231,Experiment,2021.1.4,360.0010080013301,
,,,,,,,,,,,,,,,,,,,,,,,,,,,,,,,,,,,,,,,,,,,,,20,Active,rating,2.0,6.672505999999885,,,,,,,,,,,,,,,,,,,,,,,,,,,,,,,,,,,,,,,,,,,,,,,,,,,,,,,,,,,,,,,,,,,,,,,,,,,,,,,,,,,,,,,,,,,,,,,,,,,,,,,,,,,,,,,,,,,33,001,0,22,600,600,2022_Oct_28_1231,Experiment,2021.1.4,360.0010080013301,
,,,,,,,,,,,,,,,,,,,,,,,,,,,,,,,,,,,,,,,,,,,,,21,Afraid,rating,1.0,6.184979599999679,,,,,,,,,,,,,,,,,,,,,,,,,,,,,,,,,,,,,,,,,,,,,,,,,,,,,,,,,,,,,,,,,,,,,,,,,,,,,,,,,,,,,,,,,,,,,,,,,,,,,,,,,,,,,,,,,,,33,001,0,22,600,600,2022_Oct_28_1231,Experiment,2021.1.4,360.0010080013301,
,,,,,,,,,,,,,,,,,,,,,,,,,,,,,,,,,,,,,,,,,,,,,22,Press the + button to submit your answers,description,,,,,,,,,,,,,,,,,,,,,,,,,,,,,,,,,,,,,,,,,,,,,,,,,,,,,,,,,,,,,,,,,,,,,,,,,,,,,,,,,,,,,,,,,,,,,,,,,,,,,,,,,,,,,,,,,,,,,33,001,0,22,600,600,2022_Oct_28_1231,Experiment,2021.1.4,360.0010080013301,
,,,,,,,,,,,,,,,,,,,,,,,,,,,,,,,,,,,,,,,,,,,,,,,,,,num_add,49.04011100000025,47.65760549999959,None,,,,,,,,,,,,,,,,,,,,,,,,,,,,,,,,,,,,,,,,,,,,,,,,,,,,,,,,,,,,,,,,,,,,,,,,,,,,,,,,,,,,,,,,,,,,,,,,,,,,,,,,,,,,,,,33,001,0,22,600,600,2022_Oct_28_1231,Experiment,2021.1.4,360.0010080013301,
,,,,,,,,,,,,,,,,,,,,,,,,,,,,,,,,,,,,,,,,,,,,,,,,,,,,,,96.71759269999984,None,num_add,7.948122499999954,,,,,,,,,,,,,,,,,,,,,,,,,,,,,,,,,,,,,,,,,,,,,,,,,,,,,,,,,,,,,,,,,,,,,,,,,,,,,,,,,,,,,,,,,,,,,,,,,,,,,,,,,,,33,001,0,22,600,600,2022_Oct_28_1231,Experiment,2021.1.4,360.0010080013301,
,,,,,,,,,,,,,,,,,,,,,,,,,,,,,,,,,,,,,,,,,,,,,,,,,,,,,,,,,,104.67063830000006,None,num_add,5.1390630999994755,104.67063830000006,None,,,,,,,,,,,,,,,,,,,,,,,,,,,,,,,,,,,,,,,,,,,,,,,,,,,,,,,,,,,,,,,,,,,,,,,,,,,,,,,,,,,,,,,,,,,,,,,,,,,,,33,001,0,22,600,600,2022_Oct_28_1231,Experiment,2021.1.4,360.0010080013301,
,,,,,,,,,,,,,,,,,,,,,,,,,,,,,,,,,,,,,,,,,,,,,,,,,,,,,,,,,,,,,,,,109.83576409999932,None,num_add,11.254052699999193,,,,,,,,,,,,,,,,,,,,,,,,,,,,,,,,,,,,,,,,,,,,,,,,,,,,,,,,,,,,,,,,,,,,,,,,,,,,,,,,,,,,,,,,,,,,,,,,,33,001,0,22,600,600,2022_Oct_28_1231,Experiment,2021.1.4,360.0010080013301,
,,,,,,,,,,,,,,,,,,,,,,,,,,,,,,,,,,,,,,,,,,,,,,,,,,,,,,,,,,,,,,,,,,,,121.10452780000014,None,space,117.03312879999976,,,,,,,,,,,,,,,,,,,,,,,,,,,,,,,,,,,,,,,,,,,,,,,,,,,,,,,,,,,,,,,,,,,,,,,,,,,,,,,,,,,,,,,,,,,,,33,001,0,22,600,600,2022_Oct_28_1231,Experiment,2021.1.4,360.0010080013301,
images\S22_M_S_03.png,images\S22_M_S_03_scrambled.png,22,Sad,0.3,M,0,0,practice,on,2,0.5,0.75,0.5,0.87,3,,,,,,,,,,,0,0,0,4,,,,,,,,,,,,,,,,,,,,,,,,,,,,,,,,,,,,,,,,,,,238.3405246000002,238.8460071999998,238.8460071999998,239.59866759999932,239.59866759999932,240.10398110000006,240.10398110000006,240.97877209999933,240.97877209999933,None,num_6,0.34360650000053283,240.97877209999933,None,,,,,,,,,,,,,,,,,,,,,,,,,,,,,,,,,,,,,,,,,,,,,,,,,,,,,,,,,,,,,,,,,,,,,,,,,,,,,,,33,001,0,22,600,600,2022_Oct_28_1231,Experiment,2021.1.4,360.0010080013301,
images\S22_M_S_01.png,images\S22_M_S_01_scrambled.png,22,Sad,0.1,M,0,0,practice,on,2,0.5,0.75,0.5,0.867,3,,,,,,,,,,,0,1,1,5,,,,,,,,,,,,,,,,,,,,,,,,,,,,,,,,,,,,,,,,,,,241.4396286000001,241.93949019999945,241.93949019999945,242.6892287999999,242.6892287999999,243.19192649999968,243.19192649999968,244.0639210999998,244.0639210999998,None,num_4,1.0019929999998567,244.0639210999998,None,,,,,,,,,,,,,,,,,,,,,,,,,,,,,,,,,,,,,,,,,,,,,,,,,,,,,,,,,,,,,,,,,,,,,,,,,,,,,,,33,001,0,22,600,600,2022_Oct_28_1231,Experiment,2021.1.4,360.0010080013301,
images\S22_M_H_02.png,images\S22_M_H_02_scrambled.png,22,Happy,-0.2,M,0,0,practice,off,1,0.5,0.75,0.5,0.883,3,,,,,,,,,,,0,2,2,2,,,,,,,,,,,,,,,,,,,,,,,,,,,,,,,,,,,,,,,,,,,245.1801435999996,245.68276779999997,245.68276779999997,246.4325775999996,246.4325775999996,246.93242969999937,246.93242969999937,247.81824229999984,247.81824229999984,None,None,,247.81824229999984,None,,,,,,,,,,,,,,,,,,,,,,,,,,,,,,,,,,,,,,,,,,,,,,,,,,,,,,,,,,,,,,,,,,,,,,,,,,,,,,,33,001,0,22,600,600,2022_Oct_28_1231,Experiment,2021.1.4,360.0010080013301,
images\S21_F_H_02.png,images\S21_F_H_02_scrambled.png,21,Happy,-0.2,F,0,0,practice,off,1,0.5,0.75,0.5,0.91,3,,,,,,,,,,,0,3,3,1,,,,,,,,,,,,,,,,,,,,,,,,,,,,,,,,,,,,,,,,,,,250.92559900000015,251.42824819999987,251.42824819999987,252.1780235999995,252.1780235999995,252.67787279999993,252.67787279999993,253.59428089999983,253.59428089999983,250.92559900000015,num_4,0.1599584000005052,253.59428089999983,250.92559900000015,,,,,,,,,,,,,,,,,,,,,,,,,,,,,,,,,,,,,,,,,,,,,,,,,,,,,,,,,,,,,,,,,,,,,,,,,,,,,,,33,001,0,22,600,600,2022_Oct_28_1231,Experiment,2021.1.4,360.0010080013301,
images\S21_F_H_01.png,images\S21_F_H_01_scrambled.png,21,Happy,-0.1,F,0,0,practice,off,1,0.5,0.75,0.5,0.853,3,,,,,,,,,,,0,4,4,0,,,,,,,,,,,,,,,,,,,,,,,,,,,,,,,,,,,,,,,,,,,253.8691487999995,254.37457730000006,254.37457730000006,255.1271267000002,255.1271267000002,255.62698289999935,255.62698289999935,256.48226650000015,256.48226650000015,None,num_4,0.30421269999988,256.48226650000015,None,,,,,,,,,,,,,,,,,,,,,,,,,,,,,,,,,,,,,,,,,,,,,,,,,,,,,,,,,,,,,,,,,,,,,,,,,,,,,,,33,001,0,22,600,600,2022_Oct_28_1231,Experiment,2021.1.4,360.0010080013301,
images\S22_M_S_03.png,images\S22_M_S_03_scrambled.png,22,Sad,0.3,M,0,0,practice,on,2,0.5,0.75,0.5,0.794,3,,,,,,,,,,,0,5,5,7,,,,,,,,,,,,,,,,,,,,,,,,,,,,,,,,,,,,,,,,,,,256.84045479999986,257.3458682999999,257.3458682999999,258.0985450999997,258.0985450999997,258.60387869999977,258.60387869999977,259.3979927999999,259.3979927999999,None,num_6,2.5960736000006364,259.3979927999999,None,,,,,,,,,,,,,,,,,,,,,,,,,,,,,,,,,,,,,,,,,,,,,,,,,,,,,,,,,,,,,,,,,,,,,,,,,,,,,,,33,001,0,22,600,600,2022_Oct_28_1231,Experiment,2021.1.4,360.0010080013301,
images\S22_M_S_02.png,images\S22_M_S_02_scrambled.png,22,Sad,0.2,M,0,0,practice,on,2,0.5,0.75,0.5,0.783,3,,,,,,,,,,,0,6,6,6,,,,,,,,,,,,,,,,,,,,,,,,,,,,,,,,,,,,,,,,,,,262.1138317999994,262.6136913999999,262.6136913999999,263.36346479999975,263.36346479999975,263.8661228000001,263.8661228000001,264.6547488999995,264.6547488999995,None,num_4,0.38735989999986487,264.6547488999995,None,,,,,,,,,,,,,,,,,,,,,,,,,,,,,,,,,,,,,,,,,,,,,,,,,,,,,,,,,,,,,,,,,,,,,,,,,,,,,,,33,001,0,22,600,600,2022_Oct_28_1231,Experiment,2021.1.4,360.0010080013301,
images\S22_M_S_02.png,images\S22_M_S_02_scrambled.png,22,Sad,0.2,M,0,0,practice,off,1,0.5,0.75,0.5,0.751,3,,,,,,,,,,,0,7,7,3,,,,,,,,,,,,,,,,,,,,,,,,,,,,,,,,,,,,,,,,,,,265.0962405,265.5961073999997,265.5961073999997,266.34873289999996,266.34873289999996,266.8540901999995,266.8540901999995,267.6093972999997,267.6093972999997,None,num_6,0.44062729999950534,267.6093972999997,None,,,,,,,,,,,,,,,,,,,,,,,,,,,,,,,,,,,,,,,,,,,,,,,,,,,,,,,,,,,,,,,,,,,,,,,,,,,,,,,33,001,0,22,600,600,2022_Oct_28_1231,Experiment,2021.1.4,360.0010080013301,
,,,,,,,,,,,,,,,,,,,,,,,,,,,,,,,,,,,,,,,,,,,,,,,,,,,,,,,,,,,,,,,,,,,,,,,,,,,,,,,,,,,,,,268.07865129999936,None,space,104.7709605,,,,,,,,,,,,,,,,,,,,,,,,,,,,,,,,,,,,,,,,,,,,,,,,,,,,,,,,,,,,,,,,,,,,,,,,,,,33,001,0,22,600,600,2022_Oct_28_1231,Experiment,2021.1.4,360.0010080013301,
images\blank.jpg,images\blank.jpg,none,none,none,none,0,,637,on,2,0.5,0.75,0.5,0.851,0,636,1,1,1,3,3,48,192,240,,,,,,0,0,0,0,,,,,,,,,,,,,,,,,,,,,,,,,,,,,,,,,,,,,,,,,,,,,,,,,,,,,,,,,373.3740332999996,373.87666309999986,373.87666309999986,374.6292311999996,374.6292311999996,375.1346360999996,375.1346360999996,375.9871521999994,375.9871521999994,375.9871521999994,None,375.9871521999994,None,miss,1,,378.99731972000023,None,None,378.99731972000023,None,,,,,,,,,,,,,,,,,,,,,,,,,,,,,,,,,,,,,,,,,,,,,,,,,,,,,,33,001,0,22,600,600,2022_Oct_28_1231,Experiment,2021.1.4,360.0010080013301,
images\blank.jpg,images\blank.jpg,none,none,none,none,0,,605,on,2,0.5,0.75,0.5,0.94,0,604,2,2,2,3,3,48,192,240,,,,,,0,1,1,1,,,,,,,,,,,,,,,,,,,,,,,,,,,,,,,,,,,,,,,,,,,,,,,,,,,,,,,,,379.0195159999994,379.5249457,379.5249457,380.2775034999995,380.2775034999995,380.7829947,380.7829947,381.7242765000001,381.7242765000001,381.7242765000001,None,381.7242765000001,379.0195159999994,miss,1,,384.72899545999985,None,None,384.72899545999985,None,,,,,,,,,,,,,,,,,,,,,,,,,,,,,,,,,,,,,,,,,,,,,,,,,,,,,,33,001,0,22,600,600,2022_Oct_28_1231,Experiment,2021.1.4,360.0010080013301,
images\S3_F_H_02.png,images\S3_F_H_02_scrambled.png,3,happy,20,female,5,,254,off,1,0.5,0.75,0.5,0.772,3,253,1,1,1,0,0,0,0,5,,,,,,0,2,2,2,,,,,,,,,,,,,,,,,,,,,,,,,,,,,,,,,,,,,,,,,,,,,,,,,,,,,,,,,384.8958784999995,385.3981426,385.3981426,386.1479097000001,386.1479097000001,386.64775800000007,386.64775800000007,387.4225040000001,387.4225040000001,None,num_4,387.4225040000001,384.8958784999995,happy,1,Happy,388.5693350199995,None,None,388.5693350199995,None,1.131825200000094,,,,,,,,,,,,,,,,,,,,,,,,,,,,,,,,,,,,,,,,,,,,,,,,,,,,,33,001,0,22,600,600,2022_Oct_28_1231,Experiment,2021.1.4,360.0010080013301,
images\S1_F_H_02.png,images\S1_F_H_02_scrambled.png,1,happy,20,female,5,,182,on,2,0.5,0.75,0.5,0.929,3,181,1,1,2,2,2,32,128,165,,,,,,0,3,3,3,,,,,,,,,,,,,,,,,,,,,,,,,,,,,,,,,,,,,,,,,,,,,,,,,,,,,,,,,388.6665482999997,389.16641009999967,389.16641009999967,389.9161537,389.9161537,390.4188420999999,390.4188420999999,391.3546461999995,391.3546461999995,None,num_4,391.3546461999995,None,happy,1,Happy,392.19613567999966,None,None,392.19613567999966,None,0.8238281999992978,,,,,,,,,,,,,,,,,,,,,,,,,,,,,,,,,,,,,,,,,,,,,,,,,,,,,33,001,0,22,600,600,2022_Oct_28_1231,Experiment,2021.1.4,360.0010080013301,
images\S10_M_S_01.png,images\S10_M_S_01_scrambled.png,10,sad,-10,male,3,,598,on,2,0.5,0.75,0.5,0.933,3,597,2,1,1,2,2,32,128,163,,,,,,0,4,4,4,,,,,,,,,,,,,,,,,,,,,,,,,,,,,,,,,,,,,,,,,,,,,,,,,,,,,,,,,392.2821027,392.7849060999997,392.7849060999997,393.5372966999994,393.5372966999994,394.0399341000002,394.0399341000002,394.97293699999955,394.97293699999955,None,num_4,394.97293699999955,None,happy,1,Sad,395.31178695999984,None,None,395.31178695999984,None,0.33335149999948044,,,,,,,,,,,,,,,,,,,,,,,,,,,,,,,,,,,,,,,,,,,,,,,,,,,,,33,001,0,22,600,600,2022_Oct_28_1231,Experiment,2021.1.4,360.0010080013301,
images\S2_M_S_03.png,images\S2_M_S_03_scrambled.png,2,sad,-30,male,1,,252,off,1,0.5,0.75,0.5,0.921,3,251,1,1,1,0,0,0,0,1,,,,,,0,5,5,5,,,,,,,,,,,,,,,,,,,,,,,,,,,,,,,,,,,,,,,,,,,,,,,,,,,,,,,,,395.42559100000017,395.92833149999933,395.92833149999933,396.67800069999976,396.67800069999976,397.1778419000002,397.1778419000002,398.1025603999997,398.1025603999997,None,num_6,398.1025603999997,None,sad,1,Sad,398.56351053999987,None,None,398.56351053999987,None,0.4354620000003706,,,,,,,,,,,,,,,,,,,,,,,,,,,,,,,,,,,,,,,,,,,,,,,,,,,,,33,001,0,22,600,600,2022_Oct_28_1231,Experiment,2021.1.4,360.0010080013301,
images\S5_F_S_03.png,images\S5_F_S_03_scrambled.png,5,sad,-30,female,1,,570,on,2,0.5,0.75,0.5,0.8,3,569,1,1,2,2,2,32,128,161,,,,,,0,6,6,6,,,,,,,,,,,,,,,,,,,,,,,,,,,,,,,,,,,,,,,,,,,,,,,,,,,,,,,,,398.67457250000007,399.1800072999995,399.1800072999995,399.93255379999937,399.93255379999937,400.4324065999999,400.4324065999999,401.2349078999996,401.2349078999996,None,num_6,401.2349078999996,None,sad,1,Sad,401.67652632000005,None,None,401.67652632000005,None,0.43125640000016574,,,,,,,,,,,,,,,,,,,,,,,,,,,,,,,,,,,,,,,,,,,,,,,,,,,,,33,001,0,22,600,600,2022_Oct_28_1231,Experiment,2021.1.4,360.0010080013301,
images\S8_M_H_03.png,images\S8_M_H_03_scrambled.png,8,happy,30,male,6,,585,on,2,0.5,0.75,0.5,0.869,3,584,2,1,1,2,2,32,128,166,,,,,,0,7,7,7,,,,,,,,,,,,,,,,,,,,,,,,,,,,,,,,,,,,,,,,,,,,,,,,,,,,,,,,,401.7847004999994,402.29015739999977,402.29015739999977,403.0427036000001,403.0427036000001,403.54821790000005,403.54821790000005,404.4200600999993,404.4200600999993,None,num_4,404.4200600999993,None,happy,1,Happy,404.8559920600003,None,None,404.8559920600003,None,0.41397169999982,,,,,,,,,,,,,,,,,,,,,,,,,,,,,,,,,,,,,,,,,,,,,,,,,,,,,33,001,0,22,600,600,2022_Oct_28_1231,Experiment,2021.1.4,360.0010080013301,
images\S3_F_H_01.png,images\S3_F_H_01_scrambled.png,3,happy,10,female,4,,133,off,1,0.5,0.75,0.5,0.887,3,132,1,1,1,0,0,0,0,4,,,,,,0,8,8,8,,,,,,,,,,,,,,,,,,,,,,,,,,,,,,,,,,,,,,,,,,,,,,,,,,,,,,,,,404.9448714,405.4503063000002,405.4503063000002,406.2028475999996,406.2028475999996,406.7054339999995,406.7054339999995,407.59965269999975,407.59965269999975,None,num_6,407.59965269999975,None,sad,1,Happy,408.0911320599996,None,None,408.0911320599996,None,0.4823583999996117,,,,,,,,,,,,,,,,,,,,,,,,,,,,,,,,,,,,,,,,,,,,,,,,,,,,,33,001,0,22,600,600,2022_Oct_28_1231,Experiment,2021.1.4,360.0010080013301,
images\blank.jpg,images\blank.jpg,none,none,none,none,0,,649,on,2,0.5,0.75,0.5,0.814,0,648,1,1,1,3,3,48,192,240,,,,,,0,9,9,9,,,,,,,,,,,,,,,,,,,,,,,,,,,,,,,,,,,,,,,,,,,,,,,,,,,,,,,,,408.17485099999976,408.6742561000001,408.6742561000001,409.42687380000007,409.42687380000007,409.9267189000002,409.9267189000002,410.7432168999994,410.7432168999994,410.7432168999994,None,410.7432168999994,None,miss,1,,413.74788045999935,None,None,413.74788045999935,None,,,,,,,,,,,,,,,,,,,,,,,,,,,,,,,,,,,,,,,,,,,,,,,,,,,,,,33,001,0,22,600,600,2022_Oct_28_1231,Experiment,2021.1.4,360.0010080013301,
images\S9_F_H_03.png,images\S9_F_H_03_scrambled.png,9,happy,30,female,6,,171,off,1,0.5,0.75,0.5,0.853,3,170,1,1,1,0,0,0,0,6,,,,,,0,10,10,10,,,,,,,,,,,,,,,,,,,,,,,,,,,,,,,,,,,,,,,,,,,,,,,,,,,,,,,,,413.900705,414.40586919999987,414.40586919999987,415.1585236000001,415.1585236000001,415.66384819999985,415.66384819999985,416.51908939999976,416.51908939999976,None,num_4,416.51908939999976,413.900705,happy,1,Happy,416.98560841999966,None,None,416.98560841999966,None,0.4508983999994598,,,,,,,,,,,,,,,,,,,,,,,,,,,,,,,,,,,,,,,,,,,,,,,,,,,,,33,001,0,22,600,600,2022_Oct_28_1231,Experiment,2021.1.4,360.0010080013301,
images\S8_M_S_01.png,images\S8_M_S_01_scrambled.png,8,sad,-10,male,3,,406,off,1,0.5,0.75,0.5,0.848,3,405,2,1,1,0,0,0,0,3,,,,,,0,11,11,11,,,,,,,,,,,,,,,,,,,,,,,,,,,,,,,,,,,,,,,,,,,,,,,,,,,,,,,,,417.09669479999957,417.59934799999974,417.59934799999974,418.3546742999997,418.3546742999997,418.85738799999945,418.85738799999945,419.7097984000002,419.7097984000002,None,num_4,419.7097984000002,None,happy,1,Sad,420.0402164599998,None,None,420.0402164599998,None,0.32426529999975173,,,,,,,,,,,,,,,,,,,,,,,,,,,,,,,,,,,,,,,,,,,,,,,,,,,,,33,001,0,22,600,600,2022_Oct_28_1231,Experiment,2021.1.4,360.0010080013301,
images\S7_F_S_02.png,images\S7_F_S_02_scrambled.png,7,sad,-20,female,2,,101,on,2,0.5,0.75,0.5,0.775,3,100,1,1,1,2,2,32,128,162,,,,,,0,12,12,12,,,,,,,,,,,,,,,,,,,,,,,,,,,,,,,,,,,,,,,,,,,,,,,,,,,,,,,,,420.1513071999998,420.65398599999935,420.65398599999935,421.4065149999997,421.4065149999997,421.9091486999996,421.9091486999996,422.6838610999994,422.6838610999994,None,num_4,422.6838610999994,None,happy,1,Sad,423.0670764599997,None,None,423.0670764599997,None,0.3743930000000546,,,,,,,,,,,,,,,,,,,,,,,,,,,,,,,,,,,,,,,,,,,,,,,,,,,,,33,001,0,22,600,600,2022_Oct_28_1231,Experiment,2021.1.4,360.0010080013301,
images\S2_M_H_03.png,images\S2_M_H_03_scrambled.png,2,happy,30,male,6,,309,on,2,0.5,0.75,0.5,0.933,3,308,2,1,1,2,2,32,128,166,,,,,,0,13,13,13,,,,,,,,,,,,,,,,,,,,,,,,,,,,,,,,,,,,,,,,,,,,,,,,,,,,,,,,,423.18092590000015,423.68356719999974,423.68356719999974,424.4333154999995,424.4333154999995,424.9388420999994,424.9388420999994,425.8745895000002,425.8745895000002,None,num_4,425.8745895000002,None,happy,1,Happy,426.1050272199996,None,None,426.1050272199996,None,0.21559009999964474,,,,,,,,,,,,,,,,,,,,,,,,,,,,,,,,,,,,,,,,,,,,,,,,,,,,,33,001,0,22,600,600,2022_Oct_28_1231,Experiment,2021.1.4,360.0010080013301,
images\S8_M_S_01.png,images\S8_M_S_01_scrambled.png,8,sad,-10,male,3,,166,off,1,0.5,0.75,0.5,0.872,3,165,1,1,1,0,0,0,0,3,,,,,,0,14,14,14,,,,,,,,,,,,,,,,,,,,,,,,,,,,,,,,,,,,,,,,,,,,,,,,,,,,,,,,,426.1522359999999,426.65488209999967,426.65488209999967,427.4074461,427.4074461,427.9073007999996,427.9073007999996,428.78478799999993,428.78478799999993,None,num_6,428.78478799999993,None,sad,1,Sad,429.20960082000016,None,None,429.20960082000016,None,0.40922520000003715,,,,,,,,,,,,,,,,,,,,,,,,,,,,,,,,,,,,,,,,,,,,,,,,,,,,,33,001,0,22,600,600,2022_Oct_28_1231,Experiment,2021.1.4,360.0010080013301,
images\S3_F_S_03.png,images\S3_F_S_03_scrambled.png,3,sad,-30,female,1,,498,off,1,0.5,0.75,0.5,0.798,3,497,2,1,1,0,0,0,0,1,,,,,,0,15,15,15,,,,,,,,,,,,,,,,,,,,,,,,,,,,,,,,,,,,,,,,,,,,,,,,,,,,,,,,,429.3206989999999,429.8234716999996,429.8234716999996,430.57874660000016,430.57874660000016,431.0841120999994,431.0841120999994,431.8838587,431.8838587,None,num_6,431.8838587,None,sad,1,Sad,432.17548442000003,None,None,432.17548442000003,None,0.2786241000003429,,,,,,,,,,,,,,,,,,,,,,,,,,,,,,,,,,,,,,,,,,,,,,,,,,,,,33,001,0,22,600,600,2022_Oct_28_1231,Experiment,2021.1.4,360.0010080013301,
images\S3_F_H_03.png,images\S3_F_H_03_scrambled.png,3,happy,30,female,6,,375,off,1,0.5,0.75,0.5,0.805,3,374,3,2,1,0,0,0,0,6,,,,,,0,16,16,16,,,,,,,,,,,,,,,,,,,,,,,,,,,,,,,,,,,,,,,,,,,,,,,,,,,,,,,,,432.2864562999994,432.78907660000004,432.78907660000004,433.5416881000001,433.5416881000001,434.04148089999944,434.04148089999944,434.84959399999934,434.84959399999934,None,num_4,434.84959399999934,None,happy,1,Happy,435.12168071999946,None,None,435.12168071999946,None,0.2565952999993897,,,,,,,,,,,,,,,,,,,,,,,,,,,,,,,,,,,,,,,,,,,,,,,,,,,,,33,001,0,22,600,600,2022_Oct_28_1231,Experiment,2021.1.4,360.0010080013301,
images\S2_M_H_01.png,images\S2_M_H_01_scrambled.png,2,happy,10,male,4,,187,on,2,0.5,0.75,0.5,0.927,3,186,1,1,1,2,2,32,128,164,,,,,,0,17,17,17,,,,,,,,,,,,,,,,,,,,,,,,,,,,,,,,,,,,,,,,,,,,,,,,,,,,,,,,,435.2299962999996,435.73265600000013,435.73265600000013,436.4824300999999,436.4824300999999,436.9822825000001,436.9822825000001,437.90974689999985,437.90974689999985,None,num_4,437.90974689999985,None,happy,1,Happy,438.29850473999994,None,None,438.29850473999994,None,0.3643088999997417,,,,,,,,,,,,,,,,,,,,,,,,,,,,,,,,,,,,,,,,,,,,,,,,,,,,,33,001,0,22,600,600,2022_Oct_28_1231,Experiment,2021.1.4,360.0010080013301,
images\S8_M_H_03.png,images\S8_M_H_03_scrambled.png,8,happy,30,male,6,,285,off,1,0.5,0.75,0.5,0.905,3,284,1,1,1,0,0,0,0,6,,,,,,0,18,18,18,,,,,,,,,,,,,,,,,,,,,,,,,,,,,,,,,,,,,,,,,,,,,,,,,,,,,,,,,438.3567501999996,438.85947979999946,438.85947979999946,439.6120208000002,439.6120208000002,440.1118808000001,440.1118808000001,441.0199087000001,441.0199087000001,None,num_4,441.0199087000001,None,happy,1,Happy,441.6169214199995,None,None,441.6169214199995,None,0.5824705000004542,,,,,,,,,,,,,,,,,,,,,,,,,,,,,,,,,,,,,,,,,,,,,,,,,,,,,33,001,0,22,600,600,2022_Oct_28_1231,Experiment,2021.1.4,360.0010080013301,
images\S7_F_S_03.png,images\S7_F_S_03_scrambled.png,7,sad,-30,female,1,,342,on,2,0.5,0.75,0.5,0.867,3,341,1,1,1,2,2,32,128,161,,,,,,0,19,19,19,,,,,,,,,,,,,,,,,,,,,,,,,,,,,,,,,,,,,,,,,,,,,,,,,,,,,,,,,441.7002333999999,442.2028806999997,442.2028806999997,442.95266079999965,442.95266079999965,443.45251049999933,443.45251049999933,444.3244660999999,444.3244660999999,None,num_6,444.3244660999999,None,sad,1,Sad,444.81590936,None,None,444.81590936,None,0.469602300000588,,,,,,,,,,,,,,,,,,,,,,,,,,,,,,,,,,,,,,,,,,,,,,,,,,,,,33,001,0,22,600,600,2022_Oct_28_1231,Experiment,2021.1.4,360.0010080013301,
images\S4_M_S_03.png,images\S4_M_S_03_scrambled.png,4,sad,-30,male,1,,204,on,2,0.5,0.75,0.5,0.846,3,203,2,1,2,2,2,32,128,161,,,,,,0,20,20,20,,,,,,,,,,,,,,,,,,,,,,,,,,,,,,,,,,,,,,,,,,,,,,,,,,,,,,,,,444.9270145999999,445.4296752,445.4296752,446.17941299999984,446.17941299999984,446.6792876999998,446.6792876999998,447.52898670000013,447.52898670000013,None,num_6,447.52898670000013,None,sad,1,Sad,447.9400198999997,None,None,447.9400198999997,None,0.39314869999998336,,,,,,,,,,,,,,,,,,,,,,,,,,,,,,,,,,,,,,,,,,,,,,,,,,,,,33,001,0,22,600,600,2022_Oct_28_1231,Experiment,2021.1.4,360.0010080013301,
images\S4_M_S_01.png,images\S4_M_S_01_scrambled.png,4,sad,-10,male,3,,502,off,1,0.5,0.75,0.5,0.854,3,501,1,2,1,0,0,0,0,3,,,,,,0,21,21,21,,,,,,,,,,,,,,,,,,,,,,,,,,,,,,,,,,,,,,,,,,,,,,,,,,,,,,,,,448.0510626999994,448.5537929000002,448.5537929000002,449.3090508999994,449.3090508999994,449.8116736000002,449.8116736000002,450.6697280999997,450.6697280999997,None,num_6,450.6697280999997,None,sad,1,Sad,450.98074082,None,None,450.98074082,None,0.3004540000001725,,,,,,,,,,,,,,,,,,,,,,,,,,,,,,,,,,,,,,,,,,,,,,,,,,,,,33,001,0,22,600,600,2022_Oct_28_1231,Experiment,2021.1.4,360.0010080013301,
images\S7_F_H_01.png,images\S7_F_H_01_scrambled.png,7,happy,10,female,4,,577,on,2,0.5,0.75,0.5,0.858,3,576,1,1,1,2,2,32,128,164,,,,,,0,22,22,22,,,,,,,,,,,,,,,,,,,,,,,,,,,,,,,,,,,,,,,,,,,,,,,,,,,,,,,,,451.08900600000015,451.59444319999966,451.59444319999966,452.34699,452.34699,452.8468535000002,452.8468535000002,453.7076692999999,453.7076692999999,None,num_4,453.7076692999999,None,happy,1,Happy,454.01586515999975,None,None,454.01586515999975,None,0.2864047000002756,,,,,,,,,,,,,,,,,,,,,,,,,,,,,,,,,,,,,,,,,,,,,,,,,,,,,33,001,0,22,600,600,2022_Oct_28_1231,Experiment,2021.1.4,360.0010080013301,
images\S10_M_S_03.png,images\S10_M_S_03_scrambled.png,10,sad,-30,male,1,,420,off,1,0.5,0.75,0.5,0.813,3,419,1,1,1,0,0,0,0,1,,,,,,0,23,23,23,,,,,,,,,,,,,,,,,,,,,,,,,,,,,,,,,,,,,,,,,,,,,,,,,,,,,,,,,454.10474929999964,454.60736819999966,454.60736819999966,455.35993830000007,455.35993830000007,455.8625812,455.8625812,456.6789958999998,456.6789958999998,None,num_6,456.6789958999998,None,sad,1,Sad,457.0538464199995,None,None,457.0538464199995,None,0.3629705000003014,,,,,,,,,,,,,,,,,,,,,,,,,,,,,,,,,,,,,,,,,,,,,,,,,,,,,33,001,0,22,600,600,2022_Oct_28_1231,Experiment,2021.1.4,360.0010080013301,
images\S5_F_S_03.png,images\S5_F_S_03_scrambled.png,5,sad,-30,female,1,,90,on,2,0.5,0.75,0.5,0.929,3,89,1,1,2,2,2,32,128,161,,,,,,0,24,24,24,,,,,,,,,,,,,,,,,,,,,,,,,,,,,,,,,,,,,,,,,,,,,,,,,,,,,,,,,457.0982656999995,457.60374909999973,457.60374909999973,458.35904329999994,458.35904329999994,458.86166890000004,458.86166890000004,459.7946973999997,459.7946973999997,None,num_6,459.7946973999997,None,sad,1,Sad,460.1806999199994,None,None,460.1806999199994,None,0.3754775999996127,,,,,,,,,,,,,,,,,,,,,,,,,,,,,,,,,,,,,,,,,,,,,,,,,,,,,33,001,0,22,600,600,2022_Oct_28_1231,Experiment,2021.1.4,360.0010080013301,
images\S2_M_H_02.png,images\S2_M_H_02_scrambled.png,2,happy,20,male,5,,428,on,2,0.5,0.75,0.5,0.837,3,427,2,1,1,2,2,32,128,165,,,,,,0,25,25,25,,,,,,,,,,,,,,,,,,,,,,,,,,,,,,,,,,,,,,,,,,,,,,,,,,,,,,,,,460.2639597999996,460.76939779999975,460.76939779999975,461.5219456999994,461.5219456999994,462.0245739000002,462.0245739000002,462.86880010000004,462.86880010000004,None,num_4,462.86880010000004,None,happy,1,Happy,463.21589205999976,None,None,463.21589205999976,None,0.32524889999967854,,,,,,,,,,,,,,,,,,,,,,,,,,,,,,,,,,,,,,,,,,,,,,,,,,,,,33,001,0,22,600,600,2022_Oct_28_1231,Experiment,2021.1.4,360.0010080013301,
images\S2_M_S_02.png,images\S2_M_S_02_scrambled.png,2,sad,-20,male,2,,551,on,2,0.5,0.75,0.5,0.773,3,550,3,2,1,2,2,32,128,162,,,,,,0,26,26,26,,,,,,,,,,,,,,,,,,,,,,,,,,,,,,,,,,,,,,,,,,,,,,,,,,,,,,,,,463.3241283999996,463.82956749999994,463.82956749999994,464.5821129999995,464.5821129999995,465.08474489999935,465.08474489999935,465.8622805999994,465.8622805999994,None,num_4,465.8622805999994,None,happy,1,Sad,466.53144895999935,None,None,466.53144895999935,None,0.6600107000003845,,,,,,,,,,,,,,,,,,,,,,,,,,,,,,,,,,,,,,,,,,,,,,,,,,,,,33,001,0,22,600,600,2022_Oct_28_1231,Experiment,2021.1.4,360.0010080013301,
images\S4_M_H_03.png,images\S4_M_H_03_scrambled.png,4,happy,30,male,6,,441,on,2,0.5,0.75,0.5,0.835,3,440,4,1,1,2,2,32,128,166,,,,,,0,27,27,27,,,,,,,,,,,,,,,,,,,,,,,,,,,,,,,,,,,,,,,,,,,,,,,,,,,,,,,,,466.63977410000007,467.14519909999945,467.14519909999945,467.8977482999999,467.8977482999999,468.39759479999975,468.39759479999975,469.23344519999955,469.23344519999955,None,num_4,469.23344519999955,None,happy,1,Happy,469.50002501999967,None,None,469.50002501999967,None,0.2565023999995901,,,,,,,,,,,,,,,,,,,,,,,,,,,,,,,,,,,,,,,,,,,,,,,,,,,,,33,001,0,22,600,600,2022_Oct_28_1231,Experiment,2021.1.4,360.0010080013301,
images\blank.jpg,images\blank.jpg,none,none,none,none,0,,612,on,2,0.5,0.75,0.5,0.766,0,611,5,1,1,3,3,48,192,240,,,,,,0,28,28,28,,,,,,,,,,,,,,,,,,,,,,,,,,,,,,,,,,,,,,,,,,,,,,,,,,,,,,,,,469.5974234999994,470.0998301999998,470.0998301999998,470.85518109999975,470.85518109999975,471.3550243999998,471.3550243999998,472.1214850999995,472.1214850999995,472.1214850999995,None,472.1214850999995,None,miss,1,,475.1232939800001,None,None,475.1232939800001,None,,,,,,,,,,,,,,,,,,,,,,,,,,,,,,,,,,,,,,,,,,,,,,,,,,,,,,33,001,0,22,600,600,2022_Oct_28_1231,Experiment,2021.1.4,360.0010080013301,
images\S5_F_H_01.png,images\S5_F_H_01_scrambled.png,5,happy,10,female,4,,505,off,1,0.5,0.75,0.5,0.815,3,504,1,1,1,0,0,0,0,4,,,,,,0,29,29,29,,,,,,,,,,,,,,,,,,,,,,,,,,,,,,,,,,,,,,,,,,,,,,,,,,,,,,,,,475.29274840000016,475.7925417999995,475.7925417999995,476.5422920000001,476.5422920000001,477.0477041999993,477.0477041999993,477.8696952999999,477.8696952999999,None,num_4,477.8696952999999,475.29274840000016,happy,1,Happy,478.20840422,None,None,478.20840422,None,0.324313400000392,,,,,,,,,,,,,,,,,,,,,,,,,,,,,,,,,,,,,,,,,,,,,,,,,,,,,33,001,0,22,600,600,2022_Oct_28_1231,Experiment,2021.1.4,360.0010080013301,
images\S10_M_H_03.png,images\S10_M_H_03_scrambled.png,10,happy,30,male,6,,357,on,2,0.5,0.75,0.5,0.835,3,356,1,1,1,2,2,32,128,166,,,,,,0,30,30,30,,,,,,,,,,,,,,,,,,,,,,,,,,,,,,,,,,,,,,,,,,,,,,,,,,,,,,,,,478.3167377,478.8193999999994,478.8193999999994,479.5719657999998,479.5719657999998,480.0717608999994,480.0717608999994,480.9132853000001,480.9132853000001,None,num_4,480.9132853000001,None,happy,1,Happy,481.3574870199996,None,None,481.3574870199996,None,0.4326842000000397,,,,,,,,,,,,,,,,,,,,,,,,,,,,,,,,,,,,,,,,,,,,,,,,,,,,,33,001,0,22,600,600,2022_Oct_28_1231,Experiment,2021.1.4,360.0010080013301,
images\S7_F_S_01.png,images\S7_F_S_01_scrambled.png,7,sad,-10,female,3,,340,on,2,0.5,0.75,0.5,0.923,3,339,2,1,1,2,2,32,128,163,,,,,,0,31,31,31,,,,,,,,,,,,,,,,,,,,,,,,,,,,,,,,,,,,,,,,,,,,,,,,,,,,,,,,,481.46576639999967,481.96850989999984,481.96850989999984,482.72094560000005,482.72094560000005,483.22366559999955,483.22366559999955,484.1538897999999,484.1538897999999,None,num_6,484.1538897999999,None,sad,1,Sad,484.50093413999974,None,None,484.50093413999974,None,0.33619009999983973,,,,,,,,,,,,,,,,,,,,,,,,,,,,,,,,,,,,,,,,,,,,,,,,,,,,,33,001,0,22,600,600,2022_Oct_28_1231,Experiment,2021.1.4,360.0010080013301,
images\S9_F_H_01.png,images\S9_F_H_01_scrambled.png,9,happy,10,female,4,,409,off,1,0.5,0.75,0.5,0.886,3,408,1,1,1,0,0,0,0,4,,,,,,0,32,32,32,,,,,,,,,,,,,,,,,,,,,,,,,,,,,,,,,,,,,,,,,,,,,,,,,,,,,,,,,484.6148363000002,485.11744219999946,485.11744219999946,485.8671968999997,485.8671968999997,486.3670809999994,486.3670809999994,487.25567150000006,487.25567150000006,None,num_4,487.25567150000006,None,happy,1,Happy,487.58897701999973,None,None,487.58897701999973,None,0.3226974999997765,,,,,,,,,,,,,,,,,,,,,,,,,,,,,,,,,,,,,,,,,,,,,,,,,,,,,33,001,0,22,600,600,2022_Oct_28_1231,Experiment,2021.1.4,360.0010080013301,
images\S5_F_S_02.png,images\S5_F_S_02_scrambled.png,5,sad,-20,female,2,,29,off,1,0.5,0.75,0.5,0.904,3,28,2,1,1,0,0,0,0,2,,,,,,0,33,33,33,,,,,,,,,,,,,,,,,,,,,,,,,,,,,,,,,,,,,,,,,,,,,,,,,,,,,,,,,487.6999599999999,488.2053887000002,488.2053887000002,488.9579355999995,488.9579355999995,489.4577843999996,489.4577843999996,490.3686822999998,490.3686822999998,None,num_4,490.3686822999998,None,happy,1,Sad,490.63513356,None,None,490.63513356,None,0.25763720000031753,,,,,,,,,,,,,,,,,,,,,,,,,,,,,,,,,,,,,,,,,,,,,,,,,,,,,33,001,0,22,600,600,2022_Oct_28_1231,Experiment,2021.1.4,360.0010080013301,
images\S6_M_S_01.png,images\S6_M_S_01_scrambled.png,6,sad,-10,male,3,,574,on,2,0.5,0.75,0.5,0.943,3,573,1,1,1,2,2,32,128,163,,,,,,0,34,34,34,,,,,,,,,,,,,,,,,,,,,,,,,,,,,,,,,,,,,,,,,,,,,,,,,,,,,,,,,490.7406893999996,491.2434386999994,491.2434386999994,491.99872549999964,491.99872549999964,492.5040965999997,492.5040965999997,493.4538099000001,493.4538099000001,None,num_6,493.4538099000001,None,sad,1,Sad,493.76747742000003,None,None,493.76747742000003,None,0.3004468999997698,,,,,,,,,,,,,,,,,,,,,,,,,,,,,,,,,,,,,,,,,,,,,,,,,,,,,33,001,0,22,600,600,2022_Oct_28_1231,Experiment,2021.1.4,360.0010080013301,
images\S9_F_H_01.png,images\S9_F_H_01_scrambled.png,9,happy,10,female,4,,469,on,2,0.5,0.75,0.5,0.817,3,468,2,1,1,2,2,32,128,164,,,,,,0,35,35,35,,,,,,,,,,,,,,,,,,,,,,,,,,,,,,,,,,,,,,,,,,,,,,,,,,,,,,,,,493.81474660000003,494.31748830000015,494.31748830000015,495.0671666999997,495.0671666999997,495.5670255999994,495.5670255999994,496.3890096999994,496.3890096999994,None,num_4,496.3890096999994,None,happy,1,Happy,496.6721791200003,None,None,496.6721791200003,None,0.2695627000002787,,,,,,,,,,,,,,,,,,,,,,,,,,,,,,,,,,,,,,,,,,,,,,,,,,,,,33,001,0,22,600,600,2022_Oct_28_1231,Experiment,2021.1.4,360.0010080013301,
images\S10_M_S_03.png,images\S10_M_S_03_scrambled.png,10,sad,-30,male,1,,120,on,2,0.5,0.75,0.5,0.829,3,119,3,1,1,2,2,32,128,161,,,,,,0,36,36,36,,,,,,,,,,,,,,,,,,,,,,,,,,,,,,,,,,,,,,,,,,,,,,,,,,,,,,,,,496.7166344999996,497.21648409999943,497.21648409999943,497.9690720999997,497.9690720999997,498.4716957999999,498.4716957999999,499.30475299999944,499.30475299999944,None,num_6,499.30475299999944,None,sad,1,Sad,499.6962675199998,None,None,499.6962675199998,None,0.37756529999933264,,,,,,,,,,,,,,,,,,,,,,,,,,,,,,,,,,,,,,,,,,,,,,,,,,,,,33,001,0,22,600,600,2022_Oct_28_1231,Experiment,2021.1.4,360.0010080013301,
images\S3_F_S_01.png,images\S3_F_S_01_scrambled.png,3,sad,-10,female,3,,496,off,1,0.5,0.75,0.5,0.844,3,495,1,1,1,0,0,0,0,3,,,,,,0,37,37,37,,,,,,,,,,,,,,,,,,,,,,,,,,,,,,,,,,,,,,,,,,,,,,,,,,,,,,,,,499.7795532,500.2794173000002,500.2794173000002,501.03201720000015,501.03201720000015,501.5318583999997,501.5318583999997,502.3788348999997,502.3788348999997,None,num_6,502.3788348999997,None,sad,1,Sad,502.82037582000027,None,None,502.82037582000027,None,0.43115600000055565,,,,,,,,,,,,,,,,,,,,,,,,,,,,,,,,,,,,,,,,,,,,,,,,,,,,,33,001,0,22,600,600,2022_Oct_28_1231,Experiment,2021.1.4,360.0010080013301,
images\S5_F_H_01.png,images\S5_F_H_01_scrambled.png,5,happy,10,female,4,,565,on,2,0.5,0.75,0.5,0.773,3,564,1,1,1,2,2,32,128,164,,,,,,0,38,38,38,,,,,,,,,,,,,,,,,,,,,,,,,,,,,,,,,,,,,,,,,,,,,,,,,,,,,,,,,502.8814038999999,503.3840739999996,503.3840739999996,504.13662229999954,504.13662229999954,504.6392320999994,504.6392320999994,505.4140045999993,505.4140045999993,None,num_4,505.4140045999993,None,happy,1,Happy,505.78053121999943,None,None,505.78053121999943,None,0.35615820000020904,,,,,,,,,,,,,,,,,,,,,,,,,,,,,,,,,,,,,,,,,,,,,,,,,,,,,33,001,0,22,600,600,2022_Oct_28_1231,Experiment,2021.1.4,360.0010080013301,
images\S5_F_H_03.png,images\S5_F_H_03_scrambled.png,5,happy,30,female,6,,27,off,1,0.5,0.75,0.5,0.825,3,26,1,2,1,0,0,0,0,6,,,,,,0,39,39,39,,,,,,,,,,,,,,,,,,,,,,,,,,,,,,,,,,,,,,,,,,,,,,,,,,,,,,,,,505.8887802999998,506.3942433000002,506.3942433000002,507.14681159999964,507.14681159999964,507.64943069999936,507.64943069999936,508.4769400999994,508.4769400999994,None,num_4,508.4769400999994,None,happy,1,Happy,508.83228602000014,None,None,508.83228602000014,None,0.3411884999995891,,,,,,,,,,,,,,,,,,,,,,,,,,,,,,,,,,,,,,,,,,,,,,,,,,,,,33,001,0,22,600,600,2022_Oct_28_1231,Experiment,2021.1.4,360.0010080013301,
images\S1_F_S_02.png,images\S1_F_S_02_scrambled.png,1,sad,-20,female,2,,425,on,2,0.5,0.75,0.5,0.752,3,424,1,1,1,2,2,32,128,162,,,,,,0,40,40,40,,,,,,,,,,,,,,,,,,,,,,,,,,,,,,,,,,,,,,,,,,,,,,,,,,,,,,,,,508.94064249999974,509.44606419999946,509.44606419999946,510.19871499999954,510.19871499999954,510.7040486999995,510.7040486999995,511.45931999999993,511.45931999999993,None,num_6,511.45931999999993,None,sad,1,Sad,511.7369825199999,None,None,511.7369825199999,None,0.2626250999992408,,,,,,,,,,,,,,,,,,,,,,,,,,,,,,,,,,,,,,,,,,,,,,,,,,,,,33,001,0,22,600,600,2022_Oct_28_1231,Experiment,2021.1.4,360.0010080013301,
images\S6_M_S_01.png,images\S6_M_S_01_scrambled.png,6,sad,-10,male,3,,274,off,1,0.5,0.75,0.5,0.925,3,273,1,1,1,0,0,0,0,3,,,,,,0,41,41,41,,,,,,,,,,,,,,,,,,,,,,,,,,,,,,,,,,,,,,,,,,,,,,,,,,,,,,,,,511.7814413999995,512.2841049999997,512.2841049999997,513.0394330999998,513.0394330999998,513.5392691999996,513.5392691999996,514.4695409999995,514.4695409999995,None,num_6,514.4695409999995,None,sad,1,Sad,514.7278619800003,None,None,514.7278619800003,None,0.23690369999985705,,,,,,,,,,,,,,,,,,,,,,,,,,,,,,,,,,,,,,,,,,,,,,,,,,,,,33,001,0,22,600,600,2022_Oct_28_1231,Experiment,2021.1.4,360.0010080013301,
images\blank.jpg,images\blank.jpg,none,none,none,none,0,,621,on,2,0.5,0.75,0.5,0.827,0,620,1,1,1,3,3,48,192,240,,,,,,0,42,42,42,,,,,,,,,,,,,,,,,,,,,,,,,,,,,,,,,,,,,,,,,,,,,,,,,,,,,,,,,514.8140440999996,515.3137147999996,515.3137147999996,516.0690626999994,516.0690626999994,516.5716703999997,516.5716703999997,517.4019736999999,517.4019736999999,517.4019736999999,None,517.4019736999999,None,miss,1,,520.4037977799998,None,None,520.4037977799998,None,,,,,,,,,,,,,,,,,,,,,,,,,,,,,,,,,,,,,,,,,,,,,,,,,,,,,,33,001,0,22,600,600,2022_Oct_28_1231,Experiment,2021.1.4,360.0010080013301,
images\blank.jpg,images\blank.jpg,none,none,none,none,0,,604,on,2,0.5,0.75,0.5,0.878,0,603,2,2,2,3,3,48,192,240,,,,,,0,43,43,43,,,,,,,,,,,,,,,,,,,,,,,,,,,,,,,,,,,,,,,,,,,,,,,,,,,,,,,,,520.4398675000002,520.9425425999998,520.9425425999998,521.6922940999993,521.6922940999993,522.1921625999994,522.1921625999994,523.0696705,523.0696705,523.0696705,None,523.0696705,520.4398675000002,miss,1,,526.0715498799999,None,None,526.0715498799999,None,,,,,,,,,,,,,,,,,,,,,,,,,,,,,,,,,,,,,,,,,,,,,,,,,,,,,,33,001,0,22,600,600,2022_Oct_28_1231,Experiment,2021.1.4,360.0010080013301,
images\S3_F_S_02.png,images\S3_F_S_02_scrambled.png,3,sad,-20,female,2,,377,off,1,0.5,0.75,0.5,0.916,3,376,1,1,1,0,0,0,0,2,,,,,,0,44,44,44,,,,,,,,,,,,,,,,,,,,,,,,,,,,,,,,,,,,,,,,,,,,,,,,,,,,,,,,,526.2244640999998,526.7296529999994,526.7296529999994,527.4821999999995,527.4821999999995,527.9820006,527.9820006,528.9040008000002,528.9040008000002,None,num_6,528.9040008000002,526.2244640999998,sad,1,Sad,529.2621587199998,None,None,529.2621587199998,None,0.345836400000735,,,,,,,,,,,,,,,,,,,,,,,,,,,,,,,,,,,,,,,,,,,,,,,,,,,,,33,001,0,22,600,600,2022_Oct_28_1231,Experiment,2021.1.4,360.0010080013301,
images\blank.jpg,images\blank.jpg,none,none,none,none,0,,617,on,2,0.5,0.75,0.5,0.822,0,616,1,1,1,3,3,48,192,240,,,,,,0,45,45,45,,,,,,,,,,,,,,,,,,,,,,,,,,,,,,,,,,,,,,,,,,,,,,,,,,,,,,,,,529.3428980999997,529.8453463999995,529.8453463999995,530.5950919999996,530.5950919999996,531.0978457000001,531.0978457000001,531.9197109999996,531.9197109999996,531.9197109999996,None,531.9197109999996,None,miss,1,,534.9215369799994,None,None,534.9215369799994,None,,,,,,,,,,,,,,,,,,,,,,,,,,,,,,,,,,,,,,,,,,,,,,,,,,,,,,33,001,0,22,600,600,2022_Oct_28_1231,Experiment,2021.1.4,360.0010080013301,
images\S5_F_H_03.png,images\S5_F_H_03_scrambled.png,5,happy,30,female,6,,507,off,1,0.5,0.75,0.5,0.911,3,506,1,1,1,0,0,0,0,6,,,,,,0,46,46,46,,,,,,,,,,,,,,,,,,,,,,,,,,,,,,,,,,,,,,,,,,,,,,,,,,,,,,,,,535.0328337000001,535.5324945000002,535.5324945000002,536.2822737999995,536.2822737999995,536.7821169999997,536.7821169999997,537.6957044999999,537.6957044999999,None,num_4,537.6957044999999,535.0328337000001,happy,1,Happy,538.0123100799996,None,None,538.0123100799996,None,0.2985534999997981,,,,,,,,,,,,,,,,,,,,,,,,,,,,,,,,,,,,,,,,,,,,,,,,,,,,,33,001,0,22,600,600,2022_Oct_28_1231,Experiment,2021.1.4,360.0010080013301,
images\S8_M_S_01.png,images\S8_M_S_01_scrambled.png,8,sad,-10,male,3,,226,on,2,0.5,0.75,0.5,0.941,3,225,1,1,1,2,2,32,128,163,,,,,,0,47,47,47,,,,,,,,,,,,,,,,,,,,,,,,,,,,,,,,,,,,,,,,,,,,,,,,,,,,,,,,,538.0650163,538.5676696999999,538.5676696999999,539.3174436999998,539.3174436999998,539.8172964999994,539.8172964999994,540.7642378,540.7642378,None,num_6,540.7642378,None,sad,1,Sad,541.20574066,None,None,541.20574066,None,0.4216237999999066,,,,,,,,,,,,,,,,,,,,,,,,,,,,,,,,,,,,,,,,,,,,,,,,,,,,,33,001,0,22,600,600,2022_Oct_28_1231,Experiment,2021.1.4,360.0010080013301,
images\S9_F_H_02.png,images\S9_F_H_02_scrambled.png,9,happy,20,female,5,,470,on,2,0.5,0.75,0.5,0.942,3,469,2,1,1,2,2,32,128,165,,,,,,0,48,48,48,,,,,,,,,,,,,,,,,,,,,,,,,,,,,,,,,,,,,,,,,,,,,,,,,,,,,,,,,541.2918052999994,541.7944362999997,541.7944362999997,542.5470145999998,542.5470145999998,543.0468771999995,543.0468771999995,543.9938038,543.9938038,None,num_4,543.9938038,None,happy,1,Happy,544.32140026,None,None,544.32140026,None,0.3040240000000267,,,,,,,,,,,,,,,,,,,,,,,,,,,,,,,,,,,,,,,,,,,,,,,,,,,,,33,001,0,22,600,600,2022_Oct_28_1231,Experiment,2021.1.4,360.0010080013301,
images\S9_F_H_01.png,images\S9_F_H_01_scrambled.png,9,happy,10,female,4,,169,off,1,0.5,0.75,0.5,0.856,3,168,1,2,1,0,0,0,0,4,,,,,,0,49,49,49,,,,,,,,,,,,,,,,,,,,,,,,,,,,,,,,,,,,,,,,,,,,,,,,,,,,,,,,,544.3741891,544.8796260999998,544.8796260999998,545.6321748999999,545.6321748999999,546.1320431999993,546.1320431999993,546.9900773999998,546.9900773999998,None,num_4,546.9900773999998,None,happy,1,Happy,547.6814795199995,None,None,547.6814795199995,None,0.6759423999992578,,,,,,,,,,,,,,,,,,,,,,,,,,,,,,,,,,,,,,,,,,,,,,,,,,,,,33,001,0,22,600,600,2022_Oct_28_1231,Experiment,2021.1.4,360.0010080013301,
images\S2_M_H_02.png,images\S2_M_H_02_scrambled.png,2,happy,20,male,5,,548,on,2,0.5,0.75,0.5,0.785,3,547,1,1,1,2,2,32,128,165,,,,,,0,50,50,50,,,,,,,,,,,,,,,,,,,,,,,,,,,,,,,,,,,,,,,,,,,,,,,,,,,,,,,,,547.7287108999999,548.2342079999999,548.2342079999999,548.9894827999997,548.9894827999997,549.4893108999995,549.4893108999995,550.2779401999996,550.2779401999996,None,num_4,550.2779401999996,None,happy,1,Happy,550.6889065199999,None,None,550.6889065199999,None,0.3962704000005033,,,,,,,,,,,,,,,,,,,,,,,,,,,,,,,,,,,,,,,,,,,,,,,,,,,,,33,001,0,22,600,600,2022_Oct_28_1231,Experiment,2021.1.4,360.0010080013301,
images\S5_F_S_01.png,images\S5_F_S_01_scrambled.png,5,sad,-10,female,3,,268,off,1,0.5,0.75,0.5,0.792,3,267,1,1,1,0,0,0,0,3,,,,,,0,51,51,51,,,,,,,,,,,,,,,,,,,,,,,,,,,,,,,,,,,,,,,,,,,,,,,,,,,,,,,,,550.7694422999994,551.2748688000001,551.2748688000001,552.0274154999997,552.0274154999997,552.5272722,552.5272722,553.3186649999998,553.3186649999998,None,num_4,553.3186649999998,None,happy,1,Sad,553.6241797599994,None,None,553.6241797599994,None,0.2996087000001353,,,,,,,,,,,,,,,,,,,,,,,,,,,,,,,,,,,,,,,,,,,,,,,,,,,,,33,001,0,22,600,600,2022_Oct_28_1231,Experiment,2021.1.4,360.0010080013301,
images\S4_M_S_02.png,images\S4_M_S_02_scrambled.png,4,sad,-20,male,2,,443,on,2,0.5,0.75,0.5,0.894,3,442,1,1,1,2,2,32,128,162,,,,,,0,52,52,52,,,,,,,,,,,,,,,,,,,,,,,,,,,,,,,,,,,,,,,,,,,,,,,,,,,,,,,,,553.7351976,554.2350135999995,554.2350135999995,554.9876201999996,554.9876201999996,555.4874764999995,555.4874764999995,556.3844232000001,556.3844232000001,None,num_6,556.3844232000001,None,sad,1,Sad,556.7009984000001,None,None,556.7009984000001,None,0.29736380000031204,,,,,,,,,,,,,,,,,,,,,,,,,,,,,,,,,,,,,,,,,,,,,,,,,,,,,33,001,0,22,600,600,2022_Oct_28_1231,Experiment,2021.1.4,360.0010080013301,
images\S7_F_S_01.png,images\S7_F_S_01_scrambled.png,7,sad,-10,female,3,,460,on,2,0.5,0.75,0.5,0.865,3,459,2,1,1,2,2,32,128,163,,,,,,0,53,53,53,,,,,,,,,,,,,,,,,,,,,,,,,,,,,,,,,,,,,,,,,,,,,,,,,,,,,,,,,556.7481717999999,557.2480316000001,557.2480316000001,557.9978019,557.9978019,558.4976585999993,558.4976585999993,559.3696092999999,559.3696092999999,None,num_6,559.3696092999999,None,sad,1,Sad,559.6222796199996,None,None,559.6222796199996,None,0.24046109999926557,,,,,,,,,,,,,,,,,,,,,,,,,,,,,,,,,,,,,,,,,,,,,,,,,,,,,33,001,0,22,600,600,2022_Oct_28_1231,Experiment,2021.1.4,360.0010080013301,
images\S10_M_H_02.png,images\S10_M_H_02_scrambled.png,10,happy,20,male,5,,56,off,1,0.5,0.75,0.5,0.898,3,55,1,1,1,0,0,0,0,5,,,,,,0,54,54,54,,,,,,,,,,,,,,,,,,,,,,,,,,,,,,,,,,,,,,,,,,,,,,,,,,,,,,,,,559.7305753999999,560.2333401999995,560.2333401999995,560.9829916999997,560.9829916999997,561.4828324999999,561.4828324999999,562.3853296999996,562.3853296999996,None,num_4,562.3853296999996,None,happy,1,Happy,562.6490976199999,None,None,562.6490976199999,None,0.24878119999993942,,,,,,,,,,,,,,,,,,,,,,,,,,,,,,,,,,,,,,,,,,,,,,,,,,,,,33,001,0,22,600,600,2022_Oct_28_1231,Experiment,2021.1.4,360.0010080013301,
images\S1_F_S_02.png,images\S1_F_S_02_scrambled.png,1,sad,-20,female,2,,245,off,1,0.5,0.75,0.5,0.869,3,244,2,1,1,0,0,0,0,2,,,,,,0,55,55,55,,,,,,,,,,,,,,,,,,,,,,,,,,,,,,,,,,,,,,,,,,,,,,,,,,,,,,,,,562.6935500999998,563.1934154999999,563.1934154999999,563.9487761,563.9487761,564.4541798,564.4541798,565.3289053999997,565.3289053999997,None,num_6,565.3289053999997,None,sad,1,Sad,565.57596296,None,None,565.57596296,None,0.2251877999997305,,,,,,,,,,,,,,,,,,,,,,,,,,,,,,,,,,,,,,,,,,,,,,,,,,,,,33,001,0,22,600,600,2022_Oct_28_1231,Experiment,2021.1.4,360.0010080013301,
images\blank.jpg,images\blank.jpg,none,none,none,none,0,,622,on,2,0.5,0.75,0.5,0.763,0,621,1,1,1,3,3,48,192,240,,,,,,0,56,56,56,,,,,,,,,,,,,,,,,,,,,,,,,,,,,,,,,,,,,,,,,,,,,,,,,,,,,,,,,565.6650400999997,566.1647095999997,566.1647095999997,566.9172741000002,566.9172741000002,567.4170969999996,567.4170969999996,568.1808246,568.1808246,568.1808246,None,568.1808246,None,miss,1,,571.1827323599998,None,None,571.1827323599998,None,,,,,,,,,,,,,,,,,,,,,,,,,,,,,,,,,,,,,,,,,,,,,,,,,,,,,,33,001,0,22,600,600,2022_Oct_28_1231,Experiment,2021.1.4,360.0010080013301,
images\S3_F_S_02.png,images\S3_F_S_02_scrambled.png,3,sad,-20,female,2,,77,on,2,0.5,0.75,0.5,0.781,3,76,2,1,1,2,2,32,128,162,,,,,,0,57,57,57,,,,,,,,,,,,,,,,,,,,,,,,,,,,,,,,,,,,,,,,,,,,,,,,,,,,,,,,,571.3077839999996,571.8074182999999,571.8074182999999,572.5572228000001,572.5572228000001,573.0570742,573.0570742,573.8401446999997,573.8401446999997,None,num_6,573.8401446999997,571.3077839999996,sad,1,Sad,574.1233376399997,None,None,574.1233376399997,None,0.2578103000005285,,,,,,,,,,,,,,,,,,,,,,,,,,,,,,,,,,,,,,,,,,,,,,,,,,,,,33,001,0,22,600,600,2022_Oct_28_1231,Experiment,2021.1.4,360.0010080013301,
images\S5_F_S_02.png,images\S5_F_S_02_scrambled.png,5,sad,-20,female,2,,269,off,1,0.5,0.75,0.5,0.768,3,268,1,1,2,0,0,0,0,2,,,,,,0,58,58,58,,,,,,,,,,,,,,,,,,,,,,,,,,,,,,,,,,,,,,,,,,,,,,,,,,,,,,,,,574.1733513999998,574.6732217999997,574.6732217999997,575.4286438999998,575.4286438999998,575.9339767000001,575.9339767000001,576.7087480999999,576.7087480999999,None,num_6,576.7087480999999,None,sad,1,Sad,577.1003192200002,None,None,577.1003192200002,None,0.3733684999997422,,,,,,,,,,,,,,,,,,,,,,,,,,,,,,,,,,,,,,,,,,,,,,,,,,,,,33,001,0,22,600,600,2022_Oct_28_1231,Experiment,2021.1.4,360.0010080013301,
images\S8_M_S_03.png,images\S8_M_S_03_scrambled.png,8,sad,-30,male,1,,348,on,2,0.5,0.75,0.5,0.79,3,347,1,1,1,2,2,32,128,161,,,,,,0,59,59,59,,,,,,,,,,,,,,,,,,,,,,,,,,,,,,,,,,,,,,,,,,,,,,,,,,,,,,,,,577.1835421999995,577.6861670999997,577.6861670999997,578.4387495999999,578.4387495999999,578.9413822999995,578.9413822999995,579.7355496,579.7355496,None,num_6,579.7355496,None,sad,1,Sad,580.1214910200002,None,None,580.1214910200002,None,0.37040430000070046,,,,,,,,,,,,,,,,,,,,,,,,,,,,,,,,,,,,,,,,,,,,,,,,,,,,,33,001,0,22,600,600,2022_Oct_28_1231,Experiment,2021.1.4,360.0010080013301,
images\S4_M_S_03.png,images\S4_M_S_03_scrambled.png,4,sad,-30,male,1,,84,on,2,0.5,0.75,0.5,0.9,3,83,2,1,2,2,2,32,128,161,,,,,,0,60,60,60,,,,,,,,,,,,,,,,,,,,,,,,,,,,,,,,,,,,,,,,,,,,,,,,,,,,,,,,,580.1659530999996,580.6686966999996,580.6686966999996,581.4239312,581.4239312,581.9265712999995,581.9265712999995,582.8290590999995,582.8290590999995,None,num_6,582.8290590999995,None,sad,1,Sad,583.1677978200001,None,None,583.1677978200001,None,0.32490259999940463,,,,,,,,,,,,,,,,,,,,,,,,,,,,,,,,,,,,,,,,,,,,,,,,,,,,,33,001,0,22,600,600,2022_Oct_28_1231,Experiment,2021.1.4,360.0010080013301,
images\S9_F_H_03.png,images\S9_F_H_03_scrambled.png,9,happy,30,female,6,,51,off,1,0.5,0.75,0.5,0.906,3,50,1,1,1,0,0,0,0,6,,,,,,0,61,61,61,,,,,,,,,,,,,,,,,,,,,,,,,,,,,,,,,,,,,,,,,,,,,,,,,,,,,,,,,583.2122404000002,583.7148852999999,583.7148852999999,584.4674457000001,584.4674457000001,584.9700681999993,584.9700681999993,585.8782242999996,585.8782242999996,None,num_4,585.8782242999996,None,happy,1,Happy,585.9502283199996,None,None,585.9502283199996,None,0.059804800000165415,,,,,,,,,,,,,,,,,,,,,,,,,,,,,,,,,,,,,,,,,,,,,,,,,,,,,33,001,0,22,600,600,2022_Oct_28_1231,Experiment,2021.1.4,360.0010080013301,
images\S9_F_S_02.png,images\S9_F_S_02_scrambled.png,9,sad,-20,female,2,,113,on,2,0.5,0.75,0.5,0.805,3,112,1,2,1,2,2,32,128,162,,,,,,0,62,62,62,,,,,,,,,,,,,,,,,,,,,,,,,,,,,,,,,,,,,,,,,,,,,,,,,,,,,,,,,586.0363738999995,586.5390288999997,586.5390288999997,587.2943569999998,587.2943569999998,587.7941995000001,587.7941995000001,588.5994780999999,588.5994780999999,None,num_4,588.5994780999999,None,happy,1,Sad,588.8910857600001,None,None,588.8910857600001,None,0.28271459999996296,,,,,,,,,,,,,,,,,,,,,,,,,,,,,,,,,,,,,,,,,,,,,,,,,,,,,33,001,0,22,600,600,2022_Oct_28_1231,Experiment,2021.1.4,360.0010080013301,
images\S2_M_S_03.png,images\S2_M_S_03_scrambled.png,2,sad,-30,male,1,,132,off,1,0.5,0.75,0.5,0.817,3,131,1,1,1,0,0,0,0,1,,,,,,0,63,63,63,,,,,,,,,,,,,,,,,,,,,,,,,,,,,,,,,,,,,,,,,,,,,,,,,,,,,,,,,588.9354773999994,589.4381226999994,589.4381226999994,590.1878712999996,590.1878712999996,590.6877442999994,590.6877442999994,591.5069598,591.5069598,None,num_6,591.5069598,None,sad,1,Sad,591.8124703199998,None,None,591.8124703199998,None,0.2950033999995867,,,,,,,,,,,,,,,,,,,,,,,,,,,,,,,,,,,,,,,,,,,,,,,,,,,,,33,001,0,22,600,600,2022_Oct_28_1231,Experiment,2021.1.4,360.0010080013301,
images\S3_F_H_02.png,images\S3_F_H_02_scrambled.png,3,happy,20,female,5,,374,off,1,0.5,0.75,0.5,0.877,3,373,2,1,1,0,0,0,0,5,,,,,,0,64,64,64,,,,,,,,,,,,,,,,,,,,,,,,,,,,,,,,,,,,,,,,,,,,,,,,,,,,,,,,,591.8650690999993,592.3677812999995,592.3677812999995,593.1175508999995,593.1175508999995,593.6173649000002,593.6173649000002,594.4976802000001,594.4976802000001,None,num_4,594.4976802000001,None,happy,1,Happy,594.7808859200001,None,None,594.7808859200001,None,0.2723023999997167,,,,,,,,,,,,,,,,,,,,,,,,,,,,,,,,,,,,,,,,,,,,,,,,,,,,,33,001,0,22,600,600,2022_Oct_28_1231,Experiment,2021.1.4,360.0010080013301,
images\S2_M_H_01.png,images\S2_M_H_01_scrambled.png,2,happy,10,male,4,,487,off,1,0.5,0.75,0.5,0.926,3,486,3,1,1,0,0,0,0,4,,,,,,0,65,65,65,,,,,,,,,,,,,,,,,,,,,,,,,,,,,,,,,,,,,,,,,,,,,,,,,,,,,,,,,594.8308232999998,595.3335816999997,595.3335816999997,596.088874,596.088874,596.5914947000001,596.5914947000001,597.5245366999998,597.5245366999998,None,num_4,597.5245366999998,None,happy,1,Happy,597.77994722,None,None,597.77994722,None,0.24504930000057357,,,,,,,,,,,,,,,,,,,,,,,,,,,,,,,,,,,,,,,,,,,,,,,,,,,,,33,001,0,22,600,600,2022_Oct_28_1231,Experiment,2021.1.4,360.0010080013301,
images\blank.jpg,images\blank.jpg,none,none,none,none,0,,648,on,2,0.5,0.75,0.5,0.773,0,647,1,1,1,3,3,48,192,240,,,,,,0,66,66,66,,,,,,,,,,,,,,,,,,,,,,,,,,,,,,,,,,,,,,,,,,,,,,,,,,,,,,,,,597.8801747999996,598.3797663999994,598.3797663999994,599.1351469000001,599.1351469000001,599.6349891,599.6349891,600.4069505999996,600.4069505999996,600.4069505999996,None,600.4069505999996,None,miss,1,,603.4088106799999,None,None,603.4088106799999,None,,,,,,,,,,,,,,,,,,,,,,,,,,,,,,,,,,,,,,,,,,,,,,,,,,,,,,33,001,0,22,600,600,2022_Oct_28_1231,Experiment,2021.1.4,360.0010080013301,
images\blank.jpg,images\blank.jpg,none,none,none,none,0,,607,on,2,0.5,0.75,0.5,0.925,0,606,2,2,2,3,3,48,192,240,,,,,,0,67,67,67,,,,,,,,,,,,,,,,,,,,,,,,,,,,,,,,,,,,,,,,,,,,,,,,,,,,,,,,,603.4449095999998,603.9503175,603.9503175,604.7029771999996,604.7029771999996,605.2026853999996,605.2026853999996,606.1274563999996,606.1274563999996,606.1274563999996,None,606.1274563999996,603.4449095999998,miss,1,,609.1292713800002,None,None,609.1292713800002,None,,,,,,,,,,,,,,,,,,,,,,,,,,,,,,,,,,,,,,,,,,,,,,,,,,,,,,33,001,0,22,600,600,2022_Oct_28_1231,Experiment,2021.1.4,360.0010080013301,
images\S6_M_H_01.png,images\S6_M_H_01_scrambled.png,6,happy,10,male,4,,571,on,2,0.5,0.75,0.5,0.849,3,570,3,1,1,2,2,32,128,164,,,,,,0,68,68,68,,,,,,,,,,,,,,,,,,,,,,,,,,,,,,,,,,,,,,,,,,,,,,,,,,,,,,,,,609.3043588,609.8040615999998,609.8040615999998,610.5594161999998,610.5594161999998,611.0592675999997,611.0592675999997,611.9117754999997,611.9117754999997,None,num_4,611.9117754999997,609.3043588,happy,1,Happy,612.2921929199998,None,None,612.2921929199998,None,0.3700610999994751,,,,,,,,,,,,,,,,,,,,,,,,,,,,,,,,,,,,,,,,,,,,,,,,,,,,,33,001,0,22,600,600,2022_Oct_28_1231,Experiment,2021.1.4,360.0010080013301,
images\S9_F_S_02.png,images\S9_F_S_02_scrambled.png,9,sad,-20,female,2,,233,on,2,0.5,0.75,0.5,0.853,3,232,4,1,1,2,2,32,128,162,,,,,,0,69,69,69,,,,,,,,,,,,,,,,,,,,,,,,,,,,,,,,,,,,,,,,,,,,,,,,,,,,,,,,,612.3393817999995,612.8392323999997,612.8392323999997,613.5917856999995,613.5917856999995,614.0916888000002,614.0916888000002,614.9441384000002,614.9441384000002,None,num_4,614.9441384000002,None,happy,1,Sad,615.23564986,None,None,615.23564986,None,0.282213700000284,,,,,,,,,,,,,,,,,,,,,,,,,,,,,,,,,,,,,,,,,,,,,,,,,,,,,33,001,0,22,600,600,2022_Oct_28_1231,Experiment,2021.1.4,360.0010080013301,
images\S8_M_H_01.png,images\S8_M_H_01_scrambled.png,8,happy,10,male,4,,283,off,1,0.5,0.75,0.5,0.885,3,282,1,1,1,0,0,0,0,4,,,,,,0,70,70,70,,,,,,,,,,,,,,,,,,,,,,,,,,,,,,,,,,,,,,,,,,,,,,,,,,,,,,,,,615.3190273,615.8188819999996,615.8188819999996,616.5742190000001,616.5742190000001,617.0740779999996,617.0740779999996,617.962689,617.962689,None,num_6,617.962689,None,sad,1,Happy,618.3763795599996,None,None,618.3763795599996,None,0.4071934000003239,,,,,,,,,,,,,,,,,,,,,,,,,,,,,,,,,,,,,,,,,,,,,,,,,,,,,33,001,0,22,600,600,2022_Oct_28_1231,Experiment,2021.1.4,360.0010080013301,
images\S6_M_S_02.png,images\S6_M_S_02_scrambled.png,6,sad,-20,male,2,,95,on,2,0.5,0.75,0.5,0.765,3,94,1,1,1,2,2,32,128,162,,,,,,0,71,71,71,,,,,,,,,,,,,,,,,,,,,,,,,,,,,,,,,,,,,,,,,,,,,,,,,,,,,,,,,618.4624993999996,618.9651425000002,618.9651425000002,619.7177059999995,619.7177059999995,620.2231954999997,620.2231954999997,620.9923140000001,620.9923140000001,None,num_6,620.9923140000001,None,sad,1,Sad,621.2477507199998,None,None,621.2477507199998,None,0.24167469999974855,,,,,,,,,,,,,,,,,,,,,,,,,,,,,,,,,,,,,,,,,,,,,,,,,,,,,33,001,0,22,600,600,2022_Oct_28_1231,Experiment,2021.1.4,360.0010080013301,
images\S1_F_H_02.png,images\S1_F_H_02_scrambled.png,1,happy,20,female,5,,302,on,2,0.5,0.75,0.5,0.946,3,301,2,1,1,2,2,32,128,165,,,,,,0,72,72,72,,,,,,,,,,,,,,,,,,,,,,,,,,,,,,,,,,,,,,,,,,,,,,,,,,,,,,,,,621.2949761999998,621.7976170000002,621.7976170000002,622.5501491999994,622.5501491999994,623.0499707999998,623.0499707999998,623.9997088,623.9997088,None,num_4,623.9997088,None,happy,1,Happy,624.3163713799999,None,None,624.3163713799999,None,0.2985099000006812,,,,,,,,,,,,,,,,,,,,,,,,,,,,,,,,,,,,,,,,,,,,,,,,,,,,,33,001,0,22,600,600,2022_Oct_28_1231,Experiment,2021.1.4,360.0010080013301,
images\S9_F_H_01.png,images\S9_F_H_01_scrambled.png,9,happy,10,female,4,,289,off,1,0.5,0.75,0.5,0.875,3,288,1,1,1,0,0,0,0,4,,,,,,0,73,73,73,,,,,,,,,,,,,,,,,,,,,,,,,,,,,,,,,,,,,,,,,,,,,,,,,,,,,,,,,624.3662383999999,624.8689190999994,624.8689190999994,625.6242259,625.6242259,626.1268593999994,626.1268593999994,627.0043546999996,627.0043546999996,None,num_4,627.0043546999996,None,happy,1,Happy,627.3208780199999,None,None,627.3208780199999,None,0.301484800000253,,,,,,,,,,,,,,,,,,,,,,,,,,,,,,,,,,,,,,,,,,,,,,,,,,,,,33,001,0,22,600,600,2022_Oct_28_1231,Experiment,2021.1.4,360.0010080013301,
images\S6_M_H_02.png,images\S6_M_H_02_scrambled.png,6,happy,20,male,5,,392,off,1,0.5,0.75,0.5,0.917,3,391,2,1,1,0,0,0,0,5,,,,,,0,74,74,74,,,,,,,,,,,,,,,,,,,,,,,,,,,,,,,,,,,,,,,,,,,,,,,,,,,,,,,,,627.4014263999998,627.9012739,627.9012739,628.6538504999999,628.6538504999999,629.1592436000001,629.1592436000001,630.0811583999994,630.0811583999994,None,num_4,630.0811583999994,None,happy,1,Happy,630.3255331199995,None,None,630.3255331199995,None,0.23273470000003726,,,,,,,,,,,,,,,,,,,,,,,,,,,,,,,,,,,,,,,,,,,,,,,,,,,,,33,001,0,22,600,600,2022_Oct_28_1231,Experiment,2021.1.4,360.0010080013301,
images\S2_M_H_02.png,images\S2_M_H_02_scrambled.png,2,happy,20,male,5,,128,off,1,0.5,0.75,0.5,0.928,3,127,3,1,2,0,0,0,0,5,,,,,,0,75,75,75,,,,,,,,,,,,,,,,,,,,,,,,,,,,,,,,,,,,,,,,,,,,,,,,,,,,,,,,,630.3865770000002,630.8892722,630.8892722,631.6445966000001,631.6445966000001,632.1444333999998,632.1444333999998,633.0746967999994,633.0746967999994,None,num_4,633.0746967999994,None,happy,1,Happy,633.5330182200001,None,None,633.5330182200001,None,0.44775639999988925,,,,,,,,,,,,,,,,,,,,,,,,,,,,,,,,,,,,,,,,,,,,,,,,,,,,,33,001,0,22,600,600,2022_Oct_28_1231,Experiment,2021.1.4,360.0010080013301,
images\S2_M_S_01.png,images\S2_M_S_01_scrambled.png,2,sad,-10,male,3,,370,off,1,0.5,0.75,0.5,0.948,3,369,4,2,1,0,0,0,0,3,,,,,,0,76,76,76,,,,,,,,,,,,,,,,,,,,,,,,,,,,,,,,,,,,,,,,,,,,,,,,,,,,,,,,,633.6383885999994,634.1438318999999,634.1438318999999,634.8991473999995,634.8991473999995,635.4045488000002,635.4045488000002,636.3570321999996,636.3570321999996,None,num_6,636.3570321999996,None,sad,1,Sad,636.7207681200003,None,None,636.7207681200003,None,0.349224000000504,,,,,,,,,,,,,,,,,,,,,,,,,,,,,,,,,,,,,,,,,,,,,,,,,,,,,33,001,0,22,600,600,2022_Oct_28_1231,Experiment,2021.1.4,360.0010080013301,
images\S1_F_H_02.png,images\S1_F_H_02_scrambled.png,1,happy,20,female,5,,62,on,2,0.5,0.75,0.5,0.788,3,61,1,1,1,2,2,32,128,165,,,,,,0,77,77,77,,,,,,,,,,,,,,,,,,,,,,,,,,,,,,,,,,,,,,,,,,,,,,,,,,,,,,,,,636.7652097999999,637.2678533999997,637.2678533999997,638.0203850999997,638.0203850999997,638.5231113,638.5231113,639.3144542999999,639.3144542999999,None,num_4,639.3144542999999,None,happy,1,Happy,639.7893279200003,None,None,639.7893279200003,None,0.46387309999954596,,,,,,,,,,,,,,,,,,,,,,,,,,,,,,,,,,,,,,,,,,,,,,,,,,,,,33,001,0,22,600,600,2022_Oct_28_1231,Experiment,2021.1.4,360.0010080013301,
images\S8_M_H_02.png,images\S8_M_H_02_scrambled.png,8,happy,20,male,5,,344,on,2,0.5,0.75,0.5,0.793,3,343,2,1,2,2,2,32,128,165,,,,,,0,78,78,78,,,,,,,,,,,,,,,,,,,,,,,,,,,,,,,,,,,,,,,,,,,,,,,,,,,,,,,,,639.8725784999997,640.3752214999995,640.3752214999995,641.1277726999997,641.1277726999997,641.6276127000001,641.6276127000001,642.4273800999999,642.4273800999999,None,num_4,642.4273800999999,None,happy,1,Happy,643.0216020200002,None,None,643.0216020200002,None,0.5825666999999157,,,,,,,,,,,,,,,,,,,,,,,,,,,,,,,,,,,,,,,,,,,,,,,,,,,,,33,001,0,22,600,600,2022_Oct_28_1231,Experiment,2021.1.4,360.0010080013301,
images\S7_F_H_03.png,images\S7_F_H_03_scrambled.png,7,happy,30,female,6,,399,off,1,0.5,0.75,0.5,0.875,3,398,1,1,1,0,0,0,0,6,,,,,,0,79,79,79,,,,,,,,,,,,,,,,,,,,,,,,,,,,,,,,,,,,,,,,,,,,,,,,,,,,,,,,,643.1299081999996,643.6325448999996,643.6325448999996,644.3851095999999,644.3851095999999,644.8878151999997,644.8878151999997,645.7652291999993,645.7652291999993,None,num_4,645.7652291999993,None,happy,1,Happy,646.1262059199995,None,None,646.1262059199995,None,0.3486394999999902,,,,,,,,,,,,,,,,,,,,,,,,,,,,,,,,,,,,,,,,,,,,,,,,,,,,,33,001,0,22,600,600,2022_Oct_28_1231,Experiment,2021.1.4,360.0010080013301,
images\blank.jpg,images\blank.jpg,none,none,none,none,0,,629,on,2,0.5,0.75,0.5,0.906,0,628,1,1,1,3,3,48,192,240,,,,,,0,80,80,80,,,,,,,,,,,,,,,,,,,,,,,,,,,,,,,,,,,,,,,,,,,,,,,,,,,,,,,,,646.2069726,646.7093863999999,646.7093863999999,647.4591498999998,647.4591498999998,647.9590178999997,647.9590178999997,648.8642957000002,648.8642957000002,648.8642957000002,None,648.8642957000002,None,miss,1,,651.86902386,None,None,651.86902386,None,,,,,,,,,,,,,,,,,,,,,,,,,,,,,,,,,,,,,,,,,,,,,,,,,,,,,,33,001,0,22,600,600,2022_Oct_28_1231,Experiment,2021.1.4,360.0010080013301,
images\S1_F_H_03.png,images\S1_F_H_03_scrambled.png,1,happy,30,female,6,,303,on,2,0.5,0.75,0.5,0.883,3,302,2,1,1,2,2,32,128,166,,,,,,0,81,81,81,,,,,,,,,,,,,,,,,,,,,,,,,,,,,,,,,,,,,,,,,,,,,,,,,,,,,,,,,652.0189737999999,652.5242780999997,652.5242780999997,653.2768316000002,653.2768316000002,653.7794520999996,653.7794520999996,654.6681417999998,654.6681417999998,None,num_4,654.6681417999998,652.0189737999999,happy,1,Happy,655.03467528,None,None,655.03467528,None,0.3503885000000082,,,,,,,,,,,,,,,,,,,,,,,,,,,,,,,,,,,,,,,,,,,,,,,,,,,,,33,001,0,22,600,600,2022_Oct_28_1231,Experiment,2021.1.4,360.0010080013301,
images\S7_F_S_03.png,images\S7_F_S_03_scrambled.png,7,sad,-30,female,1,,42,off,1,0.5,0.75,0.5,0.789,3,41,1,1,1,0,0,0,0,1,,,,,,0,82,82,82,,,,,,,,,,,,,,,,,,,,,,,,,,,,,,,,,,,,,,,,,,,,,,,,,,,,,,,,,655.0873436000002,655.5899909999998,655.5899909999998,656.3425507000002,656.3425507000002,656.8423825,656.8423825,657.6338317999998,657.6338317999998,None,num_6,657.6338317999998,None,sad,1,Sad,658.0614223199997,None,None,658.0614223199997,None,0.4159688999998252,,,,,,,,,,,,,,,,,,,,,,,,,,,,,,,,,,,,,,,,,,,,,,,,,,,,,33,001,0,22,600,600,2022_Oct_28_1231,Experiment,2021.1.4,360.0010080013301,
images\S8_M_S_03.png,images\S8_M_S_03_scrambled.png,8,sad,-30,male,1,,108,on,2,0.5,0.75,0.5,0.945,3,107,1,1,2,2,2,32,128,161,,,,,,0,83,83,83,,,,,,,,,,,,,,,,,,,,,,,,,,,,,,,,,,,,,,,,,,,,,,,,,,,,,,,,,658.1058567999999,658.6085512,658.6085512,659.3638512999996,659.3638512999996,659.8692387000001,659.8692387000001,660.8189192,660.8189192,None,num_6,660.8189192,None,sad,1,Sad,661.2687883200002,None,None,661.2687883200002,None,0.43889209999997547,,,,,,,,,,,,,,,,,,,,,,,,,,,,,,,,,,,,,,,,,,,,,,,,,,,,,33,001,0,22,600,600,2022_Oct_28_1231,Experiment,2021.1.4,360.0010080013301,
images\S10_M_H_02.png,images\S10_M_H_02_scrambled.png,10,happy,20,male,5,,296,off,1,0.5,0.75,0.5,0.758,3,295,1,1,1,0,0,0,0,5,,,,,,0,84,84,84,,,,,,,,,,,,,,,,,,,,,,,,,,,,,,,,,,,,,,,,,,,,,,,,,,,,,,,,,661.3159789000001,661.8186931999999,661.8186931999999,662.5739833999996,662.5739833999996,663.0766005999994,663.0766005999994,663.83745,663.83745,None,num_4,663.83745,None,happy,1,Happy,664.2733733199999,None,None,664.2733733199999,None,0.4203639999996085,,,,,,,,,,,,,,,,,,,,,,,,,,,,,,,,,,,,,,,,,,,,,,,,,,,,,33,001,0,22,600,600,2022_Oct_28_1231,Experiment,2021.1.4,360.0010080013301,
images\S2_M_H_02.png,images\S2_M_H_02_scrambled.png,2,happy,20,male,5,,248,off,1,0.5,0.75,0.5,0.779,3,247,2,1,2,0,0,0,0,5,,,,,,0,85,85,85,,,,,,,,,,,,,,,,,,,,,,,,,,,,,,,,,,,,,,,,,,,,,,,,,,,,,,,,,664.3178324,664.8177092999995,664.8177092999995,665.5674824999996,665.5674824999996,666.0673345999994,666.0673345999994,666.8504082999998,666.8504082999998,None,num_4,666.8504082999998,None,happy,1,Happy,667.16141742,None,None,667.16141742,None,0.295717699999841,,,,,,,,,,,,,,,,,,,,,,,,,,,,,,,,,,,,,,,,,,,,,,,,,,,,,33,001,0,22,600,600,2022_Oct_28_1231,Experiment,2021.1.4,360.0010080013301,
images\blank.jpg,images\blank.jpg,none,none,none,none,0,,626,on,2,0.5,0.75,0.5,0.879,0,625,1,1,1,3,3,48,192,240,,,,,,0,86,86,86,,,,,,,,,,,,,,,,,,,,,,,,,,,,,,,,,,,,,,,,,,,,,,,,,,,,,,,,,667.2421580999999,667.7445852000001,667.7445852000001,668.4971476000001,668.4971476000001,668.9969917999997,668.9969917999997,669.8772742000001,669.8772742000001,669.8772742000001,None,669.8772742000001,None,miss,1,,672.8819739600001,None,None,672.8819739600001,None,,,,,,,,,,,,,,,,,,,,,,,,,,,,,,,,,,,,,,,,,,,,,,,,,,,,,,33,001,0,22,600,600,2022_Oct_28_1231,Experiment,2021.1.4,360.0010080013301,
images\S7_F_S_01.png,images\S7_F_S_01_scrambled.png,7,sad,-10,female,3,,220,on,2,0.5,0.75,0.5,0.927,3,219,2,1,1,2,2,32,128,163,,,,,,0,87,87,87,,,,,,,,,,,,,,,,,,,,,,,,,,,,,,,,,,,,,,,,,,,,,,,,,,,,,,,,,673.0042844999998,673.5094896,673.5094896,674.2620396000002,674.2620396000002,674.7618868999998,674.7618868999998,675.6921576999994,675.6921576999994,None,num_6,675.6921576999994,673.0042844999998,sad,1,Sad,676.0253398199999,None,None,676.0253398199999,None,0.3179325000000972,,,,,,,,,,,,,,,,,,,,,,,,,,,,,,,,,,,,,,,,,,,,,,,,,,,,,33,001,0,22,600,600,2022_Oct_28_1231,Experiment,2021.1.4,360.0010080013301,
images\S6_M_S_02.png,images\S6_M_S_02_scrambled.png,6,sad,-20,male,2,,575,on,2,0.5,0.75,0.5,0.907,3,574,3,1,1,2,2,32,128,162,,,,,,0,88,88,88,,,,,,,,,,,,,,,,,,,,,,,,,,,,,,,,,,,,,,,,,,,,,,,,,,,,,,,,,676.0864351999999,676.5891112999998,676.5891112999998,677.344419,677.344419,677.8442649999997,677.8442649999997,678.7550852999993,678.7550852999993,None,num_6,678.7550852999993,None,sad,1,Sad,679.0966293199996,None,None,679.0966293199996,None,0.3272735000000466,,,,,,,,,,,,,,,,,,,,,,,,,,,,,,,,,,,,,,,,,,,,,,,,,,,,,33,001,0,22,600,600,2022_Oct_28_1231,Experiment,2021.1.4,360.0010080013301,
images\S4_M_H_03.png,images\S4_M_H_03_scrambled.png,4,happy,30,male,6,,261,off,1,0.5,0.75,0.5,0.819,3,260,1,1,1,0,0,0,0,6,,,,,,0,89,89,89,,,,,,,,,,,,,,,,,,,,,,,,,,,,,,,,,,,,,,,,,,,,,,,,,,,,,,,,,679.1410500000002,679.6437298999999,679.6437298999999,680.3990378999997,680.3990378999997,680.9016698999994,680.9016698999994,681.7236118000001,681.7236118000001,None,num_4,681.7236118000001,None,happy,1,Happy,682.1818314199996,None,None,682.1818314199996,None,0.4462966000000961,,,,,,,,,,,,,,,,,,,,,,,,,,,,,,,,,,,,,,,,,,,,,,,,,,,,,33,001,0,22,600,600,2022_Oct_28_1231,Experiment,2021.1.4,360.0010080013301,
images\S8_M_S_01.png,images\S8_M_S_01_scrambled.png,8,sad,-10,male,3,,526,off,1,0.5,0.75,0.5,0.844,3,525,2,1,1,0,0,0,0,3,,,,,,0,90,90,90,,,,,,,,,,,,,,,,,,,,,,,,,,,,,,,,,,,,,,,,,,,,,,,,,,,,,,,,,682.2262128000002,682.7288927999998,682.7288927999998,683.4841646999994,683.4841646999994,683.9840484999995,683.9840484999995,684.8282105999997,684.8282105999997,None,num_6,684.8282105999997,None,sad,1,Sad,685.2447848199996,None,None,685.2447848199996,None,0.40589529999942897,,,,,,,,,,,,,,,,,,,,,,,,,,,,,,,,,,,,,,,,,,,,,,,,,,,,,33,001,0,22,600,600,2022_Oct_28_1231,Experiment,2021.1.4,360.0010080013301,
images\S7_F_H_02.png,images\S7_F_H_02_scrambled.png,7,happy,20,female,5,,38,off,1,0.5,0.75,0.5,0.861,3,37,3,1,1,0,0,0,0,5,,,,,,0,91,91,91,,,,,,,,,,,,,,,,,,,,,,,,,,,,,,,,,,,,,,,,,,,,,,,,,,,,,,,,,685.3280481000002,685.8335177999998,685.8335177999998,686.5832270999999,686.5832270999999,687.0886844999995,687.0886844999995,687.9522676999995,687.9522676999995,None,num_4,687.9522676999995,None,happy,1,Happy,688.2326823199998,None,None,688.2326823199998,None,0.26592490000075486,,,,,,,,,,,,,,,,,,,,,,,,,,,,,,,,,,,,,,,,,,,,,,,,,,,,,33,001,0,22,600,600,2022_Oct_28_1231,Experiment,2021.1.4,360.0010080013301,
images\S10_M_S_01.png,images\S10_M_S_01_scrambled.png,10,sad,-10,male,3,,478,on,2,0.5,0.75,0.5,0.925,3,477,1,1,1,2,2,32,128,163,,,,,,0,92,92,92,,,,,,,,,,,,,,,,,,,,,,,,,,,,,,,,,,,,,,,,,,,,,,,,,,,,,,,,,688.2771272,688.7769705999999,688.7769705999999,689.5295725999995,689.5295725999995,690.0294097999995,690.0294097999995,690.9568965999997,690.9568965999997,None,num_4,690.9568965999997,None,happy,1,Sad,691.2706817599999,None,None,691.2706817599999,None,0.30895389999932377,,,,,,,,,,,,,,,,,,,,,,,,,,,,,,,,,,,,,,,,,,,,,,,,,,,,,33,001,0,22,600,600,2022_Oct_28_1231,Experiment,2021.1.4,360.0010080013301,
images\S3_F_H_03.png,images\S3_F_H_03_scrambled.png,3,happy,30,female,6,,255,off,1,0.5,0.75,0.5,0.846,3,254,1,1,1,0,0,0,0,6,,,,,,0,93,93,93,,,,,,,,,,,,,,,,,,,,,,,,,,,,,,,,,,,,,,,,,,,,,,,,,,,,,,,,,691.3206344,691.8233630999994,691.8233630999994,692.5786668999999,692.5786668999999,693.0812613999997,693.0812613999997,693.9337731999995,693.9337731999995,None,num_4,693.9337731999995,None,happy,1,Happy,694.3668901199995,None,None,694.3668901199995,None,0.4199707000007038,,,,,,,,,,,,,,,,,,,,,,,,,,,,,,,,,,,,,,,,,,,,,,,,,,,,,33,001,0,22,600,600,2022_Oct_28_1231,Experiment,2021.1.4,360.0010080013301,
images\S2_M_H_01.png,images\S2_M_H_01_scrambled.png,2,happy,10,male,4,,127,off,1,0.5,0.75,0.5,0.751,3,126,2,1,1,0,0,0,0,4,,,,,,0,94,94,94,,,,,,,,,,,,,,,,,,,,,,,,,,,,,,,,,,,,,,,,,,,,,,,,,,,,,,,,,694.4113675999997,694.9140158,694.9140158,695.6665517000001,695.6665517000001,696.1664079000002,696.1664079000002,696.9245041999993,696.9245041999993,None,num_4,696.9245041999993,None,happy,1,Happy,697.4881513199995,None,None,697.4881513199995,None,0.5492839999997159,,,,,,,,,,,,,,,,,,,,,,,,,,,,,,,,,,,,,,,,,,,,,,,,,,,,,33,001,0,22,600,600,2022_Oct_28_1231,Experiment,2021.1.4,360.0010080013301,
images\S3_F_S_01.png,images\S3_F_S_01_scrambled.png,3,sad,-10,female,3,,556,on,2,0.5,0.75,0.5,0.909,3,555,1,1,1,2,2,32,128,163,,,,,,0,95,95,95,,,,,,,,,,,,,,,,,,,,,,,,,,,,,,,,,,,,,,,,,,,,,,,,,,,,,,,,,697.5326169,698.0324558000002,698.0324558000002,698.7822754999997,698.7822754999997,699.2821116999994,699.2821116999994,700.1929328999995,700.1929328999995,None,num_6,700.1929328999995,None,sad,1,Sad,700.5567428199998,None,None,700.5567428199998,None,0.3531155000000581,,,,,,,,,,,,,,,,,,,,,,,,,,,,,,,,,,,,,,,,,,,,,,,,,,,,,33,001,0,22,600,600,2022_Oct_28_1231,Experiment,2021.1.4,360.0010080013301,
images\S1_F_S_02.png,images\S1_F_S_02_scrambled.png,1,sad,-20,female,2,,545,on,2,0.5,0.75,0.5,0.863,3,544,2,1,1,2,2,32,128,162,,,,,,0,96,96,96,,,,,,,,,,,,,,,,,,,,,,,,,,,,,,,,,,,,,,,,,,,,,,,,,,,,,,,,,700.6038926000001,701.1065208999999,701.1065208999999,701.8591157999999,701.8591157999999,702.3589430000002,702.3589430000002,703.2252991999994,703.2252991999994,None,num_6,703.2252991999994,None,sad,1,Sad,703.6223507199999,None,None,703.6223507199999,None,0.3846701000002213,,,,,,,,,,,,,,,,,,,,,,,,,,,,,,,,,,,,,,,,,,,,,,,,,,,,,33,001,0,22,600,600,2022_Oct_28_1231,Experiment,2021.1.4,360.0010080013301,
images\S6_M_S_01.png,images\S6_M_S_01_scrambled.png,6,sad,-10,male,3,,334,on,2,0.5,0.75,0.5,0.922,3,333,3,1,1,2,2,32,128,163,,,,,,0,97,97,97,,,,,,,,,,,,,,,,,,,,,,,,,,,,,,,,,,,,,,,,,,,,,,,,,,,,,,,,,703.6696192999998,704.1750408999997,704.1750408999997,704.9275926999999,704.9275926999999,705.4274286999998,705.4274286999998,706.3493387999997,706.3493387999997,None,num_4,706.3493387999997,None,happy,1,Sad,706.7298036599993,None,None,706.7298036599993,None,0.37252649999936693,,,,,,,,,,,,,,,,,,,,,,,,,,,,,,,,,,,,,,,,,,,,,,,,,,,,,33,001,0,22,600,600,2022_Oct_28_1231,Experiment,2021.1.4,360.0010080013301,
images\S3_F_S_03.png,images\S3_F_S_03_scrambled.png,3,sad,-30,female,1,,138,off,1,0.5,0.75,0.5,0.855,3,137,1,1,1,0,0,0,0,1,,,,,,0,98,98,98,,,,,,,,,,,,,,,,,,,,,,,,,,,,,,,,,,,,,,,,,,,,,,,,,,,,,,,,,706.7908753000002,707.2935785999998,707.2935785999998,708.0488660000001,708.0488660000001,708.5542590999994,708.5542590999994,709.4095176999999,709.4095176999999,None,num_6,709.4095176999999,None,sad,1,Sad,709.8010287200001,None,None,709.8010287200001,None,0.37678520000008575,,,,,,,,,,,,,,,,,,,,,,,,,,,,,,,,,,,,,,,,,,,,,,,,,,,,,33,001,0,22,600,600,2022_Oct_28_1231,Experiment,2021.1.4,360.0010080013301,
images\S8_M_H_01.png,images\S8_M_H_01_scrambled.png,8,happy,10,male,4,,103,on,2,0.5,0.75,0.5,0.78,3,102,1,1,1,2,2,32,128,164,,,,,,0,99,99,99,,,,,,,,,,,,,,,,,,,,,,,,,,,,,,,,,,,,,,,,,,,,,,,,,,,,,,,,,709.8454934000001,710.3482494999998,710.3482494999998,711.0979114000002,711.0979114000002,711.6034301999998,711.6034301999998,712.3836057999997,712.3836057999997,None,num_4,712.3836057999997,None,happy,1,Happy,712.8473239199999,None,None,712.8473239199999,None,0.4502118000000337,,,,,,,,,,,,,,,,,,,,,,,,,,,,,,,,,,,,,,,,,,,,,,,,,,,,,33,001,0,22,600,600,2022_Oct_28_1231,Experiment,2021.1.4,360.0010080013301,
images\S2_M_S_01.png,images\S2_M_S_01_scrambled.png,2,sad,-10,male,3,,310,on,2,0.5,0.75,0.5,0.852,3,309,2,1,1,2,2,32,128,163,,,,,,0,100,100,100,,,,,,,,,,,,,,,,,,,,,,,,,,,,,,,,,,,,,,,,,,,,,,,,,,,,,,,,,712.8917754999993,713.3944044999998,713.3944044999998,714.1497484000001,714.1497484000001,714.6496085999997,714.6496085999997,715.5048900000002,715.5048900000002,None,num_6,715.5048900000002,None,sad,1,Sad,715.9102755199998,None,None,715.9102755199998,None,0.392925600000126,,,,,,,,,,,,,,,,,,,,,,,,,,,,,,,,,,,,,,,,,,,,,,,,,,,,,33,001,0,22,600,600,2022_Oct_28_1231,Experiment,2021.1.4,360.0010080013301,
images\S3_F_H_01.png,images\S3_F_H_01_scrambled.png,3,happy,10,female,4,,553,on,2,0.5,0.75,0.5,0.78,3,552,3,1,1,2,2,32,128,164,,,,,,0,101,101,101,,,,,,,,,,,,,,,,,,,,,,,,,,,,,,,,,,,,,,,,,,,,,,,,,,,,,,,,,715.9713831999998,716.4740455000001,716.4740455000001,717.2266134000001,717.2266134000001,717.7264568999999,717.7264568999999,718.5095259,718.5095259,None,num_6,718.5095259,None,sad,1,Happy,718.8066803600002,None,None,718.8066803600002,None,0.29238679999980377,,,,,,,,,,,,,,,,,,,,,,,,,,,,,,,,,,,,,,,,,,,,,,,,,,,,,33,001,0,22,600,600,2022_Oct_28_1231,Experiment,2021.1.4,360.0010080013301,
images\S8_M_S_03.png,images\S8_M_S_03_scrambled.png,8,sad,-30,male,1,,408,off,1,0.5,0.75,0.5,0.89,3,407,1,1,1,0,0,0,0,1,,,,,,0,102,102,102,,,,,,,,,,,,,,,,,,,,,,,,,,,,,,,,,,,,,,,,,,,,,,,,,,,,,,,,,718.8538290999995,719.3592718,719.3592718,720.1118206000001,720.1118206000001,720.6116676000001,720.6116676000001,721.5086302,721.5086302,None,num_6,721.5086302,None,sad,1,Sad,721.8806127200002,None,None,721.8806127200002,None,0.35767289999967034,,,,,,,,,,,,,,,,,,,,,,,,,,,,,,,,,,,,,,,,,,,,,,,,,,,,,33,001,0,22,600,600,2022_Oct_28_1231,Experiment,2021.1.4,360.0010080013301,
images\S10_M_S_01.png,images\S10_M_S_01_scrambled.png,10,sad,-10,male,3,,418,off,1,0.5,0.75,0.5,0.842,3,417,2,1,1,0,0,0,0,3,,,,,,0,103,103,103,,,,,,,,,,,,,,,,,,,,,,,,,,,,,,,,,,,,,,,,,,,,,,,,,,,,,,,,,721.9417658000002,722.4444189999995,722.4444189999995,723.1969777999993,723.1969777999993,723.6968238999998,723.6968238999998,724.5437938999994,724.5437938999994,None,num_4,724.5437938999994,None,happy,1,Sad,724.8575127599995,None,None,724.8575127599995,None,0.30603359999986424,,,,,,,,,,,,,,,,,,,,,,,,,,,,,,,,,,,,,,,,,,,,,,,,,,,,,33,001,0,22,600,600,2022_Oct_28_1231,Experiment,2021.1.4,360.0010080013301,
images\S10_M_H_03.png,images\S10_M_H_03_scrambled.png,10,happy,30,male,6,,297,off,1,0.5,0.75,0.5,0.753,3,296,3,2,1,0,0,0,0,6,,,,,,0,104,104,104,,,,,,,,,,,,,,,,,,,,,,,,,,,,,,,,,,,,,,,,,,,,,,,,,,,,,,,,,724.9019695999996,725.4046219000002,725.4046219000002,726.1571782999999,726.1571782999999,726.6570284999998,726.6570284999998,727.4151677,727.4151677,None,num_4,727.4151677,None,happy,1,Happy,727.8954750199997,None,None,727.8954750199997,None,0.4668535000000702,,,,,,,,,,,,,,,,,,,,,,,,,,,,,,,,,,,,,,,,,,,,,,,,,,,,,33,001,0,22,600,600,2022_Oct_28_1231,Experiment,2021.1.4,360.0010080013301,
images\S5_F_H_03.png,images\S5_F_H_03_scrambled.png,5,happy,30,female,6,,207,on,2,0.5,0.75,0.5,0.801,3,206,1,1,2,2,2,32,128,166,,,,,,0,105,105,105,,,,,,,,,,,,,,,,,,,,,,,,,,,,,,,,,,,,,,,,,,,,,,,,,,,,,,,,,727.9565824000001,728.4592462,728.4592462,729.2145567999996,729.2145567999996,729.7144216999995,729.7144216999995,730.5197100999994,730.5197100999994,None,num_4,730.5197100999994,None,happy,1,Happy,730.9168419200001,None,None,730.9168419200001,None,0.38608190000013565,,,,,,,,,,,,,,,,,,,,,,,,,,,,,,,,,,,,,,,,,,,,,,,,,,,,,33,001,0,22,600,600,2022_Oct_28_1231,Experiment,2021.1.4,360.0010080013301,
images\S6_M_S_02.png,images\S6_M_S_02_scrambled.png,6,sad,-20,male,2,,275,off,1,0.5,0.75,0.5,0.814,3,274,1,1,1,0,0,0,0,2,,,,,,0,106,106,106,,,,,,,,,,,,,,,,,,,,,,,,,,,,,,,,,,,,,,,,,,,,,,,,,,,,,,,,,730.9694894999993,731.4749701999999,731.4749701999999,732.2302903,732.2302903,732.7330228000001,732.7330228000001,733.5493483,733.5493483,None,num_6,733.5493483,None,sad,1,Sad,734.1158653599998,None,None,734.1158653599998,None,0.540709799999604,,,,,,,,,,,,,,,,,,,,,,,,,,,,,,,,,,,,,,,,,,,,,,,,,,,,,33,001,0,22,600,600,2022_Oct_28_1231,Experiment,2021.1.4,360.0010080013301,
images\S1_F_H_02.png,images\S1_F_H_02_scrambled.png,1,happy,20,female,5,,2,off,1,0.5,0.75,0.5,0.805,3,1,2,1,1,0,0,0,0,5,,,,,,0,107,107,107,,,,,,,,,,,,,,,,,,,,,,,,,,,,,,,,,,,,,,,,,,,,,,,,,,,,,,,,,734.1685736999998,734.6739997999994,734.6739997999994,735.4293228999995,735.4293228999995,735.9291665999999,735.9291665999999,736.7372525000001,736.7372525000001,None,num_4,736.7372525000001,None,happy,1,Happy,737.5564291199995,None,None,737.5564291199995,None,0.8087072999996963,,,,,,,,,,,,,,,,,,,,,,,,,,,,,,,,,,,,,,,,,,,,,,,,,,,,,33,001,0,22,600,600,2022_Oct_28_1231,Experiment,2021.1.4,360.0010080013301,
images\S4_M_H_02.png,images\S4_M_H_02_scrambled.png,4,happy,20,male,5,,500,off,1,0.5,0.75,0.5,0.796,3,499,3,1,2,0,0,0,0,5,,,,,,0,108,108,108,,,,,,,,,,,,,,,,,,,,,,,,,,,,,,,,,,,,,,,,,,,,,,,,,,,,,,,,,737.6397142999995,738.1423673999998,738.1423673999998,738.8921537999995,738.8921537999995,739.3920029000001,739.3920029000001,740.1917457999998,740.1917457999998,None,num_4,740.1917457999998,None,happy,1,Happy,740.7249078199999,None,None,740.7249078199999,None,0.5223654000001261,,,,,,,,,,,,,,,,,,,,,,,,,,,,,,,,,,,,,,,,,,,,,,,,,,,,,33,001,0,22,600,600,2022_Oct_28_1231,Experiment,2021.1.4,360.0010080013301,
images\S9_F_S_03.png,images\S9_F_S_03_scrambled.png,9,sad,-30,female,1,,594,on,2,0.5,0.75,0.5,0.814,3,593,1,1,1,2,2,32,128,161,,,,,,0,109,109,109,,,,,,,,,,,,,,,,,,,,,,,,,,,,,,,,,,,,,,,,,,,,,,,,,,,,,,,,,740.8137454999996,741.3191783000002,741.3191783000002,742.0689136999999,742.0689136999999,742.5715873999998,742.5715873999998,743.3879780999996,743.3879780999996,None,num_6,743.3879780999996,None,sad,1,Sad,743.9572466200003,None,None,743.9572466200003,None,0.557892300000276,,,,,,,,,,,,,,,,,,,,,,,,,,,,,,,,,,,,,,,,,,,,,,,,,,,,,33,001,0,22,600,600,2022_Oct_28_1231,Experiment,2021.1.4,360.0010080013301,
images\blank.jpg,images\blank.jpg,none,none,none,none,0,,635,on,2,0.5,0.75,0.5,0.766,0,634,2,1,1,3,3,48,192,240,,,,,,0,110,110,110,,,,,,,,,,,,,,,,,,,,,,,,,,,,,,,,,,,,,,,,,,,,,,,,,,,,,,,,,744.0379722999996,744.5403927999996,744.5403927999996,745.2929347999998,745.2929347999998,745.7955634,745.7955634,746.5620085999999,746.5620085999999,746.5620085999999,None,746.5620085999999,None,miss,1,,749.56383748,None,None,749.56383748,None,,,,,,,,,,,,,,,,,,,,,,,,,,,,,,,,,,,,,,,,,,,,,,,,,,,,,,33,001,0,22,600,600,2022_Oct_28_1231,Experiment,2021.1.4,360.0010080013301,
images\S3_F_H_02.png,images\S3_F_H_02_scrambled.png,3,happy,20,female,5,,554,on,2,0.5,0.75,0.5,0.826,3,553,3,1,1,2,2,32,128,165,,,,,,0,111,111,111,,,,,,,,,,,,,,,,,,,,,,,,,,,,,,,,,,,,,,,,,,,,,,,,,,,,,,,,,749.6779160999995,750.1775256000001,750.1775256000001,750.9273204000001,750.9273204000001,751.4299412,751.4299412,752.2602332999995,752.2602332999995,None,num_4,752.2602332999995,749.6779160999995,happy,1,Happy,752.5212490199998,None,None,752.5212490199998,None,0.2456545000004553,,,,,,,,,,,,,,,,,,,,,,,,,,,,,,,,,,,,,,,,,,,,,,,,,,,,,33,001,0,22,600,600,2022_Oct_28_1231,Experiment,2021.1.4,360.0010080013301,
images\blank.jpg,images\blank.jpg,none,none,none,none,0,,608,on,2,0.5,0.75,0.5,0.944,0,607,4,1,1,3,3,48,192,240,,,,,,0,112,112,112,,,,,,,,,,,,,,,,,,,,,,,,,,,,,,,,,,,,,,,,,,,,,,,,,,,,,,,,,752.6019914999997,753.1044421999995,753.1044421999995,753.8569877,753.8569877,754.3568421999998,754.3568421999998,755.3010225999997,755.3010225999997,755.3010225999997,None,755.3010225999997,None,miss,1,,758.3028206799999,None,None,758.3028206799999,None,,,,,,,,,,,,,,,,,,,,,,,,,,,,,,,,,,,,,,,,,,,,,,,,,,,,,,33,001,0,22,600,600,2022_Oct_28_1231,Experiment,2021.1.4,360.0010080013301,
images\S6_M_S_02.png,images\S6_M_S_02_scrambled.png,6,sad,-20,male,2,,35,off,1,0.5,0.75,0.5,0.914,3,34,1,1,1,0,0,0,0,2,,,,,,0,113,113,113,,,,,,,,,,,,,,,,,,,,,,,,,,,,,,,,,,,,,,,,,,,,,,,,,,,,,,,,,758.4167358999994,758.9193280999998,758.9193280999998,759.6718805999999,759.6718805999999,760.1744859999999,760.1744859999999,761.0936692999994,761.0936692999994,None,num_6,761.0936692999994,758.4167358999994,sad,1,Sad,761.4240300199996,None,None,761.4240300199996,None,0.31653149999965535,,,,,,,,,,,,,,,,,,,,,,,,,,,,,,,,,,,,,,,,,,,,,,,,,,,,,33,001,0,22,600,600,2022_Oct_28_1231,Experiment,2021.1.4,360.0010080013301,
images\S4_M_H_03.png,images\S4_M_H_03_scrambled.png,4,happy,30,male,6,,381,off,1,0.5,0.75,0.5,0.757,3,380,2,1,1,0,0,0,0,6,,,,,,0,114,114,114,,,,,,,,,,,,,,,,,,,,,,,,,,,,,,,,,,,,,,,,,,,,,,,,,,,,,,,,,761.4684944999999,761.9739405999999,761.9739405999999,762.7236707000002,762.7236707000002,763.2263417999993,763.2263417999993,763.9899688999994,763.9899688999994,None,num_4,763.9899688999994,None,happy,1,Happy,764.5119722200003,None,None,764.5119722200003,None,0.5082617999996728,,,,,,,,,,,,,,,,,,,,,,,,,,,,,,,,,,,,,,,,,,,,,,,,,,,,,33,001,0,22,600,600,2022_Oct_28_1231,Experiment,2021.1.4,360.0010080013301,
images\S2_M_S_01.png,images\S2_M_S_01_scrambled.png,2,sad,-10,male,3,,430,on,2,0.5,0.75,0.5,0.928,3,429,1,1,1,2,2,32,128,163,,,,,,0,115,115,115,,,,,,,,,,,,,,,,,,,,,,,,,,,,,,,,,,,,,,,,,,,,,,,,,,,,,,,,,764.5564333000002,765.0590941,765.0590941,765.8116533000002,765.8116533000002,766.3114964999995,766.3114964999995,767.2417630999998,767.2417630999998,None,num_6,767.2417630999998,None,sad,1,Sad,767.7026268200003,None,None,767.7026268200003,None,0.44808759999978065,,,,,,,,,,,,,,,,,,,,,,,,,,,,,,,,,,,,,,,,,,,,,,,,,,,,,33,001,0,22,600,600,2022_Oct_28_1231,Experiment,2021.1.4,360.0010080013301,
images\S8_M_H_03.png,images\S8_M_H_03_scrambled.png,8,happy,30,male,6,,165,off,1,0.5,0.75,0.5,0.838,3,164,1,1,1,0,0,0,0,6,,,,,,0,116,116,116,,,,,,,,,,,,,,,,,,,,,,,,,,,,,,,,,,,,,,,,,,,,,,,,,,,,,,,,,767.7471185999993,768.249769,768.249769,768.9995066000001,768.9995066000001,769.4993914999995,769.4993914999995,770.3436242999996,770.3436242999996,None,num_4,770.3436242999996,None,happy,1,Happy,770.83227572,None,None,770.83227572,None,0.4742000999995071,,,,,,,,,,,,,,,,,,,,,,,,,,,,,,,,,,,,,,,,,,,,,,,,,,,,,33,001,0,22,600,600,2022_Oct_28_1231,Experiment,2021.1.4,360.0010080013301,
images\S1_F_S_03.png,images\S1_F_S_03_scrambled.png,1,sad,-30,female,1,,366,off,1,0.5,0.75,0.5,0.802,3,365,2,1,1,0,0,0,0,1,,,,,,0,117,117,117,,,,,,,,,,,,,,,,,,,,,,,,,,,,,,,,,,,,,,,,,,,,,,,,,,,,,,,,,770.937809,771.4376794999998,771.4376794999998,772.1874459000001,772.1874459000001,772.6872994999994,772.6872994999994,773.4926012999995,773.4926012999995,None,num_6,773.4926012999995,None,sad,1,Sad,773.9757375200003,None,None,773.9757375200003,None,0.46935130000019853,,,,,,,,,,,,,,,,,,,,,,,,,,,,,,,,,,,,,,,,,,,,,,,,,,,,,33,001,0,22,600,600,2022_Oct_28_1231,Experiment,2021.1.4,360.0010080013301,
images\S7_F_H_01.png,images\S7_F_H_01_scrambled.png,7,happy,10,female,4,,37,off,1,0.5,0.75,0.5,0.851,3,36,3,1,1,0,0,0,0,4,,,,,,0,118,118,118,,,,,,,,,,,,,,,,,,,,,,,,,,,,,,,,,,,,,,,,,,,,,,,,,,,,,,,,,774.0229623999994,774.5228313999996,774.5228313999996,775.2753788999999,775.2753788999999,775.7781043999994,775.7781043999994,776.6334066999998,776.6334066999998,None,num_4,776.6334066999998,None,happy,1,Happy,776.9053846200001,None,None,776.9053846200001,None,0.25641429999996035,,,,,,,,,,,,,,,,,,,,,,,,,,,,,,,,,,,,,,,,,,,,,,,,,,,,,33,001,0,22,600,600,2022_Oct_28_1231,Experiment,2021.1.4,360.0010080013301,
images\S10_M_S_01.png,images\S10_M_S_01_scrambled.png,10,sad,-10,male,3,,178,off,1,0.5,0.75,0.5,0.853,3,177,4,1,1,0,0,0,0,3,,,,,,0,119,119,119,,,,,,,,,,,,,,,,,,,,,,,,,,,,,,,,,,,,,,,,,,,,,,,,,,,,,,,,,776.9665188999998,777.4691640000001,777.4691640000001,778.2188968999999,778.2188968999999,778.7215766999998,778.7215766999998,779.5740092999995,779.5740092999995,None,num_4,779.5740092999995,None,happy,1,Sad,780.0821466599998,None,None,780.0821466599998,None,0.49953199999981734,,,,,,,,,,,,,,,,,,,,,,,,,,,,,,,,,,,,,,,,,,,,,,,,,,,,,33,001,0,22,600,600,2022_Oct_28_1231,Experiment,2021.1.4,360.0010080013301,
images\S9_F_H_01.png,images\S9_F_H_01_scrambled.png,9,happy,10,female,4,,109,on,2,0.5,0.75,0.5,0.916,3,108,1,1,1,2,2,32,128,164,,,,,,0,120,120,120,,,,,,,,,,,,,,,,,,,,,,,,,,,,,,,,,,,,,,,,,,,,,,,,,,,,,,,,,780.1266408000001,780.6293011999996,780.6293011999996,781.3818517,781.3818517,781.8817024,781.8817024,782.8036408999997,782.8036408999997,None,num_4,782.8036408999997,None,happy,1,Happy,783.1785351000003,None,None,783.1785351000003,None,0.3582575000000361,,,,,,,,,,,,,,,,,,,,,,,,,,,,,,,,,,,,,,,,,,,,,,,,,,,,,33,001,0,22,600,600,2022_Oct_28_1231,Experiment,2021.1.4,360.0010080013301,
images\S2_M_H_02.png,images\S2_M_H_02_scrambled.png,2,happy,20,male,5,,188,on,2,0.5,0.75,0.5,0.925,3,187,2,1,1,2,2,32,128,165,,,,,,0,121,121,121,,,,,,,,,,,,,,,,,,,,,,,,,,,,,,,,,,,,,,,,,,,,,,,,,,,,,,,,,783.2285916000001,783.7339117000001,783.7339117000001,784.4864716000002,784.4864716000002,784.9863138999999,784.9863138999999,785.9138001000001,785.9138001000001,None,num_4,785.9138001000001,None,happy,1,Happy,786.3025237199996,None,None,786.3025237199996,None,0.3758221999996749,,,,,,,,,,,,,,,,,,,,,,,,,,,,,,,,,,,,,,,,,,,,,,,,,,,,,33,001,0,22,600,600,2022_Oct_28_1231,Experiment,2021.1.4,360.0010080013301,
images\S9_F_S_03.png,images\S9_F_S_03_scrambled.png,9,sad,-30,female,1,,354,on,2,0.5,0.75,0.5,0.853,3,353,3,1,1,2,2,32,128,161,,,,,,0,122,122,122,,,,,,,,,,,,,,,,,,,,,,,,,,,,,,,,,,,,,,,,,,,,,,,,,,,,,,,,,786.3469504999994,786.8495987999995,786.8495987999995,787.6021793999998,787.6021793999998,788.1020018999998,788.1020018999998,788.9600531999995,788.9600531999995,None,num_6,788.9600531999995,None,sad,1,Sad,789.3932397200002,None,None,789.3932397200002,None,0.4177244000002247,,,,,,,,,,,,,,,,,,,,,,,,,,,,,,,,,,,,,,,,,,,,,,,,,,,,,33,001,0,22,600,600,2022_Oct_28_1231,Experiment,2021.1.4,360.0010080013301,
images\S10_M_S_03.png,images\S10_M_S_03_scrambled.png,10,sad,-30,male,1,,240,on,2,0.5,0.75,0.5,0.772,3,239,4,1,2,2,2,32,128,161,,,,,,0,123,123,123,,,,,,,,,,,,,,,,,,,,,,,,,,,,,,,,,,,,,,,,,,,,,,,,,,,,,,,,,789.4376695000001,789.9375476999994,789.9375476999994,790.6873095999999,790.6873095999999,791.1871679999995,791.1871679999995,791.9646948999998,791.9646948999998,None,num_6,791.9646948999998,None,sad,1,Sad,792.4811416199997,None,None,792.4811416199997,None,0.5011954000001424,,,,,,,,,,,,,,,,,,,,,,,,,,,,,,,,,,,,,,,,,,,,,,,,,,,,,33,001,0,22,600,600,2022_Oct_28_1231,Experiment,2021.1.4,360.0010080013301,
images\S7_F_H_01.png,images\S7_F_H_01_scrambled.png,7,happy,10,female,4,,517,off,1,0.5,0.75,0.5,0.846,3,516,1,1,1,0,0,0,0,4,,,,,,0,124,124,124,,,,,,,,,,,,,,,,,,,,,,,,,,,,,,,,,,,,,,,,,,,,,,,,,,,,,,,,,792.5255994999998,793.0283610999995,793.0283610999995,793.7780201999994,793.7780201999994,794.2778662999999,794.2778662999999,795.1276068999996,795.1276068999996,None,num_4,795.1276068999996,None,happy,1,Happy,795.60793032,None,None,795.60793032,None,0.4664082999997845,,,,,,,,,,,,,,,,,,,,,,,,,,,,,,,,,,,,,,,,,,,,,,,,,,,,,33,001,0,22,600,600,2022_Oct_28_1231,Experiment,2021.1.4,360.0010080013301,
images\S8_M_H_01.png,images\S8_M_H_01_scrambled.png,8,happy,10,male,4,,463,on,2,0.5,0.75,0.5,0.805,3,462,1,1,2,2,2,32,128,164,,,,,,0,125,125,125,,,,,,,,,,,,,,,,,,,,,,,,,,,,,,,,,,,,,,,,,,,,,,,,,,,,,,,,,795.6524208000001,796.1550585999994,796.1550585999994,796.9076175,796.9076175,797.4074313000001,797.4074313000001,798.2184306999998,798.2184306999998,None,num_4,798.2184306999998,None,happy,1,Happy,798.6570840199998,None,None,798.6570840199998,None,0.4231255000004239,,,,,,,,,,,,,,,,,,,,,,,,,,,,,,,,,,,,,,,,,,,,,,,,,,,,,33,001,0,22,600,600,2022_Oct_28_1231,Experiment,2021.1.4,360.0010080013301,
images\S2_M_H_02.png,images\S2_M_H_02_scrambled.png,2,happy,20,male,5,,8,off,1,0.5,0.75,0.5,0.782,3,7,1,1,1,0,0,0,0,5,,,,,,0,126,126,126,,,,,,,,,,,,,,,,,,,,,,,,,,,,,,,,,,,,,,,,,,,,,,,,,,,,,,,,,798.7070358999999,799.2096861999999,799.2096861999999,799.9594287999998,799.9594287999998,800.4593144,800.4593144,801.2451709999996,801.2451709999996,None,num_4,801.2451709999996,None,happy,1,Happy,801.6005554199998,None,None,801.6005554199998,None,0.3405261999996583,,,,,,,,,,,,,,,,,,,,,,,,,,,,,,,,,,,,,,,,,,,,,,,,,,,,,33,001,0,22,600,600,2022_Oct_28_1231,Experiment,2021.1.4,360.0010080013301,
images\S7_F_H_02.png,images\S7_F_H_02_scrambled.png,7,happy,20,female,5,,398,off,1,0.5,0.75,0.5,0.826,3,397,2,1,2,0,0,0,0,5,,,,,,0,127,127,127,,,,,,,,,,,,,,,,,,,,,,,,,,,,,,,,,,,,,,,,,,,,,,,,,,,,,,,,,801.6450240999993,802.1476726000001,802.1476726000001,802.8974453999999,802.8974453999999,803.3972571999993,803.3972571999993,804.2275844999995,804.2275844999995,None,num_4,804.2275844999995,None,happy,1,Happy,804.8884748199995,None,None,804.8884748199995,None,0.6463030000004437,,,,,,,,,,,,,,,,,,,,,,,,,,,,,,,,,,,,,,,,,,,,,,,,,,,,,33,001,0,22,600,600,2022_Oct_28_1231,Experiment,2021.1.4,360.0010080013301,
images\S1_F_S_02.png,images\S1_F_S_02_scrambled.png,1,sad,-20,female,2,,365,off,1,0.5,0.75,0.5,0.81,3,364,3,1,1,0,0,0,0,2,,,,,,0,128,128,128,,,,,,,,,,,,,,,,,,,,,,,,,,,,,,,,,,,,,,,,,,,,,,,,,,,,,,,,,804.9329006999997,805.4383957999999,805.4383957999999,806.1936756999994,806.1936756999994,806.6990656999997,806.6990656999997,807.5127916000001,807.5127916000001,None,num_6,807.5127916000001,None,sad,1,Sad,807.8737756799995,None,None,807.8737756799995,None,0.34516419999999925,,,,,,,,,,,,,,,,,,,,,,,,,,,,,,,,,,,,,,,,,,,,,,,,,,,,,33,001,0,22,600,600,2022_Oct_28_1231,Experiment,2021.1.4,360.0010080013301,
images\S7_F_H_01.png,images\S7_F_H_01_scrambled.png,7,happy,10,female,4,,157,off,1,0.5,0.75,0.5,0.938,3,156,4,1,1,0,0,0,0,4,,,,,,0,129,129,129,,,,,,,,,,,,,,,,,,,,,,,,,,,,,,,,,,,,,,,,,,,,,,,,,,,,,,,,,807.9264210000001,808.4290537999996,808.4290537999996,809.1844075999998,809.1844075999998,809.6869968000001,809.6869968000001,810.6284680999997,810.6284680999997,None,num_4,810.6284680999997,None,happy,1,Happy,810.9838562,None,None,810.9838562,None,0.34140539999953035,,,,,,,,,,,,,,,,,,,,,,,,,,,,,,,,,,,,,,,,,,,,,,,,,,,,,33,001,0,22,600,600,2022_Oct_28_1231,Experiment,2021.1.4,360.0010080013301,
images\blank.jpg,images\blank.jpg,none,none,none,none,0,,639,on,2,0.5,0.75,0.5,0.867,0,638,1,1,1,3,3,48,192,240,,,,,,0,130,130,130,,,,,,,,,,,,,,,,,,,,,,,,,,,,,,,,,,,,,,,,,,,,,,,,,,,,,,,,,811.0701462999996,811.5725483999995,811.5725483999995,812.3223318,812.3223318,812.8221764,812.8221764,813.6913579000002,813.6913579000002,813.6913579000002,None,813.6913579000002,None,miss,1,,816.6959636000001,None,space,816.6959636000001,None,,42.001551700000164,,,,,,,,,,,,,,,,,,,,,,,,,,,,,,,,,,,,,,,,,,,,,,,,,,,,33,001,0,22,600,600,2022_Oct_28_1231,Experiment,2021.1.4,360.0010080013301,
images\S10_M_H_01.png,images\S10_M_H_01_scrambled.png,10,happy,10,male,4,,415,off,1,0.5,0.75,0.5,0.819,3,414,1,1,1,0,0,0,0,4,,,,,,0,131,131,131,,,,,,,,,,,,,,,,,,,,,,,,,,,,,,,,,,,,,,,,,,,,,,,,,,,,,,,,,858.8748710999998,859.3800610999997,859.3800610999997,860.1298005999997,860.1298005999997,860.6296745,860.6296745,861.4516612999996,861.4516612999996,None,num_4,861.4516612999996,None,happy,1,Happy,861.7960657199998,None,None,861.7960657199998,None,0.33416609999949287,,,,,,,,,,,,,,,,,,,,,,,,,,,,,,,,,,,,,,,,,,,,,,,,,,,,,33,001,0,22,600,600,2022_Oct_28_1231,Experiment,2021.1.4,360.0010080013301,
images\S4_M_S_03.png,images\S4_M_S_03_scrambled.png,4,sad,-30,male,1,,144,off,1,0.5,0.75,0.5,0.931,3,143,2,1,1,0,0,0,0,1,,,,,,0,132,132,132,,,,,,,,,,,,,,,,,,,,,,,,,,,,,,,,,,,,,,,,,,,,,,,,,,,,,,,,,861.8431642999994,862.3486231999996,862.3486231999996,863.0983663999996,863.0983663999996,863.6037912000002,863.6037912000002,864.5395854999997,864.5395854999997,None,num_6,864.5395854999997,None,sad,1,Sad,864.8617156199995,None,None,864.8617156199995,None,0.31009199999971315,,,,,,,,,,,,,,,,,,,,,,,,,,,,,,,,,,,,,,,,,,,,,,,,,,,,,33,001,0,22,600,600,2022_Oct_28_1231,Experiment,2021.1.4,360.0010080013301,
images\S10_M_S_02.png,images\S10_M_S_02_scrambled.png,10,sad,-20,male,2,,299,off,1,0.5,0.75,0.5,0.942,3,298,3,1,1,0,0,0,0,2,,,,,,0,133,133,133,,,,,,,,,,,,,,,,,,,,,,,,,,,,,,,,,,,,,,,,,,,,,,,,,,,,,,,,,864.9699850999996,865.4726376999997,865.4726376999997,866.2251663999996,866.2251663999996,866.7277900999998,866.7277900999998,867.6719229999999,867.6719229999999,None,num_6,867.6719229999999,None,sad,1,Sad,868.1772932199998,None,None,868.1772932199998,None,0.48987639999995736,,,,,,,,,,,,,,,,,,,,,,,,,,,,,,,,,,,,,,,,,,,,,,,,,,,,,33,001,0,22,600,600,2022_Oct_28_1231,Experiment,2021.1.4,360.0010080013301,
images\S9_F_S_01.png,images\S9_F_S_01_scrambled.png,9,sad,-10,female,3,,292,off,1,0.5,0.75,0.5,0.821,3,291,4,1,1,0,0,0,0,3,,,,,,0,134,134,134,,,,,,,,,,,,,,,,,,,,,,,,,,,,,,,,,,,,,,,,,,,,,,,,,,,,,,,,,868.2606316000001,868.7634232,868.7634232,869.5186351000002,869.5186351000002,870.0240168,870.0240168,870.8487848999994,870.8487848999994,None,num_4,870.8487848999994,None,happy,1,Sad,871.35971356,None,None,871.35971356,None,0.5053111000006538,,,,,,,,,,,,,,,,,,,,,,,,,,,,,,,,,,,,,,,,,,,,,,,,,,,,,33,001,0,22,600,600,2022_Oct_28_1231,Experiment,2021.1.4,360.0010080013301,
images\S9_F_H_02.png,images\S9_F_H_02_scrambled.png,9,happy,20,female,5,,350,on,2,0.5,0.75,0.5,0.948,3,349,1,2,1,2,2,32,128,165,,,,,,0,135,135,135,,,,,,,,,,,,,,,,,,,,,,,,,,,,,,,,,,,,,,,,,,,,,,,,,,,,,,,,,871.4152199999999,871.9179778999996,871.9179778999996,872.6676094999993,872.6676094999993,873.1674904000001,873.1674904000001,874.1199681999997,874.1199681999997,None,num_4,874.1199681999997,None,happy,1,Happy,874.5725894200001,None,None,874.5725894200001,None,0.44182330000057846,,,,,,,,,,,,,,,,,,,,,,,,,,,,,,,,,,,,,,,,,,,,,,,,,,,,,33,001,0,22,600,600,2022_Oct_28_1231,Experiment,2021.1.4,360.0010080013301,
images\S3_F_S_03.png,images\S3_F_S_03_scrambled.png,3,sad,-30,female,1,,258,off,1,0.5,0.75,0.5,0.793,3,257,1,1,1,0,0,0,0,1,,,,,,0,136,136,136,,,,,,,,,,,,,,,,,,,,,,,,,,,,,,,,,,,,,,,,,,,,,,,,,,,,,,,,,874.6197892,875.1224063999998,875.1224063999998,875.8722094999994,875.8722094999994,876.3720401999999,876.3720401999999,877.1690440000002,877.1690440000002,None,num_6,877.1690440000002,None,sad,1,Sad,877.5800538199998,None,None,877.5800538199998,None,0.4006266999995205,,,,,,,,,,,,,,,,,,,,,,,,,,,,,,,,,,,,,,,,,,,,,,,,,,,,,33,001,0,22,600,600,2022_Oct_28_1231,Experiment,2021.1.4,360.0010080013301,
images\S3_F_S_02.png,images\S3_F_S_02_scrambled.png,3,sad,-20,female,2,,557,on,2,0.5,0.75,0.5,0.927,3,556,1,2,1,2,2,32,128,162,,,,,,0,137,137,137,,,,,,,,,,,,,,,,,,,,,,,,,,,,,,,,,,,,,,,,,,,,,,,,,,,,,,,,,877.6271956999999,878.1298479999996,878.1298479999996,878.8795851999994,878.8795851999994,879.3794615999996,879.3794615999996,880.3097340999993,880.3097340999993,None,num_6,880.3097340999993,None,sad,1,Sad,880.6317646200001,None,None,880.6317646200001,None,0.3079948999993576,,,,,,,,,,,,,,,,,,,,,,,,,,,,,,,,,,,,,,,,,,,,,,,,,,,,,33,001,0,22,600,600,2022_Oct_28_1231,Experiment,2021.1.4,360.0010080013301,
images\S5_F_H_03.png,images\S5_F_H_03_scrambled.png,5,happy,30,female,6,,327,on,2,0.5,0.75,0.5,0.789,3,326,2,1,1,2,2,32,128,166,,,,,,0,138,138,138,,,,,,,,,,,,,,,,,,,,,,,,,,,,,,,,,,,,,,,,,,,,,,,,,,,,,,,,,880.6762548999995,881.1789303999994,881.1789303999994,881.9342411999996,881.9342411999996,882.4340891000002,882.4340891000002,883.2283699,883.2283699,None,num_4,883.2283699,None,happy,1,Happy,883.63088252,None,None,883.63088252,None,0.38934989999961545,,,,,,,,,,,,,,,,,,,,,,,,,,,,,,,,,,,,,,,,,,,,,,,,,,,,,33,001,0,22,600,600,2022_Oct_28_1231,Experiment,2021.1.4,360.0010080013301,
images\S6_M_S_03.png,images\S6_M_S_03_scrambled.png,6,sad,-30,male,1,,576,on,2,0.5,0.75,0.5,0.783,3,575,3,1,1,2,2,32,128,161,,,,,,0,139,139,139,,,,,,,,,,,,,,,,,,,,,,,,,,,,,,,,,,,,,,,,,,,,,,,,,,,,,,,,,883.7364260999993,884.2391020999994,884.2391020999994,884.9916476999997,884.9916476999997,885.4914975000002,885.4914975000002,886.2773379999999,886.2773379999999,None,num_6,886.2773379999999,None,sad,1,Sad,886.6439275999996,None,None,886.6439275999996,None,0.34854189999987284,,,,,,,,,,,,,,,,,,,,,,,,,,,,,,,,,,,,,,,,,,,,,,,,,,,,,33,001,0,22,600,600,2022_Oct_28_1231,Experiment,2021.1.4,360.0010080013301,
images\S7_F_H_01.png,images\S7_F_H_01_scrambled.png,7,happy,10,female,4,,277,off,1,0.5,0.75,0.5,0.868,3,276,1,1,1,0,0,0,0,4,,,,,,0,140,140,140,,,,,,,,,,,,,,,,,,,,,,,,,,,,,,,,,,,,,,,,,,,,,,,,,,,,,,,,,886.6938509000001,887.1992921000001,887.1992921000001,887.9489970999994,887.9489970999994,888.4489035999995,888.4489035999995,889.3180612999995,889.3180612999995,None,num_4,889.3180612999995,None,happy,1,Happy,889.7401830200002,None,None,889.7401830200002,None,0.4116926999995485,,,,,,,,,,,,,,,,,,,,,,,,,,,,,,,,,,,,,,,,,,,,,,,,,,,,,33,001,0,22,600,600,2022_Oct_28_1231,Experiment,2021.1.4,360.0010080013301,
