image_face,image_scram,avatar,emo,emotion,sex,trigeeg,dac,trial_no,NMES,stimtime,baseline,iti,face,scr_face,resp_time,index,count_NMES,count_avatar,count_emotion,dac1,dac2,dac1_output,dac2_output,trigs_out,nmes,practice_trials.thisRepN,practice_trials.thisTrialN,practice_trials.thisN,practice_trials.thisIndex,real_trials.thisRepN,real_trials.thisTrialN,real_trials.thisN,real_trials.thisIndex,trials.thisRepN,trials.thisTrialN,trials.thisN,trials.thisIndex,position,Welcome.started,Welcome.stopped,Welcome_resp.keys,Welcome_resp.rt,text_2.started,text_2.stopped,form_2.index,form_2.itemText,form_2.type,form_2.response,form_2.rt,key_resp_4.keys,key_resp_4.rt,key_resp_4.started,key_resp_4.stopped,instructions.started,instructions.stopped,end_instr.keys,end_instr.rt,instructions_2.started,instructions_2.stopped,end_instr_2.keys,end_instr_2.rt,end_instr_2.started,end_instr_2.stopped,instruct_keypress.started,instruct_keypress.stopped,end_instruct_keypress.keys,end_instruct_keypress.rt,start_practice.started,start_practice.stopped,start_practice_resp.keys,start_practice_resp.rt,prac_baseline.started,prac_baseline.stopped,prac_iti.started,prac_iti.stopped,prac_stimulus.started,prac_stimulus.stopped,prac_scram_stim.started,prac_scram_stim.stopped,prac_stimulus_resp.started,prac_stimulus_resp.stopped,prac_resp.keys,prac_resp.rt,prac_resp.started,prac_resp.stopped,transition_to_real.started,transition_to_real.stopped,end_transition_to_real.keys,end_transition_to_real.rt,fixation_cross.started,fixation_cross.stopped,tr_iti.started,tr_iti.stopped,stimulus.started,stimulus.stopped,scram_stim.started,scram_stim.stopped,response_txt.started,response_txt.stopped,response.keys,response.rt,response.started,response.stopped,participant_Resp,grouping,corAnswer,break_msg.started,break_msg.stopped,end_break.keys,end_break.started,end_break.stopped,end_break.rt,text.started,text.stopped,key_resp_3.keys,key_resp_3.rt,key_resp_3.started,key_resp_3.stopped,fix_cross_comf.started,fix_cross_comf.stopped,stimulation_comf.started,stimulation_comf.stopped,rate_instr.started,rate_instr.stopped,comfort_rating.response,comfort_rating.rt,comfort_rating.started,comfort_rating.stopped,resp_form.keys,resp_form.rt,resp_form.started,resp_form.stopped,survey_instructions.started,survey_instructions.stopped,key_resp_2.keys,key_resp_2.rt,key_resp_2.started,key_resp_2.stopped,form.index,form.itemText,form.type,form.response,form.rt,key_resp.keys,key_resp.rt,key_resp.started,key_resp.stopped,text_3.started,text_3.stopped,rate_smile.response,rate_smile.rt,rate_smile.started,rate_smile.stopped,key_resp_5.keys,key_resp_5.rt,key_resp_5.started,key_resp_5.stopped,end_msg.started,end_msg.stopped,end_resp.keys,end_resp.rt,end_resp.started,end_resp.stopped,participant,session,gender,age,LEFT,RIGHT,date,expName,psychopyVersion,frameRate,
,,,,,,,,,,,,,,,,,,,,,,,,,,,,,,,,,,,,,,S-H,37.185567900000024,None,num_add,14.062077800000225,,,,,,,,,,,,,,,,,,,,,,,,,,,,,,,,,,,,,,,,,,,,,,,,,,,,,,,,,,,,,,,,,,,,,,,,,,,,,,,,,,,,,,,,,,,,,,,,,,,,,,,,,,,,,,,,,,,,,,,,,,34,001,1,22,475,375,2022_Oct_31_1105,Experiment,2021.1.4,360.2020012899052,
,,,,,,,,,,,,,,,,,,,,,,,,,,,,,,,,,,,,,,,,,,,51.26954250000017,53.33279140000013,1,"This scale consistes of a number of words that describe different feelings and emotion. Read each item and then list the number from the scale below each word. Indicate (by clicking) to what extend you feel this way RIGHT NOW, that is, AT THE PRESENT MOMENT.",description,,,,,,,,,,,,,,,,,,,,,,,,,,,,,,,,,,,,,,,,,,,,,,,,,,,,,,,,,,,,,,,,,,,,,,,,,,,,,,,,,,,,,,,,,,,,,,,,,,,,,,,,,,,,,,,,,,,,,34,001,1,22,475,375,2022_Oct_31_1105,Experiment,2021.1.4,360.2020012899052,
,,,,,,,,,,,,,,,,,,,,,,,,,,,,,,,,,,,,,,,,,,,,,2,Interested,rating,4.0,20.158725100000083,,,,,,,,,,,,,,,,,,,,,,,,,,,,,,,,,,,,,,,,,,,,,,,,,,,,,,,,,,,,,,,,,,,,,,,,,,,,,,,,,,,,,,,,,,,,,,,,,,,,,,,,,,,,,,,,,,,34,001,1,22,475,375,2022_Oct_31_1105,Experiment,2021.1.4,360.2020012899052,
,,,,,,,,,,,,,,,,,,,,,,,,,,,,,,,,,,,,,,,,,,,,,3,Distressed,rating,1.0,27.99516179999955,,,,,,,,,,,,,,,,,,,,,,,,,,,,,,,,,,,,,,,,,,,,,,,,,,,,,,,,,,,,,,,,,,,,,,,,,,,,,,,,,,,,,,,,,,,,,,,,,,,,,,,,,,,,,,,,,,,34,001,1,22,475,375,2022_Oct_31_1105,Experiment,2021.1.4,360.2020012899052,
,,,,,,,,,,,,,,,,,,,,,,,,,,,,,,,,,,,,,,,,,,,,,4,Excited,rating,3.0,34.022489200000564,,,,,,,,,,,,,,,,,,,,,,,,,,,,,,,,,,,,,,,,,,,,,,,,,,,,,,,,,,,,,,,,,,,,,,,,,,,,,,,,,,,,,,,,,,,,,,,,,,,,,,,,,,,,,,,,,,,34,001,1,22,475,375,2022_Oct_31_1105,Experiment,2021.1.4,360.2020012899052,
,,,,,,,,,,,,,,,,,,,,,,,,,,,,,,,,,,,,,,,,,,,,,5,Upset,rating,1.0,41.98761949999971,,,,,,,,,,,,,,,,,,,,,,,,,,,,,,,,,,,,,,,,,,,,,,,,,,,,,,,,,,,,,,,,,,,,,,,,,,,,,,,,,,,,,,,,,,,,,,,,,,,,,,,,,,,,,,,,,,,34,001,1,22,475,375,2022_Oct_31_1105,Experiment,2021.1.4,360.2020012899052,
,,,,,,,,,,,,,,,,,,,,,,,,,,,,,,,,,,,,,,,,,,,,,6,Strong,rating,3.0,46.54178040000079,,,,,,,,,,,,,,,,,,,,,,,,,,,,,,,,,,,,,,,,,,,,,,,,,,,,,,,,,,,,,,,,,,,,,,,,,,,,,,,,,,,,,,,,,,,,,,,,,,,,,,,,,,,,,,,,,,,34,001,1,22,475,375,2022_Oct_31_1105,Experiment,2021.1.4,360.2020012899052,
,,,,,,,,,,,,,,,,,,,,,,,,,,,,,,,,,,,,,,,,,,,,,7,Guilty,rating,1.0,12.076583500000197,,,,,,,,,,,,,,,,,,,,,,,,,,,,,,,,,,,,,,,,,,,,,,,,,,,,,,,,,,,,,,,,,,,,,,,,,,,,,,,,,,,,,,,,,,,,,,,,,,,,,,,,,,,,,,,,,,,34,001,1,22,475,375,2022_Oct_31_1105,Experiment,2021.1.4,360.2020012899052,
,,,,,,,,,,,,,,,,,,,,,,,,,,,,,,,,,,,,,,,,,,,,,8,Scared,rating,1.0,12.932511299999533,,,,,,,,,,,,,,,,,,,,,,,,,,,,,,,,,,,,,,,,,,,,,,,,,,,,,,,,,,,,,,,,,,,,,,,,,,,,,,,,,,,,,,,,,,,,,,,,,,,,,,,,,,,,,,,,,,,34,001,1,22,475,375,2022_Oct_31_1105,Experiment,2021.1.4,360.2020012899052,
,,,,,,,,,,,,,,,,,,,,,,,,,,,,,,,,,,,,,,,,,,,,,9,Hostile,rating,1.0,13.266545599999517,,,,,,,,,,,,,,,,,,,,,,,,,,,,,,,,,,,,,,,,,,,,,,,,,,,,,,,,,,,,,,,,,,,,,,,,,,,,,,,,,,,,,,,,,,,,,,,,,,,,,,,,,,,,,,,,,,,34,001,1,22,475,375,2022_Oct_31_1105,Experiment,2021.1.4,360.2020012899052,
,,,,,,,,,,,,,,,,,,,,,,,,,,,,,,,,,,,,,,,,,,,,,10,Enthusiastic,rating,2.0,7.961199299999862,,,,,,,,,,,,,,,,,,,,,,,,,,,,,,,,,,,,,,,,,,,,,,,,,,,,,,,,,,,,,,,,,,,,,,,,,,,,,,,,,,,,,,,,,,,,,,,,,,,,,,,,,,,,,,,,,,,34,001,1,22,475,375,2022_Oct_31_1105,Experiment,2021.1.4,360.2020012899052,
,,,,,,,,,,,,,,,,,,,,,,,,,,,,,,,,,,,,,,,,,,,,,11,Proud,rating,2.0,10.484278399999312,,,,,,,,,,,,,,,,,,,,,,,,,,,,,,,,,,,,,,,,,,,,,,,,,,,,,,,,,,,,,,,,,,,,,,,,,,,,,,,,,,,,,,,,,,,,,,,,,,,,,,,,,,,,,,,,,,,34,001,1,22,475,375,2022_Oct_31_1105,Experiment,2021.1.4,360.2020012899052,
,,,,,,,,,,,,,,,,,,,,,,,,,,,,,,,,,,,,,,,,,,,,,12,Irritable,rating,2.0,12.111030200000641,,,,,,,,,,,,,,,,,,,,,,,,,,,,,,,,,,,,,,,,,,,,,,,,,,,,,,,,,,,,,,,,,,,,,,,,,,,,,,,,,,,,,,,,,,,,,,,,,,,,,,,,,,,,,,,,,,,34,001,1,22,475,375,2022_Oct_31_1105,Experiment,2021.1.4,360.2020012899052,
,,,,,,,,,,,,,,,,,,,,,,,,,,,,,,,,,,,,,,,,,,,,,13,Alert,rating,4.0,11.331172199999855,,,,,,,,,,,,,,,,,,,,,,,,,,,,,,,,,,,,,,,,,,,,,,,,,,,,,,,,,,,,,,,,,,,,,,,,,,,,,,,,,,,,,,,,,,,,,,,,,,,,,,,,,,,,,,,,,,,34,001,1,22,475,375,2022_Oct_31_1105,Experiment,2021.1.4,360.2020012899052,
,,,,,,,,,,,,,,,,,,,,,,,,,,,,,,,,,,,,,,,,,,,,,14,Ashamed,rating,2.0,10.817468600000211,,,,,,,,,,,,,,,,,,,,,,,,,,,,,,,,,,,,,,,,,,,,,,,,,,,,,,,,,,,,,,,,,,,,,,,,,,,,,,,,,,,,,,,,,,,,,,,,,,,,,,,,,,,,,,,,,,,34,001,1,22,475,375,2022_Oct_31_1105,Experiment,2021.1.4,360.2020012899052,
,,,,,,,,,,,,,,,,,,,,,,,,,,,,,,,,,,,,,,,,,,,,,15,Inspired,rating,2.0,12.234140999999909,,,,,,,,,,,,,,,,,,,,,,,,,,,,,,,,,,,,,,,,,,,,,,,,,,,,,,,,,,,,,,,,,,,,,,,,,,,,,,,,,,,,,,,,,,,,,,,,,,,,,,,,,,,,,,,,,,,34,001,1,22,475,375,2022_Oct_31_1105,Experiment,2021.1.4,360.2020012899052,
,,,,,,,,,,,,,,,,,,,,,,,,,,,,,,,,,,,,,,,,,,,,,16,Nervous,rating,2.0,11.264973000000282,,,,,,,,,,,,,,,,,,,,,,,,,,,,,,,,,,,,,,,,,,,,,,,,,,,,,,,,,,,,,,,,,,,,,,,,,,,,,,,,,,,,,,,,,,,,,,,,,,,,,,,,,,,,,,,,,,,34,001,1,22,475,375,2022_Oct_31_1105,Experiment,2021.1.4,360.2020012899052,
,,,,,,,,,,,,,,,,,,,,,,,,,,,,,,,,,,,,,,,,,,,,,17,Determined,rating,3.0,16.55514140000014,,,,,,,,,,,,,,,,,,,,,,,,,,,,,,,,,,,,,,,,,,,,,,,,,,,,,,,,,,,,,,,,,,,,,,,,,,,,,,,,,,,,,,,,,,,,,,,,,,,,,,,,,,,,,,,,,,,34,001,1,22,475,375,2022_Oct_31_1105,Experiment,2021.1.4,360.2020012899052,
,,,,,,,,,,,,,,,,,,,,,,,,,,,,,,,,,,,,,,,,,,,,,18,Attentive,rating,4.0,16.219435599999997,,,,,,,,,,,,,,,,,,,,,,,,,,,,,,,,,,,,,,,,,,,,,,,,,,,,,,,,,,,,,,,,,,,,,,,,,,,,,,,,,,,,,,,,,,,,,,,,,,,,,,,,,,,,,,,,,,,34,001,1,22,475,375,2022_Oct_31_1105,Experiment,2021.1.4,360.2020012899052,
,,,,,,,,,,,,,,,,,,,,,,,,,,,,,,,,,,,,,,,,,,,,,19,Jittery,rating,2.0,15.219460799999979,,,,,,,,,,,,,,,,,,,,,,,,,,,,,,,,,,,,,,,,,,,,,,,,,,,,,,,,,,,,,,,,,,,,,,,,,,,,,,,,,,,,,,,,,,,,,,,,,,,,,,,,,,,,,,,,,,,34,001,1,22,475,375,2022_Oct_31_1105,Experiment,2021.1.4,360.2020012899052,
,,,,,,,,,,,,,,,,,,,,,,,,,,,,,,,,,,,,,,,,,,,,,20,Active,rating,3.0,13.10335909999958,,,,,,,,,,,,,,,,,,,,,,,,,,,,,,,,,,,,,,,,,,,,,,,,,,,,,,,,,,,,,,,,,,,,,,,,,,,,,,,,,,,,,,,,,,,,,,,,,,,,,,,,,,,,,,,,,,,34,001,1,22,475,375,2022_Oct_31_1105,Experiment,2021.1.4,360.2020012899052,
,,,,,,,,,,,,,,,,,,,,,,,,,,,,,,,,,,,,,,,,,,,,,21,Afraid,rating,1.0,11.835602399999516,,,,,,,,,,,,,,,,,,,,,,,,,,,,,,,,,,,,,,,,,,,,,,,,,,,,,,,,,,,,,,,,,,,,,,,,,,,,,,,,,,,,,,,,,,,,,,,,,,,,,,,,,,,,,,,,,,,34,001,1,22,475,375,2022_Oct_31_1105,Experiment,2021.1.4,360.2020012899052,
,,,,,,,,,,,,,,,,,,,,,,,,,,,,,,,,,,,,,,,,,,,,,22,Press the + button to submit your answers,description,,,,,,,,,,,,,,,,,,,,,,,,,,,,,,,,,,,,,,,,,,,,,,,,,,,,,,,,,,,,,,,,,,,,,,,,,,,,,,,,,,,,,,,,,,,,,,,,,,,,,,,,,,,,,,,,,,,,,34,001,1,22,475,375,2022_Oct_31_1105,Experiment,2021.1.4,360.2020012899052,
,,,,,,,,,,,,,,,,,,,,,,,,,,,,,,,,,,,,,,,,,,,,,,,,,,num_add,101.33989219999967,61.299771599999985,None,,,,,,,,,,,,,,,,,,,,,,,,,,,,,,,,,,,,,,,,,,,,,,,,,,,,,,,,,,,,,,,,,,,,,,,,,,,,,,,,,,,,,,,,,,,,,,,,,,,,,,,,,,,,,,,34,001,1,22,475,375,2022_Oct_31_1105,Experiment,2021.1.4,360.2020012899052,
,,,,,,,,,,,,,,,,,,,,,,,,,,,,,,,,,,,,,,,,,,,,,,,,,,,,,,162.6879445000004,None,num_add,11.719783100000313,,,,,,,,,,,,,,,,,,,,,,,,,,,,,,,,,,,,,,,,,,,,,,,,,,,,,,,,,,,,,,,,,,,,,,,,,,,,,,,,,,,,,,,,,,,,,,,,,,,,,,,,,,,34,001,1,22,475,375,2022_Oct_31_1105,Experiment,2021.1.4,360.2020012899052,
,,,,,,,,,,,,,,,,,,,,,,,,,,,,,,,,,,,,,,,,,,,,,,,,,,,,,,,,,,174.41489189999993,None,num_add,11.328813300000547,174.41489189999993,None,,,,,,,,,,,,,,,,,,,,,,,,,,,,,,,,,,,,,,,,,,,,,,,,,,,,,,,,,,,,,,,,,,,,,,,,,,,,,,,,,,,,,,,,,,,,,,,,,,,,,34,001,1,22,475,375,2022_Oct_31_1105,Experiment,2021.1.4,360.2020012899052,
,,,,,,,,,,,,,,,,,,,,,,,,,,,,,,,,,,,,,,,,,,,,,,,,,,,,,,,,,,,,,,,,185.7669491000006,None,num_add,5.512609999999768,,,,,,,,,,,,,,,,,,,,,,,,,,,,,,,,,,,,,,,,,,,,,,,,,,,,,,,,,,,,,,,,,,,,,,,,,,,,,,,,,,,,,,,,,,,,,,,,,34,001,1,22,475,375,2022_Oct_31_1105,Experiment,2021.1.4,360.2020012899052,
,,,,,,,,,,,,,,,,,,,,,,,,,,,,,,,,,,,,,,,,,,,,,,,,,,,,,,,,,,,,,,,,,,,,191.2874606000005,None,space,33.952253699999346,,,,,,,,,,,,,,,,,,,,,,,,,,,,,,,,,,,,,,,,,,,,,,,,,,,,,,,,,,,,,,,,,,,,,,,,,,,,,,,,,,,,,,,,,,,,,34,001,1,22,475,375,2022_Oct_31_1105,Experiment,2021.1.4,360.2020012899052,
images\S22_M_S_03.png,images\S22_M_S_03_scrambled.png,22,Sad,0.3,M,0,0,practice,on,2,0.5,0.75,0.5,0.794,3,,,,,,,,,,,0,0,0,7,,,,,,,,,,,,,,,,,,,,,,,,,,,,,,,,,,,,,,,,,,,225.42134650000025,225.92401470000004,225.92401470000004,226.67378370000006,226.67378370000006,227.17364120000002,227.17364120000002,227.97621510000045,227.97621510000045,None,num_4,1.1278389000008247,227.97621510000045,None,,,,,,,,,,,,,,,,,,,,,,,,,,,,,,,,,,,,,,,,,,,,,,,,,,,,,,,,,,,,,,,,,,,,,,,,,,,,,,,34,001,1,22,475,375,2022_Oct_31_1105,Experiment,2021.1.4,360.2020012899052,
images\S21_F_H_01.png,images\S21_F_H_01_scrambled.png,21,Happy,-0.1,F,0,0,practice,off,1,0.5,0.75,0.5,0.853,3,,,,,,,,,,,0,1,1,0,,,,,,,,,,,,,,,,,,,,,,,,,,,,,,,,,,,,,,,,,,,229.19798429999992,229.70063410000057,229.70063410000057,230.45328530000006,230.45328530000006,230.9557687000006,230.9557687000006,231.81398510000054,231.81398510000054,None,num_6,0.7859826999992947,231.81398510000054,None,,,,,,,,,,,,,,,,,,,,,,,,,,,,,,,,,,,,,,,,,,,,,,,,,,,,,,,,,,,,,,,,,,,,,,,,,,,,,,,34,001,1,22,475,375,2022_Oct_31_1105,Experiment,2021.1.4,360.2020012899052,
images\S22_M_S_01.png,images\S22_M_S_01_scrambled.png,22,Sad,0.1,M,0,0,practice,on,2,0.5,0.75,0.5,0.867,3,,,,,,,,,,,0,2,2,5,,,,,,,,,,,,,,,,,,,,,,,,,,,,,,,,,,,,,,,,,,,232.6885757,233.19122120000065,233.19122120000065,233.9438697000005,233.9438697000005,234.44361910000043,234.44361910000043,235.31276200000048,235.31276200000048,None,num_4,0.2793881000006877,235.31276200000048,None,,,,,,,,,,,,,,,,,,,,,,,,,,,,,,,,,,,,,,,,,,,,,,,,,,,,,,,,,,,,,,,,,,,,,,,,,,,,,,,34,001,1,22,475,375,2022_Oct_31_1105,Experiment,2021.1.4,360.2020012899052,
images\S22_M_H_02.png,images\S22_M_H_02_scrambled.png,22,Happy,-0.2,M,0,0,practice,off,1,0.5,0.75,0.5,0.883,3,,,,,,,,,,,0,3,3,2,,,,,,,,,,,,,,,,,,,,,,,,,,,,,,,,,,,,,,,,,,,235.7154227000001,236.22084200000063,236.22084200000063,236.9735180000007,236.9735180000007,237.47600150000017,237.47600150000017,238.36464479999995,238.36464479999995,None,num_6,0.4912320000003092,238.36464479999995,None,,,,,,,,,,,,,,,,,,,,,,,,,,,,,,,,,,,,,,,,,,,,,,,,,,,,,,,,,,,,,,,,,,,,,,,,,,,,,,,34,001,1,22,475,375,2022_Oct_31_1105,Experiment,2021.1.4,360.2020012899052,
images\S21_F_H_02.png,images\S21_F_H_02_scrambled.png,21,Happy,-0.2,F,0,0,practice,off,1,0.5,0.75,0.5,0.91,3,,,,,,,,,,,0,4,4,1,,,,,,,,,,,,,,,,,,,,,,,,,,,,,,,,,,,,,,,,,,,238.9422113999999,239.44482659999994,239.44482659999994,240.1974269000002,240.1974269000002,240.70002900000054,240.70002900000054,241.6136279000002,241.6136279000002,None,num_6,0.6026651000001948,241.6136279000002,None,,,,,,,,,,,,,,,,,,,,,,,,,,,,,,,,,,,,,,,,,,,,,,,,,,,,,,,,,,,,,,,,,,,,,,,,,,,,,,,34,001,1,22,475,375,2022_Oct_31_1105,Experiment,2021.1.4,360.2020012899052,
images\S22_M_S_03.png,images\S22_M_S_03_scrambled.png,22,Sad,0.3,M,0,0,practice,on,2,0.5,0.75,0.5,0.87,3,,,,,,,,,,,0,5,5,4,,,,,,,,,,,,,,,,,,,,,,,,,,,,,,,,,,,,,,,,,,,242.26896209999995,242.77443390000008,242.77443390000008,243.52691200000027,243.52691200000027,244.02956080000058,244.02956080000058,244.90148800000043,244.90148800000043,None,num_4,0.6026632999992216,244.90148800000043,None,,,,,,,,,,,,,,,,,,,,,,,,,,,,,,,,,,,,,,,,,,,,,,,,,,,,,,,,,,,,,,,,,,,,,,,,,,,,,,,34,001,1,22,475,375,2022_Oct_31_1105,Experiment,2021.1.4,360.2020012899052,
images\S22_M_S_02.png,images\S22_M_S_02_scrambled.png,22,Sad,0.2,M,0,0,practice,off,1,0.5,0.75,0.5,0.751,3,,,,,,,,,,,0,6,6,3,,,,,,,,,,,,,,,,,,,,,,,,,,,,,,,,,,,,,,,,,,,245.59293780000007,246.0955786000004,246.0955786000004,246.85088989999986,246.85088989999986,247.35628970000016,247.35628970000016,248.1144385000007,248.1144385000007,None,num_4,0.597814699999617,248.1144385000007,None,,,,,,,,,,,,,,,,,,,,,,,,,,,,,,,,,,,,,,,,,,,,,,,,,,,,,,,,,,,,,,,,,,,,,,,,,,,,,,,34,001,1,22,475,375,2022_Oct_31_1105,Experiment,2021.1.4,360.2020012899052,
images\S22_M_S_02.png,images\S22_M_S_02_scrambled.png,22,Sad,0.2,M,0,0,practice,on,2,0.5,0.75,0.5,0.783,3,,,,,,,,,,,0,7,7,6,,,,,,,,,,,,,,,,,,,,,,,,,,,,,,,,,,,,,,,,,,,248.76417430000038,249.2696175000001,249.2696175000001,250.0221246000001,250.0221246000001,250.52479570000014,250.52479570000014,251.3106084000001,251.3106084000001,None,num_4,0.6575581999995848,251.3106084000001,None,,,,,,,,,,,,,,,,,,,,,,,,,,,,,,,,,,,,,,,,,,,,,,,,,,,,,,,,,,,,,,,,,,,,,,,,,,,,,,,34,001,1,22,475,375,2022_Oct_31_1105,Experiment,2021.1.4,360.2020012899052,
,,,,,,,,,,,,,,,,,,,,,,,,,,,,,,,,,,,,,,,,,,,,,,,,,,,,,,,,,,,,,,,,,,,,,,,,,,,,,,,,,,,,,,251.99929800000064,None,space,26.248299200000474,,,,,,,,,,,,,,,,,,,,,,,,,,,,,,,,,,,,,,,,,,,,,,,,,,,,,,,,,,,,,,,,,,,,,,,,,,,34,001,1,22,475,375,2022_Oct_31_1105,Experiment,2021.1.4,360.2020012899052,
images\S3_F_H_01.png,images\S3_F_H_01_scrambled.png,3,happy,10,female,4,,313,on,2,0.5,0.75,0.5,0.757,3,312,1,1,1,2,2,32,128,164,,,,,,0,0,0,0,,,,,,,,,,,,,,,,,,,,,,,,,,,,,,,,,,,,,,,,,,,,,,,,,,,,,,,,,278.7494704999999,279.24921129999984,279.24921129999984,279.99899950000054,279.99899950000054,280.5044437000006,280.5044437000006,281.2624794000003,281.2624794000003,None,num_4,0.6021305000003849,281.2624794000003,None,sad,0,Happy,281.8901947600005,None,None,281.8901947600005,None,,,,,,,,,,,,,,,,,,,,,,,,,,,,,,,,,,,,,,,,,,,,,,,,,,,,,34,001,1,22,475,375,2022_Oct_31_1105,Experiment,2021.1.4,360.2020012899052,
images\S8_M_H_01.png,images\S8_M_H_01_scrambled.png,8,happy,10,male,4,,403,off,1,0.5,0.75,0.5,0.903,3,402,1,1,2,0,0,0,0,4,,,,,,0,1,1,1,,,,,,,,,,,,,,,,,,,,,,,,,,,,,,,,,,,,,,,,,,,,,,,,,,,,,,,,,282.00114790000043,282.50656250000065,282.50656250000065,283.2591352999998,283.2591352999998,283.76171710000017,283.76171710000017,284.6698057000003,284.6698057000003,None,num_4,0.6740634999996473,284.6698057000003,None,sad,0,Happy,285.35288594000053,None,None,285.35288594000053,None,,,,,,,,,,,,,,,,,,,,,,,,,,,,,,,,,,,,,,,,,,,,,,,,,,,,,34,001,1,22,475,375,2022_Oct_31_1105,Experiment,2021.1.4,360.2020012899052,
images\S8_M_H_03.png,images\S8_M_H_03_scrambled.png,8,happy,30,male,6,,465,on,2,0.5,0.75,0.5,0.876,3,464,1,2,1,2,2,32,128,166,,,,,,0,2,2,2,,,,,,,,,,,,,,,,,,,,,,,,,,,,,,,,,,,,,,,,,,,,,,,,,,,,,,,,,285.4362234,285.9416003000006,285.9416003000006,286.69415000000026,286.69415000000026,287.19957760000034,287.19957760000034,288.0798201000007,288.0798201000007,None,num_6,0.5762758000000758,288.0798201000007,None,happy,0,Happy,288.67965136000004,None,None,288.67965136000004,None,,,,,,,,,,,,,,,,,,,,,,,,,,,,,,,,,,,,,,,,,,,,,,,,,,,,,34,001,1,22,475,375,2022_Oct_31_1105,Experiment,2021.1.4,360.2020012899052,
images\S1_F_S_01.png,images\S1_F_S_01_scrambled.png,1,sad,-10,female,3,,4,off,1,0.5,0.75,0.5,0.853,3,3,1,1,1,0,0,0,0,3,,,,,,0,3,3,3,,,,,,,,,,,,,,,,,,,,,,,,,,,,,,,,,,,,,,,,,,,,,,,,,,,,,,,,,288.7907234000004,289.2961107000001,289.2961107000001,290.04875489999995,290.04875489999995,290.5485372000003,290.5485372000003,291.4065945000002,291.4065945000002,None,num_4,0.8492746000001716,291.4065945000002,None,sad,0,Sad,292.26742708000023,None,None,292.26742708000023,None,,,,,,,,,,,,,,,,,,,,,,,,,,,,,,,,,,,,,,,,,,,,,,,,,,,,,34,001,1,22,475,375,2022_Oct_31_1105,Experiment,2021.1.4,360.2020012899052,
images\S4_M_S_02.png,images\S4_M_S_02_scrambled.png,4,sad,-20,male,2,,143,off,1,0.5,0.75,0.5,0.898,3,142,2,1,1,0,0,0,0,2,,,,,,0,4,4,4,,,,,,,,,,,,,,,,,,,,,,,,,,,,,,,,,,,,,,,,,,,,,,,,,,,,,,,,,292.3535141000002,292.85337940000045,292.85337940000045,293.60312150000027,293.60312150000027,294.1030027000006,294.1030027000006,295.0082540000003,295.0082540000003,None,num_4,0.695806800000355,295.0082540000003,None,sad,0,Sad,295.7246600000003,None,None,295.7246600000003,None,,,,,,,,,,,,,,,,,,,,,,,,,,,,,,,,,,,,,,,,,,,,,,,,,,,,,34,001,1,22,475,375,2022_Oct_31_1105,Experiment,2021.1.4,360.2020012899052,
images\S9_F_S_03.png,images\S9_F_S_03_scrambled.png,9,sad,-30,female,1,,354,on,2,0.5,0.75,0.5,0.853,3,353,1,1,1,2,2,32,128,161,,,,,,0,5,5,5,,,,,,,,,,,,,,,,,,,,,,,,,,,,,,,,,,,,,,,,,,,,,,,,,,,,,,,,,295.80800679999993,296.31340100000034,296.31340100000034,297.06315970000014,297.06315970000014,297.5630093999998,297.5630093999998,298.4211212,298.4211212,None,num_4,0.9069331000000602,298.4211212,None,sad,0,Sad,299.34301178000027,None,None,299.34301178000027,None,,,,,,,,,,,,,,,,,,,,,,,,,,,,,,,,,,,,,,,,,,,,,,,,,,,,,34,001,1,22,475,375,2022_Oct_31_1105,Experiment,2021.1.4,360.2020012899052,
images\S2_M_S_02.png,images\S2_M_S_02_scrambled.png,2,sad,-20,male,2,,11,off,1,0.5,0.75,0.5,0.827,3,10,1,1,1,0,0,0,0,2,,,,,,0,6,6,6,,,,,,,,,,,,,,,,,,,,,,,,,,,,,,,,,,,,,,,,,,,,,,,,,,,,,,,,,299.4263322000006,299.92894720000004,299.92894720000004,300.67871210000067,300.67871210000067,301.1842505000004,301.1842505000004,302.01720230000046,302.01720230000046,None,num_4,0.742664500000501,302.01720230000046,None,sad,0,Sad,302.77527607999986,None,None,302.77527607999986,None,,,,,,,,,,,,,,,,,,,,,,,,,,,,,,,,,,,,,,,,,,,,,,,,,,,,,34,001,1,22,475,375,2022_Oct_31_1105,Experiment,2021.1.4,360.2020012899052,
images\S5_F_S_01.png,images\S5_F_S_01_scrambled.png,5,sad,-10,female,3,,448,on,2,0.5,0.75,0.5,0.817,3,447,1,1,1,2,2,32,128,163,,,,,,0,7,7,7,,,,,,,,,,,,,,,,,,,,,,,,,,,,,,,,,,,,,,,,,,,,,,,,,,,,,,,,,302.85860930000035,303.36126440000044,303.36126440000044,304.11380330000065,304.11380330000065,304.61365190000015,304.61365190000015,305.4356292000002,305.4356292000002,None,num_6,0.5722821999997905,305.4356292000002,None,happy,0,Sad,306.0159585599998,None,None,306.0159585599998,None,,,,,,,,,,,,,,,,,,,,,,,,,,,,,,,,,,,,,,,,,,,,,,,,,,,,,34,001,1,22,475,375,2022_Oct_31_1105,Experiment,2021.1.4,360.2020012899052,
images\S7_F_S_03.png,images\S7_F_S_03_scrambled.png,7,sad,-30,female,1,,462,on,2,0.5,0.75,0.5,0.853,3,461,2,1,1,2,2,32,128,161,,,,,,0,8,8,8,,,,,,,,,,,,,,,,,,,,,,,,,,,,,,,,,,,,,,,,,,,,,,,,,,,,,,,,,306.1187082000006,306.61855430000014,306.61855430000014,307.3683150000006,307.3683150000006,307.8709415000003,307.8709415000003,308.7262810000002,308.7262810000002,None,num_4,0.6578670999997485,308.7262810000002,None,sad,0,Sad,309.3982381800001,None,None,309.3982381800001,None,,,,,,,,,,,,,,,,,,,,,,,,,,,,,,,,,,,,,,,,,,,,,,,,,,,,,34,001,1,22,475,375,2022_Oct_31_1105,Experiment,2021.1.4,360.2020012899052,
images\S10_M_H_03.png,images\S10_M_H_03_scrambled.png,10,happy,30,male,6,,537,off,1,0.5,0.75,0.5,0.852,3,536,1,1,1,0,0,0,0,6,,,,,,0,9,9,9,,,,,,,,,,,,,,,,,,,,,,,,,,,,,,,,,,,,,,,,,,,,,,,,,,,,,,,,,309.4815843000006,309.9869733000005,309.9869733000005,310.73949900000025,310.73949900000025,311.2393431999999,311.2393431999999,312.0946612000007,312.0946612000007,None,num_6,0.6170407999998133,312.0946612000007,None,happy,0,Happy,312.7222230800002,None,None,312.7222230800002,None,,,,,,,,,,,,,,,,,,,,,,,,,,,,,,,,,,,,,,,,,,,,,,,,,,,,,34,001,1,22,475,375,2022_Oct_31_1105,Experiment,2021.1.4,360.2020012899052,
images\S1_F_H_03.png,images\S1_F_H_03_scrambled.png,1,happy,30,female,6,,423,on,2,0.5,0.75,0.5,0.882,3,422,1,1,2,2,2,32,128,166,,,,,,0,10,10,10,,,,,,,,,,,,,,,,,,,,,,,,,,,,,,,,,,,,,,,,,,,,,,,,,,,,,,,,,312.83330060000026,313.3359637000003,313.3359637000003,314.0912822999999,314.0912822999999,314.5939070000004,314.5939070000004,315.48249300000043,315.48249300000043,None,num_6,0.7735202000003483,315.48249300000043,None,happy,0,Happy,316.2711133799998,None,None,316.2711133799998,None,,,,,,,,,,,,,,,,,,,,,,,,,,,,,,,,,,,,,,,,,,,,,,,,,,,,,34,001,1,22,475,375,2022_Oct_31_1105,Experiment,2021.1.4,360.2020012899052,
images\blank.jpg,images\blank.jpg,none,none,none,none,0,,622,on,2,0.5,0.75,0.5,0.763,0,621,2,1,1,3,3,48,192,240,,,,,,0,11,11,11,,,,,,,,,,,,,,,,,,,,,,,,,,,,,,,,,,,,,,,,,,,,,,,,,,,,,,,,,316.40485760000047,316.9099562000001,316.9099562000001,317.6652339000002,317.6652339000002,318.1705989000002,318.1705989000002,318.93984830000045,318.93984830000045,318.93984830000045,None,,318.93984830000045,None,miss,0,,321.9444392400003,None,None,321.9444392400003,None,,,,,,,,,,,,,,,,,,,,,,,,,,,,,,,,,,,,,,,,,,,,,,,,,,,,,34,001,1,22,475,375,2022_Oct_31_1105,Experiment,2021.1.4,360.2020012899052,
images\S3_F_H_01.png,images\S3_F_H_01_scrambled.png,3,happy,10,female,4,,373,off,1,0.5,0.75,0.5,0.759,3,372,1,1,1,0,0,0,0,4,,,,,,0,12,12,12,,,,,,,,,,,,,,,,,,,,,,,,,,,,,,,,,,,,,,,,,,,,,,,,,,,,,,,,,322.06401090000054,322.5664373999998,322.5664373999998,323.32174080000004,323.32174080000004,323.8271469000001,323.8271469000001,324.5908238000002,324.5908238000002,None,num_4,0.5053416000000652,324.5908238000002,322.06401090000054,sad,0,Happy,325.1072814600005,None,None,325.1072814600005,None,,,,,,,,,,,,,,,,,,,,,,,,,,,,,,,,,,,,,,,,,,,,,,,,,,,,,34,001,1,22,475,375,2022_Oct_31_1105,Experiment,2021.1.4,360.2020012899052,
images\S9_F_S_03.png,images\S9_F_S_03_scrambled.png,9,sad,-30,female,1,,594,on,2,0.5,0.75,0.5,0.814,3,593,1,1,1,2,2,32,128,161,,,,,,0,13,13,13,,,,,,,,,,,,,,,,,,,,,,,,,,,,,,,,,,,,,,,,,,,,,,,,,,,,,,,,,325.17394030000014,325.67658420000043,325.67658420000043,326.4319036000006,326.4319036000006,326.9345208000004,326.9345208000004,327.75096250000024,327.75096250000024,None,num_4,0.64088670000001,327.75096250000024,None,sad,0,Sad,328.40348578000015,None,None,328.40348578000015,None,,,,,,,,,,,,,,,,,,,,,,,,,,,,,,,,,,,,,,,,,,,,,,,,,,,,,34,001,1,22,475,375,2022_Oct_31_1105,Experiment,2021.1.4,360.2020012899052,
images\S9_F_H_01.png,images\S9_F_H_01_scrambled.png,9,happy,10,female,4,,49,off,1,0.5,0.75,0.5,0.879,3,48,1,2,1,0,0,0,0,4,,,,,,0,14,14,14,,,,,,,,,,,,,,,,,,,,,,,,,,,,,,,,,,,,,,,,,,,,,,,,,,,,,,,,,328.4868105000005,328.99221990000024,328.99221990000024,329.74477060000027,329.74477060000027,330.2502347999998,330.2502347999998,331.1360257000006,331.1360257000006,None,num_6,0.7518399999999019,331.1360257000006,None,happy,0,Happy,331.9024215000004,None,None,331.9024215000004,None,,,,,,,,,,,,,,,,,,,,,,,,,,,,,,,,,,,,,,,,,,,,,,,,,,,,,34,001,1,22,475,375,2022_Oct_31_1105,Experiment,2021.1.4,360.2020012899052,
images\S1_F_H_03.png,images\S1_F_H_03_scrambled.png,1,happy,30,female,6,,63,on,2,0.5,0.75,0.5,0.78,3,62,1,1,1,2,2,32,128,166,,,,,,0,15,15,15,,,,,,,,,,,,,,,,,,,,,,,,,,,,,,,,,,,,,,,,,,,,,,,,,,,,,,,,,331.9551584000001,332.4550221999998,332.4550221999998,333.20757440000034,333.20757440000034,333.71027890000005,333.71027890000005,334.4905140000001,334.4905140000001,None,num_6,0.5655759000001126,334.4905140000001,None,happy,0,Happy,335.07087197999994,None,None,335.07087197999994,None,,,,,,,,,,,,,,,,,,,,,,,,,,,,,,,,,,,,,,,,,,,,,,,,,,,,,34,001,1,22,475,375,2022_Oct_31_1105,Experiment,2021.1.4,360.2020012899052,
images\S1_F_H_02.png,images\S1_F_H_02_scrambled.png,1,happy,20,female,5,,242,off,1,0.5,0.75,0.5,0.802,3,241,1,2,1,0,0,0,0,5,,,,,,0,16,16,16,,,,,,,,,,,,,,,,,,,,,,,,,,,,,,,,,,,,,,,,,,,,,,,,,,,,,,,,,335.1514281,335.6568320000006,335.6568320000006,336.41214820000005,336.41214820000005,336.9148974999998,336.9148974999998,337.7201816000006,337.7201816000006,None,num_6,0.7117840999999316,337.7201816000006,None,happy,0,Happy,338.4420720800003,None,None,338.4420720800003,None,,,,,,,,,,,,,,,,,,,,,,,,,,,,,,,,,,,,,,,,,,,,,,,,,,,,,34,001,1,22,475,375,2022_Oct_31_1105,Experiment,2021.1.4,360.2020012899052,
images\S5_F_H_03.png,images\S5_F_H_03_scrambled.png,5,happy,30,female,6,,387,off,1,0.5,0.75,0.5,0.925,3,386,2,1,1,0,0,0,0,6,,,,,,0,17,17,17,,,,,,,,,,,,,,,,,,,,,,,,,,,,,,,,,,,,,,,,,,,,,,,,,,,,,,,,,338.52537889999985,339.03081269999984,339.03081269999984,339.78613029999997,339.78613029999997,340.2915235999999,340.2915235999999,341.2191373000005,341.2191373000005,None,num_6,0.6049432999998317,341.2191373000005,None,happy,0,Happy,341.83823098000033,None,None,341.83823098000033,None,,,,,,,,,,,,,,,,,,,,,,,,,,,,,,,,,,,,,,,,,,,,,,,,,,,,,34,001,1,22,475,375,2022_Oct_31_1105,Experiment,2021.1.4,360.2020012899052,
images\S10_M_H_01.png,images\S10_M_H_01_scrambled.png,10,happy,10,male,4,,355,on,2,0.5,0.75,0.5,0.913,3,354,1,1,1,2,2,32,128,164,,,,,,0,18,18,18,,,,,,,,,,,,,,,,,,,,,,,,,,,,,,,,,,,,,,,,,,,,,,,,,,,,,,,,,341.9215602000004,342.42417280000063,342.42417280000063,343.1796125999999,343.1796125999999,343.679341,343.679341,344.59576990000005,344.59576990000005,None,num_6,0.6440791999993962,344.59576990000005,None,happy,0,Happy,345.2510821800001,None,None,345.2510821800001,None,,,,,,,,,,,,,,,,,,,,,,,,,,,,,,,,,,,,,,,,,,,,,,,,,,,,,34,001,1,22,475,375,2022_Oct_31_1105,Experiment,2021.1.4,360.2020012899052,
images\S4_M_S_03.png,images\S4_M_S_03_scrambled.png,4,sad,-30,male,1,,144,off,1,0.5,0.75,0.5,0.931,3,143,1,1,1,0,0,0,0,1,,,,,,0,19,19,19,,,,,,,,,,,,,,,,,,,,,,,,,,,,,,,,,,,,,,,,,,,,,,,,,,,,,,,,,345.33440100000007,345.83702690000064,345.83702690000064,346.5896904000001,346.5896904000001,347.09508800000003,347.09508800000003,348.02801030000046,348.02801030000046,None,num_4,0.6200600000001941,348.02801030000046,None,sad,0,Sad,348.66113567999986,None,None,348.66113567999986,None,,,,,,,,,,,,,,,,,,,,,,,,,,,,,,,,,,,,,,,,,,,,,,,,,,,,,34,001,1,22,475,375,2022_Oct_31_1105,Experiment,2021.1.4,360.2020012899052,
images\S10_M_S_02.png,images\S10_M_S_02_scrambled.png,10,sad,-20,male,2,,179,off,1,0.5,0.75,0.5,0.904,3,178,2,1,1,0,0,0,0,2,,,,,,0,20,20,20,,,,,,,,,,,,,,,,,,,,,,,,,,,,,,,,,,,,,,,,,,,,,,,,,,,,,,,,,348.7444513999999,349.24995300000046,349.24995300000046,349.9996415000005,349.9996415000005,350.50225520000004,350.50225520000004,351.4103543000001,351.4103543000001,None,num_6,0.5494547999996939,351.4103543000001,None,happy,0,Sad,351.96566413999994,None,None,351.96566413999994,None,,,,,,,,,,,,,,,,,,,,,,,,,,,,,,,,,,,,,,,,,,,,,,,,,,,,,34,001,1,22,475,375,2022_Oct_31_1105,Experiment,2021.1.4,360.2020012899052,
images\blank.jpg,images\blank.jpg,none,none,none,none,0,,609,on,2,0.5,0.75,0.5,0.786,0,608,1,1,1,3,3,48,192,240,,,,,,0,21,21,21,,,,,,,,,,,,,,,,,,,,,,,,,,,,,,,,,,,,,,,,,,,,,,,,,,,,,,,,,352.0492279,352.5516271000006,352.5516271000006,353.3069452999998,353.3069452999998,353.80954440000005,353.80954440000005,354.5982401000001,354.5982401000001,354.5982401000001,None,,354.5982401000001,None,miss,0,,357.6000662200005,None,None,357.6000662200005,None,,,,,,,,,,,,,,,,,,,,,,,,,,,,,,,,,,,,,,,,,,,,,,,,,,,,,34,001,1,22,475,375,2022_Oct_31_1105,Experiment,2021.1.4,360.2020012899052,
images\S2_M_S_03.png,images\S2_M_S_03_scrambled.png,2,sad,-30,male,1,,312,on,2,0.5,0.75,0.5,0.95,3,311,2,1,1,2,2,32,128,161,,,,,,0,22,22,22,,,,,,,,,,,,,,,,,,,,,,,,,,,,,,,,,,,,,,,,,,,,,,,,,,,,,,,,,357.75011600000016,358.25263470000027,358.25263470000027,359.0051936,359.0051936,359.5078020000001,359.5078020000001,360.4603308000005,360.4603308000005,None,num_4,0.5958458000004612,360.4603308000005,357.75011600000016,sad,0,Sad,361.07405640000025,None,None,361.07405640000025,None,,,,,,,,,,,,,,,,,,,,,,,,,,,,,,,,,,,,,,,,,,,,,,,,,,,,,34,001,1,22,475,375,2022_Oct_31_1105,Experiment,2021.1.4,360.2020012899052,
images\S1_F_S_03.png,images\S1_F_S_03_scrambled.png,1,sad,-30,female,1,,126,off,1,0.5,0.75,0.5,0.766,3,125,1,1,2,0,0,0,0,1,,,,,,0,23,23,23,,,,,,,,,,,,,,,,,,,,,,,,,,,,,,,,,,,,,,,,,,,,,,,,,,,,,,,,,361.19338849999986,361.6932375000006,361.6932375000006,362.4458164000007,362.4458164000007,362.94840170000043,362.94840170000043,363.7204360000005,363.7204360000005,None,num_4,0.9916463999998086,363.7204360000005,None,sad,0,Sad,364.74227189999965,None,None,364.74227189999965,None,,,,,,,,,,,,,,,,,,,,,,,,,,,,,,,,,,,,,,,,,,,,,,,,,,,,,34,001,1,22,475,375,2022_Oct_31_1105,Experiment,2021.1.4,360.2020012899052,
images\S10_M_H_03.png,images\S10_M_H_03_scrambled.png,10,happy,30,male,6,,597,on,2,0.5,0.75,0.5,0.855,3,596,1,1,1,2,2,32,128,166,,,,,,0,24,24,24,,,,,,,,,,,,,,,,,,,,,,,,,,,,,,,,,,,,,,,,,,,,,,,,,,,,,,,,,364.7978275000005,365.2976847,365.2976847,366.05023729999994,366.05023729999994,366.5556465999998,366.5556465999998,367.41367810000065,367.41367810000065,None,num_6,0.5068126999995002,367.41367810000065,None,happy,0,Happy,367.9468405599999,None,None,367.9468405599999,None,,,,,,,,,,,,,,,,,,,,,,,,,,,,,,,,,,,,,,,,,,,,,,,,,,,,,34,001,1,22,475,375,2022_Oct_31_1105,Experiment,2021.1.4,360.2020012899052,
images\S6_M_S_01.png,images\S6_M_S_01_scrambled.png,6,sad,-10,male,3,,334,on,2,0.5,0.75,0.5,0.922,3,333,2,1,1,2,2,32,128,163,,,,,,0,25,25,25,,,,,,,,,,,,,,,,,,,,,,,,,,,,,,,,,,,,,,,,,,,,,,,,,,,,,,,,,368.0551538999998,368.5577831999999,368.5577831999999,369.3131056000002,369.3131056000002,369.8129456000006,369.8129456000006,370.74049749999995,370.74049749999995,None,num_4,0.899337299999388,370.74049749999995,None,sad,0,Sad,371.65403457999986,None,None,371.65403457999986,None,,,,,,,,,,,,,,,,,,,,,,,,,,,,,,,,,,,,,,,,,,,,,,,,,,,,,34,001,1,22,475,375,2022_Oct_31_1105,Experiment,2021.1.4,360.2020012899052,
images\S5_F_H_03.png,images\S5_F_H_03_scrambled.png,5,happy,30,female,6,,147,off,1,0.5,0.75,0.5,0.861,3,146,1,1,1,0,0,0,0,6,,,,,,0,26,26,26,,,,,,,,,,,,,,,,,,,,,,,,,,,,,,,,,,,,,,,,,,,,,,,,,,,,,,,,,371.7012571000005,372.2040170999999,372.2040170999999,372.9536723000001,372.9536723000001,373.4535298999999,373.4535298999999,374.3143485999999,374.3143485999999,None,num_6,1.2695542999999816,374.3143485999999,None,happy,0,Happy,375.59450898000017,None,None,375.59450898000017,None,,,,,,,,,,,,,,,,,,,,,,,,,,,,,,,,,,,,,,,,,,,,,,,,,,,,,34,001,1,22,475,375,2022_Oct_31_1105,Experiment,2021.1.4,360.2020012899052,
images\S8_M_H_03.png,images\S8_M_H_03_scrambled.png,8,happy,30,male,6,,345,on,2,0.5,0.75,0.5,0.787,3,344,1,1,2,2,2,32,128,166,,,,,,0,27,27,27,,,,,,,,,,,,,,,,,,,,,,,,,,,,,,,,,,,,,,,,,,,,,,,,,,,,,,,,,375.64450060000036,376.1471231000005,376.1471231000005,376.8997915,376.8997915,377.4051853000001,377.4051853000001,378.19938770000044,378.19938770000044,None,num_6,0.616649900000084,378.19938770000044,None,happy,0,Happy,378.8380227599999,None,None,378.8380227599999,None,,,,,,,,,,,,,,,,,,,,,,,,,,,,,,,,,,,,,,,,,,,,,,,,,,,,,34,001,1,22,475,375,2022_Oct_31_1105,Experiment,2021.1.4,360.2020012899052,
images\S7_F_H_01.png,images\S7_F_H_01_scrambled.png,7,happy,10,female,4,,517,off,1,0.5,0.75,0.5,0.846,3,516,1,1,1,0,0,0,0,4,,,,,,0,28,28,28,,,,,,,,,,,,,,,,,,,,,,,,,,,,,,,,,,,,,,,,,,,,,,,,,,,,,,,,,378.9490181000001,379.45167370000036,379.45167370000036,380.20698170000014,380.20698170000014,380.70961440000065,380.70961440000065,381.5594632000002,381.5594632000002,None,num_4,0.6722527000001719,381.5594632000002,None,sad,0,Happy,382.2368679399999,None,None,382.2368679399999,None,,,,,,,,,,,,,,,,,,,,,,,,,,,,,,,,,,,,,,,,,,,,,,,,,,,,,34,001,1,22,475,375,2022_Oct_31_1105,Experiment,2021.1.4,360.2020012899052,
images\S4_M_H_03.png,images\S4_M_H_03_scrambled.png,4,happy,30,male,6,,141,off,1,0.5,0.75,0.5,0.905,3,140,2,1,1,0,0,0,0,6,,,,,,0,29,29,29,,,,,,,,,,,,,,,,,,,,,,,,,,,,,,,,,,,,,,,,,,,,,,,,,,,,,,,,,382.34797210000033,382.8506010000001,382.8506010000001,383.6003668000003,383.6003668000003,384.10579980000057,384.10579980000057,385.0138532000001,385.0138532000001,None,num_6,0.8184133000004294,385.0138532000001,None,happy,0,Happy,385.85252102000015,None,None,385.85252102000015,None,,,,,,,,,,,,,,,,,,,,,,,,,,,,,,,,,,,,,,,,,,,,,,,,,,,,,34,001,1,22,475,375,2022_Oct_31_1105,Experiment,2021.1.4,360.2020012899052,
images\S7_F_S_03.png,images\S7_F_S_03_scrambled.png,7,sad,-30,female,1,,162,off,1,0.5,0.75,0.5,0.813,3,161,3,1,1,0,0,0,0,1,,,,,,0,30,30,30,,,,,,,,,,,,,,,,,,,,,,,,,,,,,,,,,,,,,,,,,,,,,,,,,,,,,,,,,385.9052089000006,386.4078290000007,386.4078290000007,387.1603679,387.1603679,387.66021770000043,387.66021770000043,388.47662840000066,388.47662840000066,None,num_4,0.6272935999995752,388.47662840000066,None,sad,0,Sad,389.1293436399999,None,None,389.1293436399999,None,,,,,,,,,,,,,,,,,,,,,,,,,,,,,,,,,,,,,,,,,,,,,,,,,,,,,34,001,1,22,475,375,2022_Oct_31_1105,Experiment,2021.1.4,360.2020012899052,
images\S9_F_H_03.png,images\S9_F_H_03_scrambled.png,9,happy,30,female,6,,291,off,1,0.5,0.75,0.5,0.901,3,290,4,1,1,0,0,0,0,6,,,,,,0,31,31,31,,,,,,,,,,,,,,,,,,,,,,,,,,,,,,,,,,,,,,,,,,,,,,,,,,,,,,,,,389.24039080000057,389.74574610000036,389.74574610000036,390.4954643000001,390.4954643000001,390.9953024000006,390.9953024000006,391.9006395000006,391.9006395000006,None,num_6,0.5711217999996734,391.9006395000006,None,happy,0,Happy,392.49761888000006,None,None,392.49761888000006,None,,,,,,,,,,,,,,,,,,,,,,,,,,,,,,,,,,,,,,,,,,,,,,,,,,,,,34,001,1,22,475,375,2022_Oct_31_1105,Experiment,2021.1.4,360.2020012899052,
images\S2_M_S_03.png,images\S2_M_S_03_scrambled.png,2,sad,-30,male,1,,552,on,2,0.5,0.75,0.5,0.782,3,551,1,1,1,2,2,32,128,161,,,,,,0,32,32,32,,,,,,,,,,,,,,,,,,,,,,,,,,,,,,,,,,,,,,,,,,,,,,,,,,,,,,,,,392.5531609999998,393.05868569999984,393.05868569999984,393.8111335000003,393.8111335000003,394.3165256000002,394.3165256000002,395.1052303000006,395.1052303000006,None,num_4,0.6786532000005536,395.1052303000006,None,sad,0,Sad,395.7965969800002,None,None,395.7965969800002,None,,,,,,,,,,,,,,,,,,,,,,,,,,,,,,,,,,,,,,,,,,,,,,,,,,,,,34,001,1,22,475,375,2022_Oct_31_1105,Experiment,2021.1.4,360.2020012899052,
images\blank.jpg,images\blank.jpg,none,none,none,none,0,,637,on,2,0.5,0.75,0.5,0.851,0,636,2,1,1,3,3,48,192,240,,,,,,0,33,33,33,,,,,,,,,,,,,,,,,,,,,,,,,,,,,,,,,,,,,,,,,,,,,,,,,,,,,,,,,395.88012849999996,396.3825402000002,396.3825402000002,397.13515520000055,397.13515520000055,397.64053260000037,397.64053260000037,398.49580270000024,398.49580270000024,398.49580270000024,None,,398.49580270000024,None,miss,0,,401.5004519400002,None,None,401.5004519400002,None,,,,,,,,,,,,,,,,,,,,,,,,,,,,,,,,,,,,,,,,,,,,,,,,,,,,,34,001,1,22,475,375,2022_Oct_31_1105,Experiment,2021.1.4,360.2020012899052,
images\S10_M_S_03.png,images\S10_M_S_03_scrambled.png,10,sad,-30,male,1,,420,off,1,0.5,0.75,0.5,0.813,3,419,1,1,1,0,0,0,0,1,,,,,,0,34,34,34,,,,,,,,,,,,,,,,,,,,,,,,,,,,,,,,,,,,,,,,,,,,,,,,,,,,,,,,,401.66162690000056,402.16687619999993,402.16687619999993,402.9195405999999,402.9195405999999,403.42493730000024,403.42493730000024,404.2440073000007,404.2440073000007,None,num_4,0.5081546999999773,404.2440073000007,401.66162690000056,sad,0,Sad,404.76605198000055,None,None,404.76605198000055,None,,,,,,,,,,,,,,,,,,,,,,,,,,,,,,,,,,,,,,,,,,,,,,,,,,,,,34,001,1,22,475,375,2022_Oct_31_1105,Experiment,2021.1.4,360.2020012899052,
images\S3_F_H_03.png,images\S3_F_H_03_scrambled.png,3,happy,30,female,6,,555,on,2,0.5,0.75,0.5,0.923,3,554,1,1,1,2,2,32,128,166,,,,,,0,35,35,35,,,,,,,,,,,,,,,,,,,,,,,,,,,,,,,,,,,,,,,,,,,,,,,,,,,,,,,,,404.8521724000002,405.3549090000006,405.3549090000006,406.1101956000002,406.1101956000002,406.6099456000002,406.6099456000002,407.54026090000025,407.54026090000025,None,num_6,0.5875520000008692,407.54026090000025,None,happy,0,Happy,408.1427819800005,None,None,408.1427819800005,None,,,,,,,,,,,,,,,,,,,,,,,,,,,,,,,,,,,,,,,,,,,,,,,,,,,,,34,001,1,22,475,375,2022_Oct_31_1105,Experiment,2021.1.4,360.2020012899052,
images\S9_F_S_03.png,images\S9_F_S_03_scrambled.png,9,sad,-30,female,1,,54,off,1,0.5,0.75,0.5,0.949,3,53,1,1,1,0,0,0,0,1,,,,,,0,36,36,36,,,,,,,,,,,,,,,,,,,,,,,,,,,,,,,,,,,,,,,,,,,,,,,,,,,,,,,,,408.19000510000023,408.6926338000003,408.6926338000003,409.4479500000007,409.4479500000007,409.95059560000027,409.95059560000027,410.90305510000053,410.90305510000053,None,num_4,0.49712650000037684,410.90305510000053,None,sad,0,Sad,411.4196663400005,None,None,411.4196663400005,None,,,,,,,,,,,,,,,,,,,,,,,,,,,,,,,,,,,,,,,,,,,,,,,,,,,,,34,001,1,22,475,375,2022_Oct_31_1105,Experiment,2021.1.4,360.2020012899052,
images\S2_M_H_03.png,images\S2_M_H_03_scrambled.png,2,happy,30,male,6,,249,off,1,0.5,0.75,0.5,0.794,3,248,2,1,1,0,0,0,0,6,,,,,,0,37,37,37,,,,,,,,,,,,,,,,,,,,,,,,,,,,,,,,,,,,,,,,,,,,,,,,,,,,,,,,,411.525087,412.0249819999999,412.0249819999999,412.77747069999987,412.77747069999987,413.28016370000023,413.28016370000023,414.0799741000001,414.0799741000001,None,num_6,0.6080145999994784,414.0799741000001,None,happy,0,Happy,414.7018671800001,None,None,414.7018671800001,None,,,,,,,,,,,,,,,,,,,,,,,,,,,,,,,,,,,,,,,,,,,,,,,,,,,,,34,001,1,22,475,375,2022_Oct_31_1105,Experiment,2021.1.4,360.2020012899052,
images\S8_M_H_02.png,images\S8_M_H_02_scrambled.png,8,happy,20,male,5,,44,off,1,0.5,0.75,0.5,0.949,3,43,3,1,1,0,0,0,0,5,,,,,,0,38,38,38,,,,,,,,,,,,,,,,,,,,,,,,,,,,,,,,,,,,,,,,,,,,,,,,,,,,,,,,,414.7851879,415.2878123999999,415.2878123999999,416.0404087000006,416.0404087000006,416.5457931000001,416.5457931000001,417.50105540000004,417.50105540000004,None,num_4,0.48298030000023573,417.50105540000004,None,sad,0,Happy,417.9925208400002,None,None,417.9925208400002,None,,,,,,,,,,,,,,,,,,,,,,,,,,,,,,,,,,,,,,,,,,,,,,,,,,,,,34,001,1,22,475,375,2022_Oct_31_1105,Experiment,2021.1.4,360.2020012899052,
images\S8_M_S_02.png,images\S8_M_S_02_scrambled.png,8,sad,-20,male,2,,587,on,2,0.5,0.75,0.5,0.775,3,586,1,2,1,2,2,32,128,162,,,,,,0,39,39,39,,,,,,,,,,,,,,,,,,,,,,,,,,,,,,,,,,,,,,,,,,,,,,,,,,,,,,,,,418.0758411000006,418.5756801000007,418.5756801000007,419.3310461000001,419.3310461000001,419.83085220000066,419.83085220000066,420.6111920000003,420.6111920000003,None,num_4,0.6046842000005199,420.6111920000003,None,sad,0,Sad,421.23041398000026,None,None,421.23041398000026,None,,,,,,,,,,,,,,,,,,,,,,,,,,,,,,,,,,,,,,,,,,,,,,,,,,,,,34,001,1,22,475,375,2022_Oct_31_1105,Experiment,2021.1.4,360.2020012899052,
images\S8_M_H_01.png,images\S8_M_H_01_scrambled.png,8,happy,10,male,4,,163,off,1,0.5,0.75,0.5,0.94,3,162,1,3,1,0,0,0,0,4,,,,,,0,40,40,40,,,,,,,,,,,,,,,,,,,,,,,,,,,,,,,,,,,,,,,,,,,,,,,,,,,,,,,,,421.27763529999993,421.78303330000017,421.78303330000017,422.53561420000005,422.53561420000005,423.03819960000055,423.03819960000055,423.98519399999986,423.98519399999986,None,num_4,0.5585535000000164,423.98519399999986,None,sad,0,Happy,424.5488630400007,None,None,424.5488630400007,None,,,,,,,,,,,,,,,,,,,,,,,,,,,,,,,,,,,,,,,,,,,,,,,,,,,,,34,001,1,22,475,375,2022_Oct_31_1105,Experiment,2021.1.4,360.2020012899052,
images\S7_F_H_02.png,images\S7_F_H_02_scrambled.png,7,happy,20,female,5,,518,off,1,0.5,0.75,0.5,0.906,3,517,2,1,1,0,0,0,0,5,,,,,,0,41,41,41,,,,,,,,,,,,,,,,,,,,,,,,,,,,,,,,,,,,,,,,,,,,,,,,,,,,,,,,,424.6571420999999,425.1599083000001,425.1599083000001,425.9095504000006,425.9095504000006,426.41499269999986,426.41499269999986,427.3258034999999,427.3258034999999,None,num_6,0.4500324000000546,427.3258034999999,None,happy,0,Happy,427.7894985799998,None,None,427.7894985799998,None,,,,,,,,,,,,,,,,,,,,,,,,,,,,,,,,,,,,,,,,,,,,,,,,,,,,,34,001,1,22,475,375,2022_Oct_31_1105,Experiment,2021.1.4,360.2020012899052,
images\S7_F_H_02.png,images\S7_F_H_02_scrambled.png,7,happy,20,female,5,,278,off,1,0.5,0.75,0.5,0.941,3,277,3,2,2,0,0,0,0,5,,,,,,0,42,42,42,,,,,,,,,,,,,,,,,,,,,,,,,,,,,,,,,,,,,,,,,,,,,,,,,,,,,,,,,427.83672970000043,428.3394765000003,428.3394765000003,429.0891027000007,429.0891027000007,429.5946330000006,429.5946330000006,430.5414660000006,430.5414660000006,None,num_6,1.0588596000006874,430.5414660000006,None,happy,0,Happy,431.61332908000026,None,None,431.61332908000026,None,,,,,,,,,,,,,,,,,,,,,,,,,,,,,,,,,,,,,,,,,,,,,,,,,,,,,34,001,1,22,475,375,2022_Oct_31_1105,Experiment,2021.1.4,360.2020012899052,
images\S10_M_H_03.png,images\S10_M_H_03_scrambled.png,10,happy,30,male,6,,357,on,2,0.5,0.75,0.5,0.835,3,356,1,1,1,2,2,32,128,166,,,,,,0,43,43,43,,,,,,,,,,,,,,,,,,,,,,,,,,,,,,,,,,,,,,,,,,,,,,,,,,,,,,,,,431.6605446000003,432.16316410000036,432.16316410000036,432.9129842000002,432.9129842000002,433.4128258999999,433.4128258999999,434.2514307000001,434.2514307000001,None,num_6,0.5162709000005634,434.2514307000001,None,happy,0,Happy,434.79565470000034,None,None,434.79565470000034,None,,,,,,,,,,,,,,,,,,,,,,,,,,,,,,,,,,,,,,,,,,,,,,,,,,,,,34,001,1,22,475,375,2022_Oct_31_1105,Experiment,2021.1.4,360.2020012899052,
images\S5_F_S_02.png,images\S5_F_S_02_scrambled.png,5,sad,-20,female,2,,329,on,2,0.5,0.75,0.5,0.894,3,328,2,1,1,2,2,32,128,162,,,,,,0,44,44,44,,,,,,,,,,,,,,,,,,,,,,,,,,,,,,,,,,,,,,,,,,,,,,,,,,,,,,,,,434.87899449999986,435.38455310000063,435.38455310000063,436.1398405,436.1398405,436.64518510000016,436.64518510000016,437.5392752000007,437.5392752000007,None,num_4,0.8846456999999646,437.5392752000007,None,sad,0,Sad,438.4389898800004,None,None,438.4389898800004,None,,,,,,,,,,,,,,,,,,,,,,,,,,,,,,,,,,,,,,,,,,,,,,,,,,,,,34,001,1,22,475,375,2022_Oct_31_1105,Experiment,2021.1.4,360.2020012899052,
images\S10_M_H_01.png,images\S10_M_H_01_scrambled.png,10,happy,10,male,4,,535,off,1,0.5,0.75,0.5,0.797,3,534,1,1,1,0,0,0,0,4,,,,,,0,45,45,45,,,,,,,,,,,,,,,,,,,,,,,,,,,,,,,,,,,,,,,,,,,,,,,,,,,,,,,,,438.48899100000017,438.99162520000027,438.99162520000027,439.7442910999998,439.7442910999998,440.24399770000036,440.24399770000036,441.04655730000013,441.04655730000013,None,num_6,0.609315499999866,441.04655730000013,None,happy,0,Happy,441.6713345800003,None,None,441.6713345800003,None,,,,,,,,,,,,,,,,,,,,,,,,,,,,,,,,,,,,,,,,,,,,,,,,,,,,,34,001,1,22,475,375,2022_Oct_31_1105,Experiment,2021.1.4,360.2020012899052,
images\blank.jpg,images\blank.jpg,none,none,none,none,0,,602,on,2,0.5,0.75,0.5,0.843,0,601,1,1,1,3,3,48,192,240,,,,,,0,46,46,46,,,,,,,,,,,,,,,,,,,,,,,,,,,,,,,,,,,,,,,,,,,,,,,,,,,,,,,,,441.7548753000001,442.2545261000005,442.2545261000005,443.0042895000006,443.0042895000006,443.50410439999996,443.50410439999996,444.34834630000023,444.34834630000023,444.34834630000023,None,,444.34834630000023,None,miss,0,,447.35022032000063,None,None,447.35022032000063,None,,,,,,,,,,,,,,,,,,,,,,,,,,,,,,,,,,,,,,,,,,,,,,,,,,,,,34,001,1,22,475,375,2022_Oct_31_1105,Experiment,2021.1.4,360.2020012899052,
images\S10_M_S_01.png,images\S10_M_S_01_scrambled.png,10,sad,-10,male,3,,478,on,2,0.5,0.75,0.5,0.925,3,477,2,1,1,2,2,32,128,163,,,,,,0,47,47,47,,,,,,,,,,,,,,,,,,,,,,,,,,,,,,,,,,,,,,,,,,,,,,,,,,,,,,,,,447.5057635000003,448.01109630000064,448.01109630000064,448.76081650000015,448.76081650000015,449.2634386,449.2634386,450.1909747999998,450.1909747999998,None,num_4,1.6967777999998361,450.1909747999998,447.5057635000003,sad,0,Sad,451.9015116800005,None,None,451.9015116800005,None,,,,,,,,,,,,,,,,,,,,,,,,,,,,,,,,,,,,,,,,,,,,,,,,,,,,,34,001,1,22,475,375,2022_Oct_31_1105,Experiment,2021.1.4,360.2020012899052,
images\S2_M_H_02.png,images\S2_M_H_02_scrambled.png,2,happy,20,male,5,,188,on,2,0.5,0.75,0.5,0.925,3,187,3,1,1,2,2,32,128,165,,,,,,0,48,48,48,,,,,,,,,,,,,,,,,,,,,,,,,,,,,,,,,,,,,,,,,,,,,,,,,,,,,,,,,451.9848361000004,452.4902712000003,452.4902712000003,453.2455851000004,453.2455851000004,453.7509770000006,453.7509770000006,454.6812398000002,454.6812398000002,None,num_6,0.3985216999999466,454.6812398000002,None,happy,0,Happy,455.1088464800004,None,None,455.1088464800004,None,,,,,,,,,,,,,,,,,,,,,,,,,,,,,,,,,,,,,,,,,,,,,,,,,,,,,34,001,1,22,475,375,2022_Oct_31_1105,Experiment,2021.1.4,360.2020012899052,
images\S10_M_S_03.png,images\S10_M_S_03_scrambled.png,10,sad,-30,male,1,,360,on,2,0.5,0.75,0.5,0.907,3,359,4,1,1,2,2,32,128,161,,,,,,0,49,49,49,,,,,,,,,,,,,,,,,,,,,,,,,,,,,,,,,,,,,,,,,,,,,,,,,,,,,,,,,455.1588485000002,455.66148990000056,455.66148990000056,456.4168047000003,456.4168047000003,456.91954010000063,456.91954010000063,457.83024300000034,457.83024300000034,None,num_4,0.5217636999996103,457.83024300000034,None,sad,0,Sad,458.3661750800006,None,None,458.3661750800006,None,,,,,,,,,,,,,,,,,,,,,,,,,,,,,,,,,,,,,,,,,,,,,,,,,,,,,34,001,1,22,475,375,2022_Oct_31_1105,Experiment,2021.1.4,360.2020012899052,
images\S3_F_H_02.png,images\S3_F_H_02_scrambled.png,3,happy,20,female,5,,74,on,2,0.5,0.75,0.5,0.754,3,73,5,1,1,2,2,32,128,165,,,,,,0,50,50,50,,,,,,,,,,,,,,,,,,,,,,,,,,,,,,,,,,,,,,,,,,,,,,,,,,,,,,,,,458.4467211000001,458.9521398000006,458.9521398000006,459.70188450000023,459.70188450000023,460.2045025000007,460.2045025000007,460.9654423000002,460.9654423000002,None,num_4,0.9224113000000216,460.9654423000002,None,sad,0,Happy,461.8956608600004,None,None,461.8956608600004,None,,,,,,,,,,,,,,,,,,,,,,,,,,,,,,,,,,,,,,,,,,,,,,,,,,,,,34,001,1,22,475,375,2022_Oct_31_1105,Experiment,2021.1.4,360.2020012899052,
images\S8_M_S_02.png,images\S8_M_S_02_scrambled.png,8,sad,-20,male,2,,527,off,1,0.5,0.75,0.5,0.836,3,526,1,1,1,0,0,0,0,2,,,,,,0,51,51,51,,,,,,,,,,,,,,,,,,,,,,,,,,,,,,,,,,,,,,,,,,,,,,,,,,,,,,,,,461.9650835000002,462.4705197000003,462.4705197000003,463.2230666000005,463.2230666000005,463.7256914999998,463.7256914999998,464.56705070000044,464.56705070000044,None,num_4,0.4890750999993543,464.56705070000044,None,sad,0,Sad,465.08365526000017,None,None,465.08365526000017,None,,,,,,,,,,,,,,,,,,,,,,,,,,,,,,,,,,,,,,,,,,,,,,,,,,,,,34,001,1,22,475,375,2022_Oct_31_1105,Experiment,2021.1.4,360.2020012899052,
images\S9_F_H_01.png,images\S9_F_H_01_scrambled.png,9,happy,10,female,4,,409,off,1,0.5,0.75,0.5,0.886,3,408,2,1,1,0,0,0,0,4,,,,,,0,52,52,52,,,,,,,,,,,,,,,,,,,,,,,,,,,,,,,,,,,,,,,,,,,,,,,,,,,,,,,,,465.13632700000016,465.6361772999999,465.6361772999999,466.38593330000003,466.38593330000003,466.8885981000003,466.8885981000003,467.77718989999994,467.77718989999994,None,num_4,0.9583692000005612,467.77718989999994,None,sad,0,Happy,468.74630396000003,None,None,468.74630396000003,None,,,,,,,,,,,,,,,,,,,,,,,,,,,,,,,,,,,,,,,,,,,,,,,,,,,,,34,001,1,22,475,375,2022_Oct_31_1105,Experiment,2021.1.4,360.2020012899052,
images\blank.jpg,images\blank.jpg,none,none,none,none,0,,643,on,2,0.5,0.75,0.5,0.929,0,642,1,1,1,3,3,48,192,240,,,,,,0,53,53,53,,,,,,,,,,,,,,,,,,,,,,,,,,,,,,,,,,,,,,,,,,,,,,,,,,,,,,,,,468.8493090000002,469.34890840000025,469.34890840000025,470.0987160000004,470.0987160000004,470.6042269999998,470.6042269999998,471.5400051000006,471.5400051000006,471.5400051000006,None,,471.5400051000006,None,miss,0,,474.5390395200003,None,None,474.5390395200003,None,,,,,,,,,,,,,,,,,,,,,,,,,,,,,,,,,,,,,,,,,,,,,,,,,,,,,34,001,1,22,475,375,2022_Oct_31_1105,Experiment,2021.1.4,360.2020012899052,
images\S9_F_H_02.png,images\S9_F_H_02_scrambled.png,9,happy,20,female,5,,290,off,1,0.5,0.75,0.5,0.83,3,289,1,1,1,0,0,0,0,5,,,,,,0,54,54,54,,,,,,,,,,,,,,,,,,,,,,,,,,,,,,,,,,,,,,,,,,,,,,,,,,,,,,,,,474.69742420000057,475.1999701000004,475.1999701000004,475.95244679999996,475.95244679999996,476.4551188000005,476.4551188000005,477.2909479,477.2909479,None,num_6,0.31691719999980705,477.2909479,474.69742420000057,happy,0,Happy,477.6352912600003,None,None,477.6352912600003,None,,,,,,,,,,,,,,,,,,,,,,,,,,,,,,,,,,,,,,,,,,,,,,,,,,,,,34,001,1,22,475,375,2022_Oct_31_1105,Experiment,2021.1.4,360.2020012899052,
images\S1_F_H_03.png,images\S1_F_H_03_scrambled.png,1,happy,30,female,6,,543,on,2,0.5,0.75,0.5,0.848,3,542,1,1,1,2,2,32,128,166,,,,,,0,55,55,55,,,,,,,,,,,,,,,,,,,,,,,,,,,,,,,,,,,,,,,,,,,,,,,,,,,,,,,,,477.6852865999999,478.18506849999994,478.18506849999994,478.9376306000004,478.9376306000004,479.4402822000002,479.4402822000002,480.2900760000002,480.2900760000002,None,num_6,0.3416718000007677,480.2900760000002,None,happy,0,Happy,480.6481979800005,None,None,480.6481979800005,None,,,,,,,,,,,,,,,,,,,,,,,,,,,,,,,,,,,,,,,,,,,,,,,,,,,,,34,001,1,22,475,375,2022_Oct_31_1105,Experiment,2021.1.4,360.2020012899052,
images\S7_F_S_02.png,images\S7_F_S_02_scrambled.png,7,sad,-20,female,2,,41,off,1,0.5,0.75,0.5,0.841,3,40,1,1,1,0,0,0,0,2,,,,,,0,56,56,56,,,,,,,,,,,,,,,,,,,,,,,,,,,,,,,,,,,,,,,,,,,,,,,,,,,,,,,,,480.7315217000005,481.2342797000001,481.2342797000001,481.98389880000013,481.98389880000013,482.48652050000055,482.48652050000055,483.33074920000035,483.33074920000035,None,num_4,0.4291576999994504,483.33074920000035,None,sad,0,Sad,483.77500488000027,None,None,483.77500488000027,None,,,,,,,,,,,,,,,,,,,,,,,,,,,,,,,,,,,,,,,,,,,,,,,,,,,,,34,001,1,22,475,375,2022_Oct_31_1105,Experiment,2021.1.4,360.2020012899052,
images\S2_M_S_02.png,images\S2_M_S_02_scrambled.png,2,sad,-20,male,2,,431,on,2,0.5,0.75,0.5,0.775,3,430,1,1,2,2,2,32,128,162,,,,,,0,57,57,57,,,,,,,,,,,,,,,,,,,,,,,,,,,,,,,,,,,,,,,,,,,,,,,,,,,,,,,,,483.8222354999998,484.32495560000007,484.32495560000007,485.077405,485.077405,485.5800986000004,485.5800986000004,486.3603856,486.3603856,None,num_4,0.40712989999974525,486.3603856,None,sad,0,Sad,486.79353048000024,None,None,486.79353048000024,None,,,,,,,,,,,,,,,,,,,,,,,,,,,,,,,,,,,,,,,,,,,,,,,,,,,,,34,001,1,22,475,375,2022_Oct_31_1105,Experiment,2021.1.4,360.2020012899052,
images\S1_F_H_01.png,images\S1_F_H_01_scrambled.png,1,happy,10,female,4,,121,off,1,0.5,0.75,0.5,0.816,3,120,1,1,1,0,0,0,0,4,,,,,,0,58,58,58,,,,,,,,,,,,,,,,,,,,,,,,,,,,,,,,,,,,,,,,,,,,,,,,,,,,,,,,,486.8768508000003,487.37947780000013,487.37947780000013,488.1348748999999,488.1348748999999,488.6373988000005,488.6373988000005,489.459511,489.459511,None,num_6,0.47631039999942004,489.459511,None,happy,0,Happy,489.9536593799998,None,None,489.9536593799998,None,,,,,,,,,,,,,,,,,,,,,,,,,,,,,,,,,,,,,,,,,,,,,,,,,,,,,34,001,1,22,475,375,2022_Oct_31_1105,Experiment,2021.1.4,360.2020012899052,
images\S4_M_H_02.png,images\S4_M_H_02_scrambled.png,4,happy,20,male,5,,440,on,2,0.5,0.75,0.5,0.851,3,439,1,1,1,2,2,32,128,165,,,,,,0,59,59,59,,,,,,,,,,,,,,,,,,,,,,,,,,,,,,,,,,,,,,,,,,,,,,,,,,,,,,,,,490.0397598999998,490.54237900000044,490.54237900000044,491.2949292000003,491.2949292000003,491.7947826999998,491.7947826999998,492.65284000000065,492.65284000000065,None,num_4,0.4109340000004522,492.65284000000065,None,sad,0,Happy,493.0777370600002,None,None,493.0777370600002,None,,,,,,,,,,,,,,,,,,,,,,,,,,,,,,,,,,,,,,,,,,,,,,,,,,,,,34,001,1,22,475,375,2022_Oct_31_1105,Experiment,2021.1.4,360.2020012899052,
images\S4_M_S_02.png,images\S4_M_S_02_scrambled.png,4,sad,-20,male,2,,563,on,2,0.5,0.75,0.5,0.873,3,562,2,2,1,2,2,32,128,162,,,,,,0,60,60,60,,,,,,,,,,,,,,,,,,,,,,,,,,,,,,,,,,,,,,,,,,,,,,,,,,,,,,,,,493.1360198000002,493.63863500000025,493.63863500000025,494.39121350000005,494.39121350000005,494.8910624,494.8910624,495.76857590000054,495.76857590000054,None,num_4,0.39931460000025254,495.76857590000054,None,sad,0,Sad,496.19623805999964,None,None,496.19623805999964,None,,,,,,,,,,,,,,,,,,,,,,,,,,,,,,,,,,,,,,,,,,,,,,,,,,,,,34,001,1,22,475,375,2022_Oct_31_1105,Experiment,2021.1.4,360.2020012899052,
images\S7_F_S_01.png,images\S7_F_S_01_scrambled.png,7,sad,-10,female,3,,340,on,2,0.5,0.75,0.5,0.923,3,339,3,1,1,2,2,32,128,163,,,,,,0,61,61,61,,,,,,,,,,,,,,,,,,,,,,,,,,,,,,,,,,,,,,,,,,,,,,,,,,,,,,,,,496.2822758000002,496.7849829000006,496.7849829000006,497.54027680000036,497.54027680000036,498.0456615000003,498.0456615000003,498.9703907000003,498.9703907000003,None,num_4,0.3657579999999143,498.9703907000003,None,sad,0,Sad,499.35922584000014,None,None,499.35922584000014,None,,,,,,,,,,,,,,,,,,,,,,,,,,,,,,,,,,,,,,,,,,,,,,,,,,,,,34,001,1,22,475,375,2022_Oct_31_1105,Experiment,2021.1.4,360.2020012899052,
images\S1_F_H_02.png,images\S1_F_H_02_scrambled.png,1,happy,20,female,5,,62,on,2,0.5,0.75,0.5,0.788,3,61,4,1,1,2,2,32,128,165,,,,,,0,62,62,62,,,,,,,,,,,,,,,,,,,,,,,,,,,,,,,,,,,,,,,,,,,,,,,,,,,,,,,,,499.4090944999998,499.91172220000044,499.91172220000044,500.66426200000024,500.66426200000024,501.16409250000015,501.16409250000015,501.9555594000003,501.9555594000003,None,num_6,0.49242839999988064,501.9555594000003,None,happy,0,Happy,502.4637768200006,None,None,502.4637768200006,None,,,,,,,,,,,,,,,,,,,,,,,,,,,,,,,,,,,,,,,,,,,,,,,,,,,,,34,001,1,22,475,375,2022_Oct_31_1105,Experiment,2021.1.4,360.2020012899052,
images\S5_F_S_02.png,images\S5_F_S_02_scrambled.png,5,sad,-20,female,2,,449,on,2,0.5,0.75,0.5,0.785,3,448,5,1,1,2,2,32,128,162,,,,,,0,63,63,63,,,,,,,,,,,,,,,,,,,,,,,,,,,,,,,,,,,,,,,,,,,,,,,,,,,,,,,,,502.5358729999998,503.04132180000033,503.04132180000033,503.7938684999999,503.7938684999999,504.2964600000005,504.2964600000005,505.0851763999999,505.0851763999999,None,num_4,0.36259309999968536,505.0851763999999,None,sad,0,Sad,505.4711354600002,None,None,505.4711354600002,None,,,,,,,,,,,,,,,,,,,,,,,,,,,,,,,,,,,,,,,,,,,,,,,,,,,,,34,001,1,22,475,375,2022_Oct_31_1105,Experiment,2021.1.4,360.2020012899052,
images\blank.jpg,images\blank.jpg,none,none,none,none,0,,624,on,2,0.5,0.75,0.5,0.784,0,623,6,1,1,3,3,48,192,240,,,,,,0,64,64,64,,,,,,,,,,,,,,,,,,,,,,,,,,,,,,,,,,,,,,,,,,,,,,,,,,,,,,,,,505.57124060000024,506.0738158000004,506.0738158000004,506.82346229999985,506.82346229999985,507.3261078000005,507.3261078000005,508.1148096000006,508.1148096000006,508.1148096000006,None,,508.1148096000006,None,miss,0,,511.1166043200002,None,None,511.1166043200002,None,,,,,,,,,,,,,,,,,,,,,,,,,,,,,,,,,,,,,,,,,,,,,,,,,,,,,34,001,1,22,475,375,2022_Oct_31_1105,Experiment,2021.1.4,360.2020012899052,
images\S1_F_H_01.png,images\S1_F_H_01_scrambled.png,1,happy,10,female,4,,481,off,1,0.5,0.75,0.5,0.855,3,480,1,1,1,0,0,0,0,4,,,,,,0,65,65,65,,,,,,,,,,,,,,,,,,,,,,,,,,,,,,,,,,,,,,,,,,,,,,,,,,,,,,,,,511.22782090000055,511.73040560000027,511.73040560000027,512.4828465999999,512.4828465999999,512.9854449000004,512.9854449000004,513.8463434000005,513.8463434000005,None,num_6,0.36913410000033764,513.8463434000005,511.22782090000055,happy,0,Happy,514.2462908599999,None,None,514.2462908599999,None,,,,,,,,,,,,,,,,,,,,,,,,,,,,,,,,,,,,,,,,,,,,,,,,,,,,,34,001,1,22,475,375,2022_Oct_31_1105,Experiment,2021.1.4,360.2020012899052,
images\S1_F_S_02.png,images\S1_F_S_02_scrambled.png,1,sad,-20,female,2,,185,on,2,0.5,0.75,0.5,0.858,3,184,1,2,1,2,2,32,128,162,,,,,,0,66,66,66,,,,,,,,,,,,,,,,,,,,,,,,,,,,,,,,,,,,,,,,,,,,,,,,,,,,,,,,,514.3517015000007,514.8515470000002,514.8515470000002,515.6041278000002,515.6041278000002,516.1067528000003,516.1067528000003,516.9704271,516.9704271,None,num_4,0.39752580000003945,516.9704271,None,sad,0,Sad,517.3897371600004,None,None,517.3897371600004,None,,,,,,,,,,,,,,,,,,,,,,,,,,,,,,,,,,,,,,,,,,,,,,,,,,,,,34,001,1,22,475,375,2022_Oct_31_1105,Experiment,2021.1.4,360.2020012899052,
images\S3_F_S_02.png,images\S3_F_S_02_scrambled.png,3,sad,-20,female,2,,197,on,2,0.5,0.75,0.5,0.913,3,196,2,1,2,2,2,32,128,162,,,,,,0,67,67,67,,,,,,,,,,,,,,,,,,,,,,,,,,,,,,,,,,,,,,,,,,,,,,,,,,,,,,,,,517.5034986000001,518.0061351000004,518.0061351000004,518.7615009000001,518.7615009000001,519.2641288000004,519.2641288000004,520.1832402,520.1832402,None,num_4,0.392331799999738,520.1832402,None,sad,0,Sad,520.5858910800001,None,None,520.5858910800001,None,,,,,,,,,,,,,,,,,,,,,,,,,,,,,,,,,,,,,,,,,,,,,,,,,,,,,34,001,1,22,475,375,2022_Oct_31_1105,Experiment,2021.1.4,360.2020012899052,
images\S5_F_S_01.png,images\S5_F_S_01_scrambled.png,5,sad,-10,female,3,,388,off,1,0.5,0.75,0.5,0.917,3,387,1,1,1,0,0,0,0,3,,,,,,0,68,68,68,,,,,,,,,,,,,,,,,,,,,,,,,,,,,,,,,,,,,,,,,,,,,,,,,,,,,,,,,520.6330996000006,521.1358301999999,521.1358301999999,521.8911130000006,521.8911130000006,522.3964940000005,522.3964940000005,523.3184523,523.3184523,None,num_4,0.305185100000017,523.3184523,None,sad,0,Sad,523.6377126800002,None,None,523.6377126800002,None,,,,,,,,,,,,,,,,,,,,,,,,,,,,,,,,,,,,,,,,,,,,,,,,,,,,,34,001,1,22,475,375,2022_Oct_31_1105,Experiment,2021.1.4,360.2020012899052,
images\S8_M_H_03.png,images\S8_M_H_03_scrambled.png,8,happy,30,male,6,,105,on,2,0.5,0.75,0.5,0.948,3,104,1,1,1,2,2,32,128,166,,,,,,0,69,69,69,,,,,,,,,,,,,,,,,,,,,,,,,,,,,,,,,,,,,,,,,,,,,,,,,,,,,,,,,523.6849345,524.1904615000003,524.1904615000003,524.9428883999999,524.9428883999999,525.4455003000003,525.4455003000003,526.4008540000004,526.4008540000004,None,num_6,0.3508093000000372,526.4008540000004,None,happy,0,Happy,526.7617659800002,None,None,526.7617659800002,None,,,,,,,,,,,,,,,,,,,,,,,,,,,,,,,,,,,,,,,,,,,,,,,,,,,,,34,001,1,22,475,375,2022_Oct_31_1105,Experiment,2021.1.4,360.2020012899052,
images\S4_M_H_01.png,images\S4_M_H_01_scrambled.png,4,happy,10,male,4,,379,off,1,0.5,0.75,0.5,0.844,3,378,1,1,1,0,0,0,0,4,,,,,,0,70,70,70,,,,,,,,,,,,,,,,,,,,,,,,,,,,,,,,,,,,,,,,,,,,,,,,,,,,,,,,,526.8422994000002,527.3477042000004,527.3477042000004,528.1003664999998,528.1003664999998,528.6057324000003,528.6057324000003,529.4525993000007,529.4525993000007,None,num_4,0.4669471999995949,529.4525993000007,None,sad,0,Happy,529.9246714399999,None,None,529.9246714399999,None,,,,,,,,,,,,,,,,,,,,,,,,,,,,,,,,,,,,,,,,,,,,,,,,,,,,,34,001,1,22,475,375,2022_Oct_31_1105,Experiment,2021.1.4,360.2020012899052,
images\S9_F_S_02.png,images\S9_F_S_02_scrambled.png,9,sad,-20,female,2,,173,off,1,0.5,0.75,0.5,0.948,3,172,2,1,1,0,0,0,0,2,,,,,,0,71,71,71,,,,,,,,,,,,,,,,,,,,,,,,,,,,,,,,,,,,,,,,,,,,,,,,,,,,,,,,,530.0079876,530.5107452000002,530.5107452000002,531.2603905000005,531.2603905000005,531.7658699000003,531.7658699000003,532.7211112000005,532.7211112000005,None,num_4,0.3825765000001411,532.7211112000005,None,sad,0,Sad,533.1181131799998,None,None,533.1181131799998,None,,,,,,,,,,,,,,,,,,,,,,,,,,,,,,,,,,,,,,,,,,,,,,,,,,,,,34,001,1,22,475,375,2022_Oct_31_1105,Experiment,2021.1.4,360.2020012899052,
images\S2_M_H_03.png,images\S2_M_H_03_scrambled.png,2,happy,30,male,6,,129,off,1,0.5,0.75,0.5,0.934,3,128,3,1,1,0,0,0,0,6,,,,,,0,72,72,72,,,,,,,,,,,,,,,,,,,,,,,,,,,,,,,,,,,,,,,,,,,,,,,,,,,,,,,,,533.1653425000004,533.6708343,533.6708343,534.4261100000003,534.4261100000003,534.9315133,534.9315133,535.8702082,535.8702082,None,num_6,0.16194300000006479,535.8702082,None,happy,0,Happy,536.0534273199997,None,None,536.0534273199997,None,,,,,,,,,,,,,,,,,,,,,,,,,,,,,,,,,,,,,,,,,,,,,,,,,,,,,34,001,1,22,475,375,2022_Oct_31_1105,Experiment,2021.1.4,360.2020012899052,
images\S5_F_S_01.png,images\S5_F_S_01_scrambled.png,5,sad,-10,female,3,,328,on,2,0.5,0.75,0.5,0.774,3,327,1,1,1,2,2,32,128,163,,,,,,0,73,73,73,,,,,,,,,,,,,,,,,,,,,,,,,,,,,,,,,,,,,,,,,,,,,,,,,,,,,,,,,536.1060963999998,536.6115368000001,536.6115368000001,537.3668553000007,537.3668553000007,537.8694376000003,537.8694376000003,538.6470079000001,538.6470079000001,None,num_6,0.9607337999996162,538.6470079000001,None,happy,0,Sad,539.6161268400003,None,None,539.6161268400003,None,,,,,,,,,,,,,,,,,,,,,,,,,,,,,,,,,,,,,,,,,,,,,,,,,,,,,34,001,1,22,475,375,2022_Oct_31_1105,Experiment,2021.1.4,360.2020012899052,
images\S7_F_S_03.png,images\S7_F_S_03_scrambled.png,7,sad,-30,female,1,,522,off,1,0.5,0.75,0.5,0.931,3,521,1,1,1,0,0,0,0,1,,,,,,0,74,74,74,,,,,,,,,,,,,,,,,,,,,,,,,,,,,,,,,,,,,,,,,,,,,,,,,,,,,,,,,539.6633396000007,540.1660327,540.1660327,540.9157193000001,540.9157193000001,541.4211786000005,541.4211786000005,542.3569831000004,542.3569831000004,None,num_4,0.36306210000020656,542.3569831000004,None,sad,0,Sad,542.7402695400003,None,None,542.7402695400003,None,,,,,,,,,,,,,,,,,,,,,,,,,,,,,,,,,,,,,,,,,,,,,,,,,,,,,34,001,1,22,475,375,2022_Oct_31_1105,Experiment,2021.1.4,360.2020012899052,
images\blank.jpg,images\blank.jpg,none,none,none,none,0,,647,on,2,0.5,0.75,0.5,0.796,0,646,1,1,1,3,3,48,192,240,,,,,,0,75,75,75,,,,,,,,,,,,,,,,,,,,,,,,,,,,,,,,,,,,,,,,,,,,,,,,,,,,,,,,,542.8264370000006,543.3316903000004,543.3316903000004,544.0841962000004,544.0841962000004,544.5840414000004,544.5840414000004,545.3866048,545.3866048,545.3866048,None,,545.3866048,None,miss,0,,548.39125584,None,None,548.39125584,None,,,,,,,,,,,,,,,,,,,,,,,,,,,,,,,,,,,,,,,,,,,,,,,,,,,,,34,001,1,22,475,375,2022_Oct_31_1105,Experiment,2021.1.4,360.2020012899052,
images\S4_M_H_01.png,images\S4_M_H_01_scrambled.png,4,happy,10,male,4,,139,off,1,0.5,0.75,0.5,0.91,3,138,1,1,1,0,0,0,0,4,,,,,,0,76,76,76,,,,,,,,,,,,,,,,,,,,,,,,,,,,,,,,,,,,,,,,,,,,,,,,,,,,,,,,,548.5108786999999,549.0132279999998,549.0132279999998,549.7658773000003,549.7658773000003,550.2712184000002,550.2712184000002,551.1875835000001,551.1875835000001,None,num_4,0.25202039999931003,551.1875835000001,548.5108786999999,sad,0,Happy,551.4485783399998,None,None,551.4485783399998,None,,,,,,,,,,,,,,,,,,,,,,,,,,,,,,,,,,,,,,,,,,,,,,,,,,,,,34,001,1,22,475,375,2022_Oct_31_1105,Experiment,2021.1.4,360.2020012899052,
images\S4_M_S_01.png,images\S4_M_S_01_scrambled.png,4,sad,-10,male,3,,142,off,1,0.5,0.75,0.5,0.885,3,141,2,2,1,0,0,0,0,3,,,,,,0,77,77,77,,,,,,,,,,,,,,,,,,,,,,,,,,,,,,,,,,,,,,,,,,,,,,,,,,,,,,,,,551.5346730000001,552.0373170000003,552.0373170000003,552.7926425000005,552.7926425000005,553.2980364000005,553.2980364000005,554.1866493000007,554.1866493000007,None,num_4,0.40535259999978734,554.1866493000007,None,sad,0,Sad,554.6199107600004,None,None,554.6199107600004,None,,,,,,,,,,,,,,,,,,,,,,,,,,,,,,,,,,,,,,,,,,,,,,,,,,,,,34,001,1,22,475,375,2022_Oct_31_1105,Experiment,2021.1.4,360.2020012899052,
images\S6_M_H_01.png,images\S6_M_H_01_scrambled.png,6,happy,10,male,4,,451,on,2,0.5,0.75,0.5,0.823,3,450,1,1,1,2,2,32,128,164,,,,,,0,78,78,78,,,,,,,,,,,,,,,,,,,,,,,,,,,,,,,,,,,,,,,,,,,,,,,,,,,,,,,,,554.7336836000004,555.2363553000005,555.2363553000005,555.9916313000003,555.9916313000003,556.4970622999999,556.4970622999999,557.3217752,557.3217752,None,num_6,0.8059942999998384,557.3217752,None,happy,0,Happy,558.1437336800003,None,None,558.1437336800003,None,,,,,,,,,,,,,,,,,,,,,,,,,,,,,,,,,,,,,,,,,,,,,,,,,,,,,34,001,1,22,475,375,2022_Oct_31_1105,Experiment,2021.1.4,360.2020012899052,
images\S1_F_S_03.png,images\S1_F_S_03_scrambled.png,1,sad,-30,female,1,,486,off,1,0.5,0.75,0.5,0.875,3,485,1,1,1,0,0,0,0,1,,,,,,0,79,79,79,,,,,,,,,,,,,,,,,,,,,,,,,,,,,,,,,,,,,,,,,,,,,,,,,,,,,,,,,558.1909629000002,558.6908131,558.6908131,559.4461735000004,559.4461735000004,559.9515600000004,559.9515600000004,560.8290221000007,560.8290221000007,None,num_4,0.4266069000004791,560.8290221000007,None,sad,0,Sad,561.2705486799999,None,None,561.2705486799999,None,,,,,,,,,,,,,,,,,,,,,,,,,,,,,,,,,,,,,,,,,,,,,,,,,,,,,34,001,1,22,475,375,2022_Oct_31_1105,Experiment,2021.1.4,360.2020012899052,
images\S6_M_S_01.png,images\S6_M_S_01_scrambled.png,6,sad,-10,male,3,,34,off,1,0.5,0.75,0.5,0.812,3,33,2,1,1,0,0,0,0,3,,,,,,0,80,80,80,,,,,,,,,,,,,,,,,,,,,,,,,,,,,,,,,,,,,,,,,,,,,,,,,,,,,,,,,561.3205464000002,561.8231642000001,561.8231642000001,562.5757061000004,562.5757061000004,563.0811125999999,563.0811125999999,563.900329,563.900329,None,num_4,0.33940400000028603,563.900329,None,sad,0,Sad,564.2529708800006,None,None,564.2529708800006,None,,,,,,,,,,,,,,,,,,,,,,,,,,,,,,,,,,,,,,,,,,,,,,,,,,,,,34,001,1,22,475,375,2022_Oct_31_1105,Experiment,2021.1.4,360.2020012899052,
images\blank.jpg,images\blank.jpg,none,none,none,none,0,,645,on,2,0.5,0.75,0.5,0.861,0,644,1,1,1,3,3,48,192,240,,,,,,0,81,81,81,,,,,,,,,,,,,,,,,,,,,,,,,,,,,,,,,,,,,,,,,,,,,,,,,,,,,,,,,564.3364258000001,564.8417211000005,564.8417211000005,565.5970348000001,565.5970348000001,566.1024244,566.1024244,566.9632565000002,566.9632565000002,566.9632565000002,None,,566.9632565000002,None,miss,0,,569.9651573399999,None,None,569.9651573399999,None,,,,,,,,,,,,,,,,,,,,,,,,,,,,,,,,,,,,,,,,,,,,,,,,,,,,,34,001,1,22,475,375,2022_Oct_31_1105,Experiment,2021.1.4,360.2020012899052,
images\S5_F_H_02.png,images\S5_F_H_02_scrambled.png,5,happy,20,female,5,,326,on,2,0.5,0.75,0.5,0.894,3,325,2,1,1,2,2,32,128,165,,,,,,0,82,82,82,,,,,,,,,,,,,,,,,,,,,,,,,,,,,,,,,,,,,,,,,,,,,,,,,,,,,,,,,570.1152338000002,570.6205821000003,570.6205821000003,571.3758555000004,571.3758555000004,571.8812346000004,571.8812346000004,572.7781359999999,572.7781359999999,None,num_6,0.36552840000058495,572.7781359999999,570.1152338000002,happy,0,Happy,573.1585511799998,None,None,573.1585511799998,None,,,,,,,,,,,,,,,,,,,,,,,,,,,,,,,,,,,,,,,,,,,,,,,,,,,,,34,001,1,22,475,375,2022_Oct_31_1105,Experiment,2021.1.4,360.2020012899052,
images\blank.jpg,images\blank.jpg,none,none,none,none,0,,648,on,2,0.5,0.75,0.5,0.773,0,647,3,1,1,3,3,48,192,240,,,,,,0,83,83,83,,,,,,,,,,,,,,,,,,,,,,,,,,,,,,,,,,,,,,,,,,,,,,,,,,,,,,,,,573.2420695999999,573.7417160000005,573.7417160000005,574.4970283000002,574.4970283000002,575.0024607000005,575.0024607000005,575.7773283000006,575.7773283000006,575.7773283000006,None,,575.7773283000006,None,miss,0,,578.7790614200004,None,None,578.7790614200004,None,,,,,,,,,,,,,,,,,,,,,,,,,,,,,,,,,,,,,,,,,,,,,,,,,,,,,34,001,1,22,475,375,2022_Oct_31_1105,Experiment,2021.1.4,360.2020012899052,
images\S6_M_S_01.png,images\S6_M_S_01_scrambled.png,6,sad,-10,male,3,,214,on,2,0.5,0.75,0.5,0.949,3,213,4,1,1,2,2,32,128,163,,,,,,0,84,84,84,,,,,,,,,,,,,,,,,,,,,,,,,,,,,,,,,,,,,,,,,,,,,,,,,,,,,,,,,578.8931464000007,579.3983165,579.3983165,580.1508635,580.1508635,580.6534835000002,580.6534835000002,581.6060118000005,581.6060118000005,None,num_4,0.4096026000006532,581.6060118000005,578.8931464000007,sad,0,Sad,582.0308469200005,None,None,582.0308469200005,None,,,,,,,,,,,,,,,,,,,,,,,,,,,,,,,,,,,,,,,,,,,,,,,,,,,,,34,001,1,22,475,375,2022_Oct_31_1105,Experiment,2021.1.4,360.2020012899052,
images\S4_M_S_01.png,images\S4_M_S_01_scrambled.png,4,sad,-10,male,3,,322,on,2,0.5,0.75,0.5,0.862,3,321,5,1,2,2,2,32,128,163,,,,,,0,85,85,85,,,,,,,,,,,,,,,,,,,,,,,,,,,,,,,,,,,,,,,,,,,,,,,,,,,,,,,,,582.0809463000005,582.5862419000005,582.5862419000005,583.3359674000003,583.3359674000003,583.8414122000004,583.8414122000004,584.7049926,584.7049926,None,num_4,0.45471769999949174,584.7049926,None,sad,0,Sad,585.1742910799998,None,None,585.1742910799998,None,,,,,,,,,,,,,,,,,,,,,,,,,,,,,,,,,,,,,,,,,,,,,,,,,,,,,34,001,1,22,475,375,2022_Oct_31_1105,Experiment,2021.1.4,360.2020012899052,
images\S6_M_H_03.png,images\S6_M_H_03_scrambled.png,6,happy,30,male,6,,393,off,1,0.5,0.75,0.5,0.796,3,392,1,1,1,0,0,0,0,6,,,,,,0,86,86,86,,,,,,,,,,,,,,,,,,,,,,,,,,,,,,,,,,,,,,,,,,,,,,,,,,,,,,,,,585.2548346000003,585.7603503,585.7603503,586.5127886999999,586.5127886999999,587.0153976000001,587.0153976000001,587.8152857000005,587.8152857000005,None,num_6,0.41643500000009226,587.8152857000005,None,happy,0,Happy,588.2455658800003,None,None,588.2455658800003,None,,,,,,,,,,,,,,,,,,,,,,,,,,,,,,,,,,,,,,,,,,,,,,,,,,,,,34,001,1,22,475,375,2022_Oct_31_1105,Experiment,2021.1.4,360.2020012899052,
images\S10_M_S_02.png,images\S10_M_S_02_scrambled.png,10,sad,-20,male,2,,239,on,2,0.5,0.75,0.5,0.931,3,238,1,1,1,2,2,32,128,162,,,,,,0,87,87,87,,,,,,,,,,,,,,,,,,,,,,,,,,,,,,,,,,,,,,,,,,,,,,,,,,,,,,,,,588.2927826000005,588.7955531000007,588.7955531000007,589.5451946000003,589.5451946000003,590.0478127000006,590.0478127000006,590.9780756999999,590.9780756999999,None,num_6,0.31801459999951476,590.9780756999999,None,happy,0,Sad,591.3085057600005,None,None,591.3085057600005,None,,,,,,,,,,,,,,,,,,,,,,,,,,,,,,,,,,,,,,,,,,,,,,,,,,,,,34,001,1,22,475,375,2022_Oct_31_1105,Experiment,2021.1.4,360.2020012899052,
images\S10_M_H_01.png,images\S10_M_H_01_scrambled.png,10,happy,10,male,4,,115,on,2,0.5,0.75,0.5,0.927,3,114,2,2,1,2,2,32,128,164,,,,,,0,88,88,88,,,,,,,,,,,,,,,,,,,,,,,,,,,,,,,,,,,,,,,,,,,,,,,,,,,,,,,,,591.3668346000004,591.8694513999999,591.8694513999999,592.6219955000006,592.6219955000006,593.1274253000001,593.1274253000001,594.0605948000002,594.0605948000002,None,num_6,0.34713169999940874,594.0605948000002,None,happy,0,Happy,594.4380841000002,None,None,594.4380841000002,None,,,,,,,,,,,,,,,,,,,,,,,,,,,,,,,,,,,,,,,,,,,,,,,,,,,,,34,001,1,22,475,375,2022_Oct_31_1105,Experiment,2021.1.4,360.2020012899052,
images\S3_F_S_03.png,images\S3_F_S_03_scrambled.png,3,sad,-30,female,1,,138,off,1,0.5,0.75,0.5,0.855,3,137,1,1,1,0,0,0,0,1,,,,,,0,89,89,89,,,,,,,,,,,,,,,,,,,,,,,,,,,,,,,,,,,,,,,,,,,,,,,,,,,,,,,,,594.5380814,595.0407888999998,595.0407888999998,595.7960643000006,595.7960643000006,596.3014597000001,596.3014597000001,597.1595268000001,597.1595268000001,None,num_4,0.4562097999996695,597.1595268000001,None,sad,0,Sad,597.6316193199997,None,None,597.6316193199997,None,,,,,,,,,,,,,,,,,,,,,,,,,,,,,,,,,,,,,,,,,,,,,,,,,,,,,34,001,1,22,475,375,2022_Oct_31_1105,Experiment,2021.1.4,360.2020012899052,
images\S7_F_H_03.png,images\S7_F_H_03_scrambled.png,7,happy,30,female,6,,339,on,2,0.5,0.75,0.5,0.942,3,338,1,1,1,2,2,32,128,166,,,,,,0,90,90,90,,,,,,,,,,,,,,,,,,,,,,,,,,,,,,,,,,,,,,,,,,,,,,,,,,,,,,,,,597.7426421,598.2480532,598.2480532,599.0006883000005,599.0006883000005,599.5060394000002,599.5060394000002,600.4502276000003,600.4502276000003,None,num_6,0.5171998999994685,600.4502276000003,None,happy,0,Happy,600.9777672800004,None,None,600.9777672800004,None,,,,,,,,,,,,,,,,,,,,,,,,,,,,,,,,,,,,,,,,,,,,,,,,,,,,,34,001,1,22,475,375,2022_Oct_31_1105,Experiment,2021.1.4,360.2020012899052,
images\S8_M_S_03.png,images\S8_M_S_03_scrambled.png,8,sad,-30,male,1,,288,off,1,0.5,0.75,0.5,0.884,3,287,1,1,1,0,0,0,0,1,,,,,,0,91,91,91,,,,,,,,,,,,,,,,,,,,,,,,,,,,,,,,,,,,,,,,,,,,,,,,,,,,,,,,,601.0860561,601.5858947000006,601.5858947000006,602.3412730999999,602.3412730999999,602.8466573000005,602.8466573000005,603.7324775000006,603.7324775000006,None,num_4,0.33912319999944884,603.7324775000006,None,sad,0,Sad,604.0962206600005,None,None,604.0962206600005,None,,,,,,,,,,,,,,,,,,,,,,,,,,,,,,,,,,,,,,,,,,,,,,,,,,,,,34,001,1,22,475,375,2022_Oct_31_1105,Experiment,2021.1.4,360.2020012899052,
images\S2_M_S_02.png,images\S2_M_S_02_scrambled.png,2,sad,-20,male,2,,371,off,1,0.5,0.75,0.5,0.819,3,370,2,1,1,0,0,0,0,2,,,,,,0,92,92,92,,,,,,,,,,,,,,,,,,,,,,,,,,,,,,,,,,,,,,,,,,,,,,,,,,,,,,,,,604.1601091000002,604.6627560000006,604.6627560000006,605.4154038000006,605.4154038000006,605.9179076999999,605.9179076999999,606.7400151000002,606.7400151000002,None,num_4,0.2597873000004256,606.7400151000002,None,sad,0,Sad,607.0287869399997,None,None,607.0287869399997,None,,,,,,,,,,,,,,,,,,,,,,,,,,,,,,,,,,,,,,,,,,,,,,,,,,,,,34,001,1,22,475,375,2022_Oct_31_1105,Experiment,2021.1.4,360.2020012899052,
images\S7_F_H_01.png,images\S7_F_H_01_scrambled.png,7,happy,10,female,4,,577,on,2,0.5,0.75,0.5,0.858,3,576,1,1,1,2,2,32,128,164,,,,,,0,93,93,93,,,,,,,,,,,,,,,,,,,,,,,,,,,,,,,,,,,,,,,,,,,,,,,,,,,,,,,,,607.0814325000001,607.5840503999998,607.5840503999998,608.3365960000001,608.3365960000001,608.8420248000002,608.8420248000002,609.7000588999999,609.7000588999999,None,num_6,0.38733200000024226,609.7000588999999,None,happy,0,Happy,610.1165892999998,None,None,610.1165892999998,None,,,,,,,,,,,,,,,,,,,,,,,,,,,,,,,,,,,,,,,,,,,,,,,,,,,,,34,001,1,22,475,375,2022_Oct_31_1105,Experiment,2021.1.4,360.2020012899052,
images\S4_M_H_02.png,images\S4_M_H_02_scrambled.png,4,happy,20,male,5,,260,off,1,0.5,0.75,0.5,0.914,3,259,1,1,1,0,0,0,0,5,,,,,,0,94,94,94,,,,,,,,,,,,,,,,,,,,,,,,,,,,,,,,,,,,,,,,,,,,,,,,,,,,,,,,,610.1804753000006,610.6830921000001,610.6830921000001,611.4356613,611.4356613,611.9382559000005,611.9382559000005,612.8518646000002,612.8518646000002,None,num_6,0.29966330000024755,612.8518646000002,None,happy,0,Happy,613.1795286599998,None,None,613.1795286599998,None,,,,,,,,,,,,,,,,,,,,,,,,,,,,,,,,,,,,,,,,,,,,,,,,,,,,,34,001,1,22,475,375,2022_Oct_31_1105,Experiment,2021.1.4,360.2020012899052,
images\S9_F_H_02.png,images\S9_F_H_02_scrambled.png,9,happy,20,female,5,,230,on,2,0.5,0.75,0.5,0.828,3,229,1,1,2,2,2,32,128,165,,,,,,0,95,95,95,,,,,,,,,,,,,,,,,,,,,,,,,,,,,,,,,,,,,,,,,,,,,,,,,,,,,,,,,613.2323105000005,613.7350692999999,613.7350692999999,614.4875009000007,614.4875009000007,614.9928982000001,614.9928982000001,615.8260283,615.8260283,None,num_6,0.3499627999999575,615.8260283,None,happy,0,Happy,616.1870750800002,None,None,616.1870750800002,None,,,,,,,,,,,,,,,,,,,,,,,,,,,,,,,,,,,,,,,,,,,,,,,,,,,,,34,001,1,22,475,375,2022_Oct_31_1105,Experiment,2021.1.4,360.2020012899052,
images\blank.jpg,images\blank.jpg,none,none,none,none,0,,644,on,2,0.5,0.75,0.5,0.8,0,643,2,1,1,3,3,48,192,240,,,,,,0,96,96,96,,,,,,,,,,,,,,,,,,,,,,,,,,,,,,,,,,,,,,,,,,,,,,,,,,,,,,,,,616.2704104000004,616.7757169000006,616.7757169000006,617.5282120000002,617.5282120000002,618.0309164999999,618.0309164999999,618.8334439,618.8334439,618.8334439,None,,618.8334439,None,miss,0,,621.8351991199999,None,None,621.8351991199999,None,,,,,,,,,,,,,,,,,,,,,,,,,,,,,,,,,,,,,,,,,,,,,,,,,,,,,34,001,1,22,475,375,2022_Oct_31_1105,Experiment,2021.1.4,360.2020012899052,
images\S4_M_S_02.png,images\S4_M_S_02_scrambled.png,4,sad,-20,male,2,,23,off,1,0.5,0.75,0.5,0.753,3,22,1,1,1,0,0,0,0,2,,,,,,0,97,97,97,,,,,,,,,,,,,,,,,,,,,,,,,,,,,,,,,,,,,,,,,,,,,,,,,,,,,,,,,621.9492840000003,622.4517243999999,622.4517243999999,623.2014632,623.2014632,623.7040709000003,623.7040709000003,624.4621924000003,624.4621924000003,None,num_4,0.48140909999983705,624.4621924000003,621.9492840000003,sad,0,Sad,624.9648895600002,None,None,624.9648895600002,None,,,,,,,,,,,,,,,,,,,,,,,,,,,,,,,,,,,,,,,,,,,,,,,,,,,,,34,001,1,22,475,375,2022_Oct_31_1105,Experiment,2021.1.4,360.2020012899052,
images\S4_M_H_01.png,images\S4_M_H_01_scrambled.png,4,happy,10,male,4,,259,off,1,0.5,0.75,0.5,0.888,3,258,2,2,1,0,0,0,0,4,,,,,,0,98,98,98,,,,,,,,,,,,,,,,,,,,,,,,,,,,,,,,,,,,,,,,,,,,,,,,,,,,,,,,,625.0175668000002,625.5229755,625.5229755,626.2755254000003,626.2755254000003,626.7809539999998,626.7809539999998,627.6723234000001,627.6723234000001,None,num_4,0.29556719999982306,627.6723234000001,None,sad,0,Happy,627.97786784,None,None,627.97786784,None,,,,,,,,,,,,,,,,,,,,,,,,,,,,,,,,,,,,,,,,,,,,,,,,,,,,,34,001,1,22,475,375,2022_Oct_31_1105,Experiment,2021.1.4,360.2020012899052,
images\S5_F_H_03.png,images\S5_F_H_03_scrambled.png,5,happy,30,female,6,,567,on,2,0.5,0.75,0.5,0.753,3,566,1,1,1,2,2,32,128,166,,,,,,0,99,99,99,,,,,,,,,,,,,,,,,,,,,,,,,,,,,,,,,,,,,,,,,,,,,,,,,,,,,,,,,628.0333061000001,628.5331388000004,628.5331388000004,629.2829044999999,629.2829044999999,629.7856568000007,629.7856568000007,630.5409319999999,630.5409319999999,None,num_6,0.41096209999977873,630.5409319999999,None,happy,0,Happy,630.9657168799998,None,None,630.9657168799998,None,,,,,,,,,,,,,,,,,,,,,,,,,,,,,,,,,,,,,,,,,,,,,,,,,,,,,34,001,1,22,475,375,2022_Oct_31_1105,Experiment,2021.1.4,360.2020012899052,
images\S2_M_H_03.png,images\S2_M_H_03_scrambled.png,2,happy,30,male,6,,549,on,2,0.5,0.75,0.5,0.795,3,548,2,1,2,2,2,32,128,166,,,,,,0,100,100,100,,,,,,,,,,,,,,,,,,,,,,,,,,,,,,,,,,,,,,,,,,,,,,,,,,,,,,,,,631.0129389000003,631.5156922000006,631.5156922000006,632.2709401000002,632.2709401000002,632.7763296000003,632.7763296000003,633.5760575000004,633.5760575000004,None,num_6,0.3036379000004672,633.5760575000004,None,happy,0,Happy,633.9065543599999,None,None,633.9065543599999,None,,,,,,,,,,,,,,,,,,,,,,,,,,,,,,,,,,,,,,,,,,,,,,,,,,,,,34,001,1,22,475,375,2022_Oct_31_1105,Experiment,2021.1.4,360.2020012899052,
images\S4_M_S_03.png,images\S4_M_S_03_scrambled.png,4,sad,-30,male,1,,204,on,2,0.5,0.75,0.5,0.846,3,203,3,1,1,2,2,32,128,161,,,,,,0,101,101,101,,,,,,,,,,,,,,,,,,,,,,,,,,,,,,,,,,,,,,,,,,,,,,,,,,,,,,,,,633.9703587000004,634.4758470000006,634.4758470000006,635.2311211000006,635.2311211000006,635.7365024000001,635.7365024000001,636.5862772999999,636.5862772999999,None,num_4,0.34146509999936825,636.5862772999999,None,sad,0,Sad,636.9416498800005,None,None,636.9416498800005,None,,,,,,,,,,,,,,,,,,,,,,,,,,,,,,,,,,,,,,,,,,,,,,,,,,,,,34,001,1,22,475,375,2022_Oct_31_1105,Experiment,2021.1.4,360.2020012899052,
images\S8_M_S_03.png,images\S8_M_S_03_scrambled.png,8,sad,-30,male,1,,528,off,1,0.5,0.75,0.5,0.804,3,527,1,1,2,0,0,0,0,1,,,,,,0,102,102,102,,,,,,,,,,,,,,,,,,,,,,,,,,,,,,,,,,,,,,,,,,,,,,,,,,,,,,,,,636.9888750999999,637.4887103000001,637.4887103000001,638.2413016,638.2413016,638.7466899000001,638.7466899000001,639.5548686000002,639.5548686000002,None,num_4,0.3570443999997224,639.5548686000002,None,sad,0,Sad,639.9408105600004,None,None,639.9408105600004,None,,,,,,,,,,,,,,,,,,,,,,,,,,,,,,,,,,,,,,,,,,,,,,,,,,,,,34,001,1,22,475,375,2022_Oct_31_1105,Experiment,2021.1.4,360.2020012899052,
images\S7_F_H_02.png,images\S7_F_H_02_scrambled.png,7,happy,20,female,5,,458,on,2,0.5,0.75,0.5,0.846,3,457,1,1,1,2,2,32,128,165,,,,,,0,103,103,103,,,,,,,,,,,,,,,,,,,,,,,,,,,,,,,,,,,,,,,,,,,,,,,,,,,,,,,,,639.9934936999998,640.4961675000004,640.4961675000004,641.2487089000006,641.2487089000006,641.7512815999999,641.7512815999999,642.6010313000006,642.6010313000006,None,num_4,0.3345171000000846,642.6010313000006,None,sad,0,Happy,642.9398537400004,None,None,642.9398537400004,None,,,,,,,,,,,,,,,,,,,,,,,,,,,,,,,,,,,,,,,,,,,,,,,,,,,,,34,001,1,22,475,375,2022_Oct_31_1105,Experiment,2021.1.4,360.2020012899052,
images\S5_F_H_01.png,images\S5_F_H_01_scrambled.png,5,happy,10,female,4,,145,off,1,0.5,0.75,0.5,0.833,3,144,1,1,1,0,0,0,0,4,,,,,,0,104,104,104,,,,,,,,,,,,,,,,,,,,,,,,,,,,,,,,,,,,,,,,,,,,,,,,,,,,,,,,,643.0508911000006,643.5507453,643.5507453,644.3061144000003,644.3061144000003,644.8115115,644.8115115,645.6473350000006,645.6473350000006,None,num_6,0.7680923999996594,645.6473350000006,None,happy,0,Happy,646.4303874800001,None,None,646.4303874800001,None,,,,,,,,,,,,,,,,,,,,,,,,,,,,,,,,,,,,,,,,,,,,,,,,,,,,,34,001,1,22,475,375,2022_Oct_31_1105,Experiment,2021.1.4,360.2020012899052,
images\blank.jpg,images\blank.jpg,none,none,none,none,0,,613,on,2,0.5,0.75,0.5,0.916,0,612,1,1,1,3,3,48,192,240,,,,,,0,105,105,105,,,,,,,,,,,,,,,,,,,,,,,,,,,,,,,,,,,,,,,,,,,,,,,,,,,,,,,,,646.5167194000005,647.0191911000002,647.0191911000002,647.7745556,647.7745556,648.2770833000004,648.2770833000004,649.1934922,649.1934922,649.1934922,None,,649.1934922,None,miss,0,,652.1953495400005,None,None,652.1953495400005,None,,,,,,,,,,,,,,,,,,,,,,,,,,,,,,,,,,,,,,,,,,,,,,,,,,,,,34,001,1,22,475,375,2022_Oct_31_1105,Experiment,2021.1.4,360.2020012899052,
images\S4_M_S_02.png,images\S4_M_S_02_scrambled.png,4,sad,-20,male,2,,323,on,2,0.5,0.75,0.5,0.911,3,322,2,1,1,2,2,32,128,162,,,,,,0,106,106,106,,,,,,,,,,,,,,,,,,,,,,,,,,,,,,,,,,,,,,,,,,,,,,,,,,,,,,,,,652.3149318000005,652.8173277000005,652.8173277000005,653.5700045000003,653.5700045000003,654.0753878000005,654.0753878000005,654.9889082999998,654.9889082999998,None,num_4,0.43479779999961465,654.9889082999998,652.3149318000005,sad,0,Sad,655.4554943400005,None,None,655.4554943400005,None,,,,,,,,,,,,,,,,,,,,,,,,,,,,,,,,,,,,,,,,,,,,,,,,,,,,,34,001,1,22,475,375,2022_Oct_31_1105,Experiment,2021.1.4,360.2020012899052,
images\S4_M_H_02.png,images\S4_M_H_02_scrambled.png,4,happy,20,male,5,,500,off,1,0.5,0.75,0.5,0.796,3,499,1,2,1,0,0,0,0,5,,,,,,0,107,107,107,,,,,,,,,,,,,,,,,,,,,,,,,,,,,,,,,,,,,,,,,,,,,,,,,,,,,,,,,655.5053827000002,656.0079985000002,656.0079985000002,656.7605626000004,656.7605626000004,657.2659996000002,657.2659996000002,658.0657915000002,658.0657915000002,None,num_4,0.2375024000002668,658.0657915000002,None,sad,0,Happy,658.3156149600003,None,None,658.3156149600003,None,,,,,,,,,,,,,,,,,,,,,,,,,,,,,,,,,,,,,,,,,,,,,,,,,,,,,34,001,1,22,475,375,2022_Oct_31_1105,Experiment,2021.1.4,360.2020012899052,
images\blank.jpg,images\blank.jpg,none,none,none,none,0,,610,on,2,0.5,0.75,0.5,0.752,0,609,1,1,1,3,3,48,192,240,,,,,,0,108,108,108,,,,,,,,,,,,,,,,,,,,,,,,,,,,,,,,,,,,,,,,,,,,,,,,,,,,,,,,,658.4157691,658.9154569000002,658.9154569000002,659.6708545000001,659.6708545000001,660.1762180000005,660.1762180000005,660.9287610000001,660.9287610000001,660.9287610000001,None,,660.9287610000001,None,miss,0,,663.9305750400001,None,None,663.9305750400001,None,,,,,,,,,,,,,,,,,,,,,,,,,,,,,,,,,,,,,,,,,,,,,,,,,,,,,34,001,1,22,475,375,2022_Oct_31_1105,Experiment,2021.1.4,360.2020012899052,
images\S8_M_S_02.png,images\S8_M_S_02_scrambled.png,8,sad,-20,male,2,,347,on,2,0.5,0.75,0.5,0.884,3,346,2,1,1,2,2,32,128,162,,,,,,0,109,109,109,,,,,,,,,,,,,,,,,,,,,,,,,,,,,,,,,,,,,,,,,,,,,,,,,,,,,,,,,664.0390225000001,664.5414848999999,664.5414848999999,665.2912505000004,665.2912505000004,665.7938757000002,665.7938757000002,666.6798548000006,666.6798548000006,None,num_4,0.3681440999998813,666.6798548000006,664.0390225000001,sad,0,Sad,667.06292118,None,None,667.06292118,None,,,,,,,,,,,,,,,,,,,,,,,,,,,,,,,,,,,,,,,,,,,,,,,,,,,,,34,001,1,22,475,375,2022_Oct_31_1105,Experiment,2021.1.4,360.2020012899052,
images\S5_F_H_01.png,images\S5_F_H_01_scrambled.png,5,happy,10,female,4,,205,on,2,0.5,0.75,0.5,0.9,3,204,3,1,1,2,2,32,128,164,,,,,,0,110,110,110,,,,,,,,,,,,,,,,,,,,,,,,,,,,,,,,,,,,,,,,,,,,,,,,,,,,,,,,,667.1101396000004,667.6127514999998,667.6127514999998,668.3653236,668.3653236,668.8708381000006,668.8708381000006,669.7732102,669.7732102,None,num_6,0.3063885000001392,669.7732102,None,happy,0,Happy,670.0925482799997,None,None,670.0925482799997,None,,,,,,,,,,,,,,,,,,,,,,,,,,,,,,,,,,,,,,,,,,,,,,,,,,,,,34,001,1,22,475,375,2022_Oct_31_1105,Experiment,2021.1.4,360.2020012899052,
images\S2_M_S_02.png,images\S2_M_S_02_scrambled.png,2,sad,-20,male,2,,251,off,1,0.5,0.75,0.5,0.839,3,250,1,1,1,0,0,0,0,2,,,,,,0,111,111,111,,,,,,,,,,,,,,,,,,,,,,,,,,,,,,,,,,,,,,,,,,,,,,,,,,,,,,,,,670.1397603000005,670.6452859999999,670.6452859999999,671.3949411000003,671.3949411000003,671.9004462000003,671.9004462000003,672.7417694000005,672.7417694000005,None,num_4,0.2816054000004442,672.7417694000005,None,sad,0,Sad,673.0388503799999,None,None,673.0388503799999,None,,,,,,,,,,,,,,,,,,,,,,,,,,,,,,,,,,,,,,,,,,,,,,,,,,,,,34,001,1,22,475,375,2022_Oct_31_1105,Experiment,2021.1.4,360.2020012899052,
images\S6_M_S_03.png,images\S6_M_S_03_scrambled.png,6,sad,-30,male,1,,36,off,1,0.5,0.75,0.5,0.775,3,35,2,1,1,0,0,0,0,1,,,,,,0,112,112,112,,,,,,,,,,,,,,,,,,,,,,,,,,,,,,,,,,,,,,,,,,,,,,,,,,,,,,,,,673.1471640999998,673.6499346999999,673.6499346999999,674.4052049000002,674.4052049000002,674.9106585,674.9106585,675.6908948999999,675.6908948999999,None,num_4,0.23715079999965383,675.6908948999999,None,sad,0,Sad,675.9407428799999,None,None,675.9407428799999,None,,,,,,,,,,,,,,,,,,,,,,,,,,,,,,,,,,,,,,,,,,,,,,,,,,,,,34,001,1,22,475,375,2022_Oct_31_1105,Experiment,2021.1.4,360.2020012899052,
images\S6_M_S_02.png,images\S6_M_S_02_scrambled.png,6,sad,-20,male,2,,95,on,2,0.5,0.75,0.5,0.765,3,94,1,2,1,2,2,32,128,162,,,,,,0,113,113,113,,,,,,,,,,,,,,,,,,,,,,,,,,,,,,,,,,,,,,,,,,,,,,,,,,,,,,,,,676.0268360999999,676.5266698000005,676.5266698000005,677.2820187000007,677.2820187000007,677.7874212000006,677.7874212000006,678.5566422000002,678.5566422000002,None,num_4,0.29105450000042765,678.5566422000002,None,sad,0,Sad,678.8759938600004,None,None,678.8759938600004,None,,,,,,,,,,,,,,,,,,,,,,,,,,,,,,,,,,,,,,,,,,,,,,,,,,,,,34,001,1,22,475,375,2022_Oct_31_1105,Experiment,2021.1.4,360.2020012899052,
images\S1_F_H_01.png,images\S1_F_H_01_scrambled.png,1,happy,10,female,4,,1,off,1,0.5,0.75,0.5,0.759,3,0,1,1,1,0,0,0,0,4,,,,,,0,114,114,114,,,,,,,,,,,,,,,,,,,,,,,,,,,,,,,,,,,,,,,,,,,,,,,,,,,,,,,,,678.9259354000005,679.4285600000003,679.4285600000003,680.1783338000005,680.1783338000005,680.6810055000005,680.6810055000005,681.4418651000005,681.4418651000005,None,num_6,0.33364219999930356,681.4418651000005,None,happy,0,Happy,681.7889346800006,None,None,681.7889346800006,None,,,,,,,,,,,,,,,,,,,,,,,,,,,,,,,,,,,,,,,,,,,,,,,,,,,,,34,001,1,22,475,375,2022_Oct_31_1105,Experiment,2021.1.4,360.2020012899052,
images\S8_M_H_03.png,images\S8_M_H_03_scrambled.png,8,happy,30,male,6,,525,off,1,0.5,0.75,0.5,0.786,3,524,2,1,1,0,0,0,0,6,,,,,,0,115,115,115,,,,,,,,,,,,,,,,,,,,,,,,,,,,,,,,,,,,,,,,,,,,,,,,,,,,,,,,,681.8361503000006,682.3387708999999,682.3387708999999,683.0913715000006,683.0913715000006,683.5939333000006,683.5939333000006,684.3798044000005,684.3798044000005,None,num_6,0.2994957000000795,684.3798044000005,None,happy,0,Happy,684.6935803800001,None,None,684.6935803800001,None,,,,,,,,,,,,,,,,,,,,,,,,,,,,,,,,,,,,,,,,,,,,,,,,,,,,,34,001,1,22,475,375,2022_Oct_31_1105,Experiment,2021.1.4,360.2020012899052,
images\S2_M_H_02.png,images\S2_M_H_02_scrambled.png,2,happy,20,male,5,,8,off,1,0.5,0.75,0.5,0.782,3,7,3,1,1,0,0,0,0,5,,,,,,0,116,116,116,,,,,,,,,,,,,,,,,,,,,,,,,,,,,,,,,,,,,,,,,,,,,,,,,,,,,,,,,684.7408112000003,685.2462470999999,685.2462470999999,685.9959716000003,685.9959716000003,686.5014323000005,686.5014323000005,687.2928424000002,687.2928424000002,None,num_6,0.3867854999998599,687.2928424000002,None,happy,0,Happy,687.6954435800002,None,None,687.6954435800002,None,,,,,,,,,,,,,,,,,,,,,,,,,,,,,,,,,,,,,,,,,,,,,,,,,,,,,34,001,1,22,475,375,2022_Oct_31_1105,Experiment,2021.1.4,360.2020012899052,
images\S9_F_S_01.png,images\S9_F_S_01_scrambled.png,9,sad,-10,female,3,,172,off,1,0.5,0.75,0.5,0.777,3,171,4,1,1,0,0,0,0,3,,,,,,0,117,117,117,,,,,,,,,,,,,,,,,,,,,,,,,,,,,,,,,,,,,,,,,,,,,,,,,,,,,,,,,687.7759904000004,688.2814211000004,688.2814211000004,689.0367433000001,689.0367433000001,689.5421297000003,689.5421297000003,690.3280491000005,690.3280491000005,None,num_4,0.559439999999995,690.3280491000005,None,sad,0,Sad,690.90278798,None,None,690.90278798,None,,,,,,,,,,,,,,,,,,,,,,,,,,,,,,,,,,,,,,,,,,,,,,,,,,,,,34,001,1,22,475,375,2022_Oct_31_1105,Experiment,2021.1.4,360.2020012899052,
images\S10_M_S_02.png,images\S10_M_S_02_scrambled.png,10,sad,-20,male,2,,59,off,1,0.5,0.75,0.5,0.81,3,58,5,1,1,0,0,0,0,2,,,,,,0,118,118,118,,,,,,,,,,,,,,,,,,,,,,,,,,,,,,,,,,,,,,,,,,,,,,,,,,,,,,,,,690.9500125000004,691.4555593000005,691.4555593000005,692.2108089000003,692.2108089000003,692.7161784999998,692.7161784999998,693.5299027000001,693.5299027000001,None,num_4,0.3415923999991719,693.5299027000001,None,sad,0,Sad,693.8962939600004,None,None,693.8962939600004,None,,,,,,,,,,,,,,,,,,,,,,,,,,,,,,,,,,,,,,,,,,,,,,,,,,,,,34,001,1,22,475,375,2022_Oct_31_1105,Experiment,2021.1.4,360.2020012899052,
images\S4_M_S_01.png,images\S4_M_S_01_scrambled.png,4,sad,-10,male,3,,262,off,1,0.5,0.75,0.5,0.908,3,261,6,1,1,0,0,0,0,3,,,,,,0,119,119,119,,,,,,,,,,,,,,,,,,,,,,,,,,,,,,,,,,,,,,,,,,,,,,,,,,,,,,,,,693.9601884000003,694.4600270000001,694.4600270000001,695.2098243999999,695.2098243999999,695.7153248000004,695.7153248000004,696.6260871000004,696.6260871000004,None,num_4,0.7656328000002759,696.6260871000004,None,sad,0,Sad,697.4063389799998,None,None,697.4063389799998,None,,,,,,,,,,,,,,,,,,,,,,,,,,,,,,,,,,,,,,,,,,,,,,,,,,,,,34,001,1,22,475,375,2022_Oct_31_1105,Experiment,2021.1.4,360.2020012899052,
images\S6_M_H_03.png,images\S6_M_H_03_scrambled.png,6,happy,30,male,6,,213,on,2,0.5,0.75,0.5,0.896,3,212,1,1,1,2,2,32,128,166,,,,,,0,120,120,120,,,,,,,,,,,,,,,,,,,,,,,,,,,,,,,,,,,,,,,,,,,,,,,,,,,,,,,,,697.4535572000004,697.9561791000006,697.9561791000006,698.7087759000005,698.7087759000005,699.2085617000002,699.2085617000002,700.1111256000004,700.1111256000004,None,num_6,0.5923640000000887,700.1111256000004,None,happy,0,Happy,700.7136665800002,None,None,700.7136665800002,None,,,,,,,,,,,,,,,,,,,,,,,,,,,,,,,,,,,,,,,,,,,,,,,,,,,,,34,001,1,22,475,375,2022_Oct_31_1105,Experiment,2021.1.4,360.2020012899052,
images\S2_M_H_01.png,images\S2_M_H_01_scrambled.png,2,happy,10,male,4,,367,off,1,0.5,0.75,0.5,0.882,3,366,1,1,1,0,0,0,0,4,,,,,,0,121,121,121,,,,,,,,,,,,,,,,,,,,,,,,,,,,,,,,,,,,,,,,,,,,,,,,,,,,,,,,,700.7969684999998,701.2968055000001,701.2968055000001,702.0465794000002,702.0465794000002,702.5464658000001,702.5464658000001,703.4322880999998,703.4322880999998,None,num_4,0.29543829999965965,703.4322880999998,None,sad,0,Happy,703.7406056600006,None,None,703.7406056600006,None,,,,,,,,,,,,,,,,,,,,,,,,,,,,,,,,,,,,,,,,,,,,,,,,,,,,,34,001,1,22,475,375,2022_Oct_31_1105,Experiment,2021.1.4,360.2020012899052,
images\S10_M_S_01.png,images\S10_M_S_01_scrambled.png,10,sad,-10,male,3,,598,on,2,0.5,0.75,0.5,0.933,3,597,1,1,1,2,2,32,128,163,,,,,,0,122,122,122,,,,,,,,,,,,,,,,,,,,,,,,,,,,,,,,,,,,,,,,,,,,,,,,,,,,,,,,,703.8015943999999,704.3070163000002,704.3070163000002,705.0567658,705.0567658,705.5621895000004,705.5621895000004,706.5008379999999,706.5008379999999,None,num_6,0.3947022000002107,706.5008379999999,None,happy,0,Sad,706.9062421400006,None,None,706.9062421400006,None,,,,,,,,,,,,,,,,,,,,,,,,,,,,,,,,,,,,,,,,,,,,,,,,,,,,,34,001,1,22,475,375,2022_Oct_31_1105,Experiment,2021.1.4,360.2020012899052,
images\S4_M_S_02.png,images\S4_M_S_02_scrambled.png,4,sad,-20,male,2,,443,on,2,0.5,0.75,0.5,0.894,3,442,2,1,1,2,2,32,128,162,,,,,,0,123,123,123,,,,,,,,,,,,,,,,,,,,,,,,,,,,,,,,,,,,,,,,,,,,,,,,,,,,,,,,,706.9589714000003,707.4615733999999,707.4615733999999,708.2141748000004,708.2141748000004,708.7167813000005,708.7167813000005,709.6165033000007,709.6165033000007,None,num_4,0.7188396999999895,709.6165033000007,None,sad,0,Sad,710.3467871799998,None,None,710.3467871799998,None,,,,,,,,,,,,,,,,,,,,,,,,,,,,,,,,,,,,,,,,,,,,,,,,,,,,,34,001,1,22,475,375,2022_Oct_31_1105,Experiment,2021.1.4,360.2020012899052,
images\S7_F_H_01.png,images\S7_F_H_01_scrambled.png,7,happy,10,female,4,,397,off,1,0.5,0.75,0.5,0.769,3,396,1,1,1,0,0,0,0,4,,,,,,0,124,124,124,,,,,,,,,,,,,,,,,,,,,,,,,,,,,,,,,,,,,,,,,,,,,,,,,,,,,,,,,710.3967808000007,710.8966234999998,710.8966234999998,711.6519595,711.6519595,712.1573707000007,712.1573707000007,712.9321393,712.9321393,None,num_6,0.44327770000018063,712.9321393,None,happy,0,Happy,713.40141046,None,None,713.40141046,None,,,,,,,,,,,,,,,,,,,,,,,,,,,,,,,,,,,,,,,,,,,,,,,,,,,,,34,001,1,22,475,375,2022_Oct_31_1105,Experiment,2021.1.4,360.2020012899052,
images\S3_F_S_01.png,images\S3_F_S_01_scrambled.png,3,sad,-10,female,3,,136,off,1,0.5,0.75,0.5,0.784,3,135,2,1,1,0,0,0,0,3,,,,,,0,125,125,125,,,,,,,,,,,,,,,,,,,,,,,,,,,,,,,,,,,,,,,,,,,,,,,,,,,,,,,,,713.5124857999999,714.0151076000002,714.0151076000002,714.7648753000003,714.7648753000003,715.2704165000005,715.2704165000005,716.0562046000005,716.0562046000005,None,num_4,0.8231773999996221,716.0562046000005,None,sad,0,Sad,716.8947603800001,None,None,716.8947603800001,None,,,,,,,,,,,,,,,,,,,,,,,,,,,,,,,,,,,,,,,,,,,,,,,,,,,,,34,001,1,22,475,375,2022_Oct_31_1105,Experiment,2021.1.4,360.2020012899052,
images\S1_F_S_03.png,images\S1_F_S_03_scrambled.png,1,sad,-30,female,1,,66,on,2,0.5,0.75,0.5,0.802,3,65,1,1,1,2,2,32,128,161,,,,,,0,126,126,126,,,,,,,,,,,,,,,,,,,,,,,,,,,,,,,,,,,,,,,,,,,,,,,,,,,,,,,,,716.9419986000003,717.4474126000005,717.4474126000005,718.1999274,718.1999274,718.6997764000007,718.6997764000007,719.5052157,719.5052157,None,num_4,0.7422026000003825,719.5052157,None,sad,0,Sad,720.2770496000003,None,None,720.2770496000003,None,,,,,,,,,,,,,,,,,,,,,,,,,,,,,,,,,,,,,,,,,,,,,,,,,,,,,34,001,1,22,475,375,2022_Oct_31_1105,Experiment,2021.1.4,360.2020012899052,
images\S5_F_H_03.png,images\S5_F_H_03_scrambled.png,5,happy,30,female,6,,267,off,1,0.5,0.75,0.5,0.908,3,266,1,1,1,0,0,0,0,6,,,,,,0,127,127,127,,,,,,,,,,,,,,,,,,,,,,,,,,,,,,,,,,,,,,,,,,,,,,,,,,,,,,,,,720.3298330000007,720.832472,720.832472,721.5849949000003,721.5849949000003,722.0905148000002,722.0905148000002,723.0012494000002,723.0012494000002,None,num_6,0.6223638000001301,723.0012494000002,None,happy,0,Happy,723.6344159800004,None,None,723.6344159800004,None,,,,,,,,,,,,,,,,,,,,,,,,,,,,,,,,,,,,,,,,,,,,,,,,,,,,,34,001,1,22,475,375,2022_Oct_31_1105,Experiment,2021.1.4,360.2020012899052,
images\S1_F_H_01.png,images\S1_F_H_01_scrambled.png,1,happy,10,female,4,,361,off,1,0.5,0.75,0.5,0.815,3,360,2,1,1,0,0,0,0,4,,,,,,0,128,128,128,,,,,,,,,,,,,,,,,,,,,,,,,,,,,,,,,,,,,,,,,,,,,,,,,,,,,,,,,723.6815765000001,724.1869998000002,724.1869998000002,724.9423196000007,724.9423196000007,725.4477099000005,725.4477099000005,726.2698022000004,726.2698022000004,None,num_6,0.3775610000002416,726.2698022000004,None,happy,0,Happy,726.6639860199999,None,None,726.6639860199999,None,,,,,,,,,,,,,,,,,,,,,,,,,,,,,,,,,,,,,,,,,,,,,,,,,,,,,34,001,1,22,475,375,2022_Oct_31_1105,Experiment,2021.1.4,360.2020012899052,
images\S7_F_H_03.png,images\S7_F_H_03_scrambled.png,7,happy,30,female,6,,399,off,1,0.5,0.75,0.5,0.875,3,398,3,1,1,0,0,0,0,6,,,,,,0,129,129,129,,,,,,,,,,,,,,,,,,,,,,,,,,,,,,,,,,,,,,,,,,,,,,,,,,,,,,,,,726.7111967000001,727.2138185000003,727.2138185000003,727.9664004000006,727.9664004000006,728.4717883000003,728.4717883000003,729.3520729000002,729.3520729000002,None,num_6,0.5519613999995272,729.3520729000002,None,happy,0,Happy,729.9297299600001,None,None,729.9297299600001,None,,,,,,,,,,,,,,,,,,,,,,,,,,,,,,,,,,,,,,,,,,,,,,,,,,,,,34,001,1,22,475,375,2022_Oct_31_1105,Experiment,2021.1.4,360.2020012899052,
images\S9_F_H_01.png,images\S9_F_H_01_scrambled.png,9,happy,10,female,4,,109,on,2,0.5,0.75,0.5,0.916,3,108,1,1,1,2,2,32,128,164,,,,,,0,130,130,130,,,,,,,,,,,,,,,,,,,,,,,,,,,,,,,,,,,,,,,,,,,,,,,,,,,,,,,,,729.9824112000006,730.4851803000001,730.4851803000001,731.2404864999999,731.2404864999999,731.7429726999999,731.7429726999999,732.6621656000007,732.6621656000007,None,num_4,0.42543750000004366,732.6621656000007,None,sad,0,Happy,733.0981502000004,None,space,733.0981502000004,None,68.34867450000002,,,,,,,,,,,,,,,,,,,,,,,,,,,,,,,,,,,,,,,,,,,,,,,,,,,,34,001,1,22,475,375,2022_Oct_31_1105,Experiment,2021.1.4,360.2020012899052,
images\S3_F_H_01.png,images\S3_F_H_01_scrambled.png,3,happy,10,female,4,,253,off,1,0.5,0.75,0.5,0.776,3,252,1,1,2,0,0,0,0,4,,,,,,0,131,131,131,,,,,,,,,,,,,,,,,,,,,,,,,,,,,,,,,,,,,,,,,,,,,,,,,,,,,,,,,801.49921,802.0046560000001,802.0046560000001,802.7571994999998,802.7571994999998,803.2626570000002,803.2626570000002,804.0429395000001,804.0429395000001,None,num_4,0.4044273000008616,804.0429395000001,None,sad,0,Happy,804.4621992799997,None,None,804.4621992799997,None,,,,,,,,,,,,,,,,,,,,,,,,,,,,,,,,,,,,,,,,,,,,,,,,,,,,,34,001,1,22,475,375,2022_Oct_31_1105,Experiment,2021.1.4,360.2020012899052,
images\S2_M_S_03.png,images\S2_M_S_03_scrambled.png,2,sad,-30,male,1,,72,on,2,0.5,0.75,0.5,0.796,3,71,1,1,1,2,2,32,128,161,,,,,,0,132,132,132,,,,,,,,,,,,,,,,,,,,,,,,,,,,,,,,,,,,,,,,,,,,,,,,,,,,,,,,,804.5094276,805.0120384000002,805.0120384000002,805.7618403000006,805.7618403000006,806.2673423000006,806.2673423000006,807.0669594000001,807.0669594000001,None,num_4,0.36422330000004877,807.0669594000001,None,sad,0,Sad,807.4585186600005,None,None,807.4585186600005,None,,,,,,,,,,,,,,,,,,,,,,,,,,,,,,,,,,,,,,,,,,,,,,,,,,,,,34,001,1,22,475,375,2022_Oct_31_1105,Experiment,2021.1.4,360.2020012899052,
images\S9_F_S_03.png,images\S9_F_S_03_scrambled.png,9,sad,-30,female,1,,234,on,2,0.5,0.75,0.5,0.822,3,233,2,1,2,2,2,32,128,161,,,,,,0,133,133,133,,,,,,,,,,,,,,,,,,,,,,,,,,,,,,,,,,,,,,,,,,,,,,,,,,,,,,,,,807.5223746000001,808.0222404000006,808.0222404000006,808.7747662000002,808.7747662000002,809.2775167,809.2775167,810.1021453000003,810.1021453000003,None,num_4,0.4013084999996863,810.1021453000003,None,sad,0,Sad,810.5186675799999,None,None,810.5186675799999,None,,,,,,,,,,,,,,,,,,,,,,,,,,,,,,,,,,,,,,,,,,,,,,,,,,,,,34,001,1,22,475,375,2022_Oct_31_1105,Experiment,2021.1.4,360.2020012899052,
images\S10_M_H_03.png,images\S10_M_H_03_scrambled.png,10,happy,30,male,6,,57,off,1,0.5,0.75,0.5,0.854,3,56,1,1,1,0,0,0,0,6,,,,,,0,134,134,134,,,,,,,,,,,,,,,,,,,,,,,,,,,,,,,,,,,,,,,,,,,,,,,,,,,,,,,,,810.5658951000005,811.0657302,811.0657302,811.8154975000007,811.8154975000007,812.3181166000004,812.3181166000004,813.1789988,813.1789988,None,num_6,0.37250349999976606,813.1789988,None,happy,0,Happy,813.5649565799998,None,None,813.5649565799998,None,,,,,,,,,,,,,,,,,,,,,,,,,,,,,,,,,,,,,,,,,,,,,,,,,,,,,34,001,1,22,475,375,2022_Oct_31_1105,Experiment,2021.1.4,360.2020012899052,
images\S8_M_S_01.png,images\S8_M_S_01_scrambled.png,8,sad,-10,male,3,,346,on,2,0.5,0.75,0.5,0.773,3,345,1,1,1,2,2,32,128,163,,,,,,0,135,135,135,,,,,,,,,,,,,,,,,,,,,,,,,,,,,,,,,,,,,,,,,,,,,,,,,,,,,,,,,813.6454967999998,814.1481526000007,814.1481526000007,814.8978911000004,814.8978911000004,815.4033201000002,815.4033201000002,816.1780784000002,816.1780784000002,None,num_4,0.33358990000033373,816.1780784000002,None,sad,0,Sad,816.5307980200001,None,None,816.5307980200001,None,,,,,,,,,,,,,,,,,,,,,,,,,,,,,,,,,,,,,,,,,,,,,,,,,,,,,34,001,1,22,475,375,2022_Oct_31_1105,Experiment,2021.1.4,360.2020012899052,
images\S7_F_H_03.png,images\S7_F_H_03_scrambled.png,7,happy,30,female,6,,219,on,2,0.5,0.75,0.5,0.931,3,218,2,1,1,2,2,32,128,166,,,,,,0,136,136,136,,,,,,,,,,,,,,,,,,,,,,,,,,,,,,,,,,,,,,,,,,,,,,,,,,,,,,,,,816.5834816000006,817.0889047999999,817.0889047999999,817.8415590000004,817.8415590000004,818.3440728000005,818.3440728000005,819.2772166000004,819.2772166000004,None,num_6,0.30597560000023805,819.2772166000004,None,happy,0,Happy,819.6103009799998,None,None,819.6103009799998,None,,,,,,,,,,,,,,,,,,,,,,,,,,,,,,,,,,,,,,,,,,,,,,,,,,,,,34,001,1,22,475,375,2022_Oct_31_1105,Experiment,2021.1.4,360.2020012899052,
images\S1_F_H_01.png,images\S1_F_H_01_scrambled.png,1,happy,10,female,4,,301,on,2,0.5,0.75,0.5,0.925,3,300,3,1,1,2,2,32,128,164,,,,,,0,137,137,137,,,,,,,,,,,,,,,,,,,,,,,,,,,,,,,,,,,,,,,,,,,,,,,,,,,,,,,,,819.6630837000002,820.1685232,820.1685232,820.9182484000003,820.9182484000003,821.4236747000004,821.4236747000004,822.3539435000002,822.3539435000002,None,num_6,0.35734619999948336,822.3539435000002,None,happy,0,Happy,822.7232496800001,None,None,822.7232496800001,None,,,,,,,,,,,,,,,,,,,,,,,,,,,,,,,,,,,,,,,,,,,,,,,,,,,,,34,001,1,22,475,375,2022_Oct_31_1105,Experiment,2021.1.4,360.2020012899052,
images\S1_F_S_03.png,images\S1_F_S_03_scrambled.png,1,sad,-30,female,1,,546,on,2,0.5,0.75,0.5,0.825,3,545,4,2,1,2,2,32,128,161,,,,,,0,138,138,138,,,,,,,,,,,,,,,,,,,,,,,,,,,,,,,,,,,,,,,,,,,,,,,,,,,,,,,,,822.7704604,823.2730801000007,823.2730801000007,824.0284347000006,824.0284347000006,824.5310614999999,824.5310614999999,825.3585403000006,825.3585403000006,None,num_6,1.1289117999995142,825.3585403000006,None,happy,0,Sad,826.49707814,None,None,826.49707814,None,,,,,,,,,,,,,,,,,,,,,,,,,,,,,,,,,,,,,,,,,,,,,,,,,,,,,34,001,1,22,475,375,2022_Oct_31_1105,Experiment,2021.1.4,360.2020012899052,
images\S9_F_S_01.png,images\S9_F_S_01_scrambled.png,9,sad,-10,female,3,,292,off,1,0.5,0.75,0.5,0.821,3,291,1,1,1,0,0,0,0,3,,,,,,0,139,139,139,,,,,,,,,,,,,,,,,,,,,,,,,,,,,,,,,,,,,,,,,,,,,,,,,,,,,,,,,826.5443017000007,827.0470515000006,827.0470515000006,827.7994714000006,827.7994714000006,828.3022264000001,828.3022264000001,829.1269786000003,829.1269786000003,None,num_6,0.616348200000175,829.1269786000003,None,happy,0,Sad,829.7516251400004,None,None,829.7516251400004,None,,,,,,,,,,,,,,,,,,,,,,,,,,,,,,,,,,,,,,,,,,,,,,,,,,,,,34,001,1,22,475,375,2022_Oct_31_1105,Experiment,2021.1.4,360.2020012899052,
images\S6_M_S_01.png,images\S6_M_S_01_scrambled.png,6,sad,-10,male,3,,154,off,1,0.5,0.75,0.5,0.85,3,153,2,1,2,0,0,0,0,3,,,,,,0,140,140,140,,,,,,,,,,,,,,,,,,,,,,,,,,,,,,,,,,,,,,,,,,,,,,,,,,,,,,,,,829.7988531999999,830.3016102000001,830.3016102000001,831.0540354000004,831.0540354000004,831.5594268000004,831.5594268000004,832.4147211,832.4147211,None,num_4,0.6807362999998077,832.4147211,None,sad,0,Sad,833.1089281799999,None,None,833.1089281799999,None,,,,,,,,,,,,,,,,,,,,,,,,,,,,,,,,,,,,,,,,,,,,,,,,,,,,,34,001,1,22,475,375,2022_Oct_31_1105,Experiment,2021.1.4,360.2020012899052,
