image_face,image_scram,avatar,emo,emotion,sex,trigeeg,dac,trial_no,NMES,stimtime,baseline,iti,face,scr_face,resp_time,index,count_NMES,count_avatar,count_emotion,dac1,dac2,dac1_output,dac2_output,trigs_out,nmes,practice_trials.thisRepN,practice_trials.thisTrialN,practice_trials.thisN,practice_trials.thisIndex,real_trials.thisRepN,real_trials.thisTrialN,real_trials.thisN,real_trials.thisIndex,trials.thisRepN,trials.thisTrialN,trials.thisN,trials.thisIndex,position,Welcome.started,Welcome.stopped,Welcome_resp.keys,Welcome_resp.rt,text_2.started,text_2.stopped,form_2.index,form_2.itemText,form_2.type,form_2.response,form_2.rt,key_resp_4.keys,key_resp_4.rt,key_resp_4.started,key_resp_4.stopped,instructions.started,instructions.stopped,end_instr.keys,end_instr.rt,instructions_2.started,instructions_2.stopped,end_instr_2.keys,end_instr_2.rt,end_instr_2.started,end_instr_2.stopped,instruct_keypress.started,instruct_keypress.stopped,end_instruct_keypress.keys,end_instruct_keypress.rt,start_practice.started,start_practice.stopped,start_practice_resp.keys,start_practice_resp.rt,prac_baseline.started,prac_baseline.stopped,prac_iti.started,prac_iti.stopped,prac_stimulus.started,prac_stimulus.stopped,prac_scram_stim.started,prac_scram_stim.stopped,prac_stimulus_resp.started,prac_stimulus_resp.stopped,prac_resp.keys,prac_resp.rt,prac_resp.started,prac_resp.stopped,transition_to_real.started,transition_to_real.stopped,end_transition_to_real.keys,end_transition_to_real.rt,fixation_cross.started,fixation_cross.stopped,tr_iti.started,tr_iti.stopped,stimulus.started,stimulus.stopped,scram_stim.started,scram_stim.stopped,response_txt.started,response_txt.stopped,response.keys,response.rt,response.started,response.stopped,participant_Resp,grouping,corAnswer,break_msg.started,break_msg.stopped,end_break.keys,end_break.started,end_break.stopped,end_break.rt,text.started,text.stopped,key_resp_3.keys,key_resp_3.rt,key_resp_3.started,key_resp_3.stopped,fix_cross_comf.started,fix_cross_comf.stopped,stimulation_comf.started,stimulation_comf.stopped,rate_instr.started,rate_instr.stopped,comfort_rating.response,comfort_rating.rt,comfort_rating.started,comfort_rating.stopped,resp_form.keys,resp_form.rt,resp_form.started,resp_form.stopped,survey_instructions.started,survey_instructions.stopped,key_resp_2.keys,key_resp_2.rt,key_resp_2.started,key_resp_2.stopped,form.index,form.itemText,form.type,form.response,form.rt,key_resp.keys,key_resp.rt,key_resp.started,key_resp.stopped,text_3.started,text_3.stopped,rate_smile.response,rate_smile.rt,rate_smile.started,rate_smile.stopped,key_resp_5.keys,key_resp_5.rt,key_resp_5.started,key_resp_5.stopped,end_msg.started,end_msg.stopped,end_resp.keys,end_resp.rt,end_resp.started,end_resp.stopped,participant,session,gender,age,LEFT,RIGHT,date,expName,psychopyVersion,frameRate,
,,,,,,,,,,,,,,,,,,,,,,,,,,,,,,,,,,,,,,H-S,43.591069199999765,None,num_add,10.136011399999916,,,,,,,,,,,,,,,,,,,,,,,,,,,,,,,,,,,,,,,,,,,,,,,,,,,,,,,,,,,,,,,,,,,,,,,,,,,,,,,,,,,,,,,,,,,,,,,,,,,,,,,,,,,,,,,,,,,,,,,,,,35,001,0,25,450,320,2022_Oct_31_1346,Experiment,2021.1.4,359.90771966766965,
,,,,,,,,,,,,,,,,,,,,,,,,,,,,,,,,,,,,,,,,,,,53.736861999999746,55.76956869999958,1,"This scale consistes of a number of words that describe different feelings and emotion. Read each item and then list the number from the scale below each word. Indicate (by clicking) to what extend you feel this way RIGHT NOW, that is, AT THE PRESENT MOMENT.",description,,,,,,,,,,,,,,,,,,,,,,,,,,,,,,,,,,,,,,,,,,,,,,,,,,,,,,,,,,,,,,,,,,,,,,,,,,,,,,,,,,,,,,,,,,,,,,,,,,,,,,,,,,,,,,,,,,,,,35,001,0,25,450,320,2022_Oct_31_1346,Experiment,2021.1.4,359.90771966766965,
,,,,,,,,,,,,,,,,,,,,,,,,,,,,,,,,,,,,,,,,,,,,,2,Interested,rating,4.0,23.955960699999196,,,,,,,,,,,,,,,,,,,,,,,,,,,,,,,,,,,,,,,,,,,,,,,,,,,,,,,,,,,,,,,,,,,,,,,,,,,,,,,,,,,,,,,,,,,,,,,,,,,,,,,,,,,,,,,,,,,35,001,0,25,450,320,2022_Oct_31_1346,Experiment,2021.1.4,359.90771966766965,
,,,,,,,,,,,,,,,,,,,,,,,,,,,,,,,,,,,,,,,,,,,,,3,Distressed,rating,1.0,40.53209059999972,,,,,,,,,,,,,,,,,,,,,,,,,,,,,,,,,,,,,,,,,,,,,,,,,,,,,,,,,,,,,,,,,,,,,,,,,,,,,,,,,,,,,,,,,,,,,,,,,,,,,,,,,,,,,,,,,,,35,001,0,25,450,320,2022_Oct_31_1346,Experiment,2021.1.4,359.90771966766965,
,,,,,,,,,,,,,,,,,,,,,,,,,,,,,,,,,,,,,,,,,,,,,4,Excited,rating,4.0,42.99432720000004,,,,,,,,,,,,,,,,,,,,,,,,,,,,,,,,,,,,,,,,,,,,,,,,,,,,,,,,,,,,,,,,,,,,,,,,,,,,,,,,,,,,,,,,,,,,,,,,,,,,,,,,,,,,,,,,,,,35,001,0,25,450,320,2022_Oct_31_1346,Experiment,2021.1.4,359.90771966766965,
,,,,,,,,,,,,,,,,,,,,,,,,,,,,,,,,,,,,,,,,,,,,,5,Upset,rating,2.0,56.53925170000002,,,,,,,,,,,,,,,,,,,,,,,,,,,,,,,,,,,,,,,,,,,,,,,,,,,,,,,,,,,,,,,,,,,,,,,,,,,,,,,,,,,,,,,,,,,,,,,,,,,,,,,,,,,,,,,,,,,35,001,0,25,450,320,2022_Oct_31_1346,Experiment,2021.1.4,359.90771966766965,
,,,,,,,,,,,,,,,,,,,,,,,,,,,,,,,,,,,,,,,,,,,,,6,Strong,rating,3.0,58.40775079999912,,,,,,,,,,,,,,,,,,,,,,,,,,,,,,,,,,,,,,,,,,,,,,,,,,,,,,,,,,,,,,,,,,,,,,,,,,,,,,,,,,,,,,,,,,,,,,,,,,,,,,,,,,,,,,,,,,,35,001,0,25,450,320,2022_Oct_31_1346,Experiment,2021.1.4,359.90771966766965,
,,,,,,,,,,,,,,,,,,,,,,,,,,,,,,,,,,,,,,,,,,,,,7,Guilty,rating,1.0,17.57203699999991,,,,,,,,,,,,,,,,,,,,,,,,,,,,,,,,,,,,,,,,,,,,,,,,,,,,,,,,,,,,,,,,,,,,,,,,,,,,,,,,,,,,,,,,,,,,,,,,,,,,,,,,,,,,,,,,,,,35,001,0,25,450,320,2022_Oct_31_1346,Experiment,2021.1.4,359.90771966766965,
,,,,,,,,,,,,,,,,,,,,,,,,,,,,,,,,,,,,,,,,,,,,,8,Scared,rating,3.0,20.08320239999921,,,,,,,,,,,,,,,,,,,,,,,,,,,,,,,,,,,,,,,,,,,,,,,,,,,,,,,,,,,,,,,,,,,,,,,,,,,,,,,,,,,,,,,,,,,,,,,,,,,,,,,,,,,,,,,,,,,35,001,0,25,450,320,2022_Oct_31_1346,Experiment,2021.1.4,359.90771966766965,
,,,,,,,,,,,,,,,,,,,,,,,,,,,,,,,,,,,,,,,,,,,,,9,Hostile,rating,1.0,24.01223200000095,,,,,,,,,,,,,,,,,,,,,,,,,,,,,,,,,,,,,,,,,,,,,,,,,,,,,,,,,,,,,,,,,,,,,,,,,,,,,,,,,,,,,,,,,,,,,,,,,,,,,,,,,,,,,,,,,,,35,001,0,25,450,320,2022_Oct_31_1346,Experiment,2021.1.4,359.90771966766965,
,,,,,,,,,,,,,,,,,,,,,,,,,,,,,,,,,,,,,,,,,,,,,10,Enthusiastic,rating,4.0,27.5066715999983,,,,,,,,,,,,,,,,,,,,,,,,,,,,,,,,,,,,,,,,,,,,,,,,,,,,,,,,,,,,,,,,,,,,,,,,,,,,,,,,,,,,,,,,,,,,,,,,,,,,,,,,,,,,,,,,,,,35,001,0,25,450,320,2022_Oct_31_1346,Experiment,2021.1.4,359.90771966766965,
,,,,,,,,,,,,,,,,,,,,,,,,,,,,,,,,,,,,,,,,,,,,,11,Proud,rating,3.0,8.714497799999663,,,,,,,,,,,,,,,,,,,,,,,,,,,,,,,,,,,,,,,,,,,,,,,,,,,,,,,,,,,,,,,,,,,,,,,,,,,,,,,,,,,,,,,,,,,,,,,,,,,,,,,,,,,,,,,,,,,35,001,0,25,450,320,2022_Oct_31_1346,Experiment,2021.1.4,359.90771966766965,
,,,,,,,,,,,,,,,,,,,,,,,,,,,,,,,,,,,,,,,,,,,,,12,Irritable,rating,2.0,8.517764599999282,,,,,,,,,,,,,,,,,,,,,,,,,,,,,,,,,,,,,,,,,,,,,,,,,,,,,,,,,,,,,,,,,,,,,,,,,,,,,,,,,,,,,,,,,,,,,,,,,,,,,,,,,,,,,,,,,,,35,001,0,25,450,320,2022_Oct_31_1346,Experiment,2021.1.4,359.90771966766965,
,,,,,,,,,,,,,,,,,,,,,,,,,,,,,,,,,,,,,,,,,,,,,13,Alert,rating,4.0,7.617120599999907,,,,,,,,,,,,,,,,,,,,,,,,,,,,,,,,,,,,,,,,,,,,,,,,,,,,,,,,,,,,,,,,,,,,,,,,,,,,,,,,,,,,,,,,,,,,,,,,,,,,,,,,,,,,,,,,,,,35,001,0,25,450,320,2022_Oct_31_1346,Experiment,2021.1.4,359.90771966766965,
,,,,,,,,,,,,,,,,,,,,,,,,,,,,,,,,,,,,,,,,,,,,,14,Ashamed,rating,2.0,9.048108900000443,,,,,,,,,,,,,,,,,,,,,,,,,,,,,,,,,,,,,,,,,,,,,,,,,,,,,,,,,,,,,,,,,,,,,,,,,,,,,,,,,,,,,,,,,,,,,,,,,,,,,,,,,,,,,,,,,,,35,001,0,25,450,320,2022_Oct_31_1346,Experiment,2021.1.4,359.90771966766965,
,,,,,,,,,,,,,,,,,,,,,,,,,,,,,,,,,,,,,,,,,,,,,15,Inspired,rating,4.0,10.326714099999663,,,,,,,,,,,,,,,,,,,,,,,,,,,,,,,,,,,,,,,,,,,,,,,,,,,,,,,,,,,,,,,,,,,,,,,,,,,,,,,,,,,,,,,,,,,,,,,,,,,,,,,,,,,,,,,,,,,35,001,0,25,450,320,2022_Oct_31_1346,Experiment,2021.1.4,359.90771966766965,
,,,,,,,,,,,,,,,,,,,,,,,,,,,,,,,,,,,,,,,,,,,,,16,Nervous,rating,4.0,7.152270200000203,,,,,,,,,,,,,,,,,,,,,,,,,,,,,,,,,,,,,,,,,,,,,,,,,,,,,,,,,,,,,,,,,,,,,,,,,,,,,,,,,,,,,,,,,,,,,,,,,,,,,,,,,,,,,,,,,,,35,001,0,25,450,320,2022_Oct_31_1346,Experiment,2021.1.4,359.90771966766965,
,,,,,,,,,,,,,,,,,,,,,,,,,,,,,,,,,,,,,,,,,,,,,17,Determined,rating,4.0,8.668596999999863,,,,,,,,,,,,,,,,,,,,,,,,,,,,,,,,,,,,,,,,,,,,,,,,,,,,,,,,,,,,,,,,,,,,,,,,,,,,,,,,,,,,,,,,,,,,,,,,,,,,,,,,,,,,,,,,,,,35,001,0,25,450,320,2022_Oct_31_1346,Experiment,2021.1.4,359.90771966766965,
,,,,,,,,,,,,,,,,,,,,,,,,,,,,,,,,,,,,,,,,,,,,,18,Attentive,rating,4.0,10.103513599999133,,,,,,,,,,,,,,,,,,,,,,,,,,,,,,,,,,,,,,,,,,,,,,,,,,,,,,,,,,,,,,,,,,,,,,,,,,,,,,,,,,,,,,,,,,,,,,,,,,,,,,,,,,,,,,,,,,,35,001,0,25,450,320,2022_Oct_31_1346,Experiment,2021.1.4,359.90771966766965,
,,,,,,,,,,,,,,,,,,,,,,,,,,,,,,,,,,,,,,,,,,,,,19,Jittery,rating,3.0,8.210229700000127,,,,,,,,,,,,,,,,,,,,,,,,,,,,,,,,,,,,,,,,,,,,,,,,,,,,,,,,,,,,,,,,,,,,,,,,,,,,,,,,,,,,,,,,,,,,,,,,,,,,,,,,,,,,,,,,,,,35,001,0,25,450,320,2022_Oct_31_1346,Experiment,2021.1.4,359.90771966766965,
,,,,,,,,,,,,,,,,,,,,,,,,,,,,,,,,,,,,,,,,,,,,,20,Active,rating,4.0,9.026106000001164,,,,,,,,,,,,,,,,,,,,,,,,,,,,,,,,,,,,,,,,,,,,,,,,,,,,,,,,,,,,,,,,,,,,,,,,,,,,,,,,,,,,,,,,,,,,,,,,,,,,,,,,,,,,,,,,,,,35,001,0,25,450,320,2022_Oct_31_1346,Experiment,2021.1.4,359.90771966766965,
,,,,,,,,,,,,,,,,,,,,,,,,,,,,,,,,,,,,,,,,,,,,,21,Afraid,rating,1.0,10.696534499998961,,,,,,,,,,,,,,,,,,,,,,,,,,,,,,,,,,,,,,,,,,,,,,,,,,,,,,,,,,,,,,,,,,,,,,,,,,,,,,,,,,,,,,,,,,,,,,,,,,,,,,,,,,,,,,,,,,,35,001,0,25,450,320,2022_Oct_31_1346,Experiment,2021.1.4,359.90771966766965,
,,,,,,,,,,,,,,,,,,,,,,,,,,,,,,,,,,,,,,,,,,,,,22,Press the + button to submit your answers,description,,,,,,,,,,,,,,,,,,,,,,,,,,,,,,,,,,,,,,,,,,,,,,,,,,,,,,,,,,,,,,,,,,,,,,,,,,,,,,,,,,,,,,,,,,,,,,,,,,,,,,,,,,,,,,,,,,,,,35,001,0,25,450,320,2022_Oct_31_1346,Experiment,2021.1.4,359.90771966766965,
,,,,,,,,,,,,,,,,,,,,,,,,,,,,,,,,,,,,,,,,,,,,,,,,,,num_add,104.90029770000001,63.786536499999784,None,,,,,,,,,,,,,,,,,,,,,,,,,,,,,,,,,,,,,,,,,,,,,,,,,,,,,,,,,,,,,,,,,,,,,,,,,,,,,,,,,,,,,,,,,,,,,,,,,,,,,,,,,,,,,,,35,001,0,25,450,320,2022_Oct_31_1346,Experiment,2021.1.4,359.90771966766965,
,,,,,,,,,,,,,,,,,,,,,,,,,,,,,,,,,,,,,,,,,,,,,,,,,,,,,,168.70696359999965,None,num_add,19.196080099998653,,,,,,,,,,,,,,,,,,,,,,,,,,,,,,,,,,,,,,,,,,,,,,,,,,,,,,,,,,,,,,,,,,,,,,,,,,,,,,,,,,,,,,,,,,,,,,,,,,,,,,,,,,,35,001,0,25,450,320,2022_Oct_31_1346,Experiment,2021.1.4,359.90771966766965,
,,,,,,,,,,,,,,,,,,,,,,,,,,,,,,,,,,,,,,,,,,,,,,,,,,,,,,,,,,187.9121699999996,None,num_add,8.406875099999525,187.9121699999996,None,,,,,,,,,,,,,,,,,,,,,,,,,,,,,,,,,,,,,,,,,,,,,,,,,,,,,,,,,,,,,,,,,,,,,,,,,,,,,,,,,,,,,,,,,,,,,,,,,,,,,35,001,0,25,450,320,2022_Oct_31_1346,Experiment,2021.1.4,359.90771966766965,
,,,,,,,,,,,,,,,,,,,,,,,,,,,,,,,,,,,,,,,,,,,,,,,,,,,,,,,,,,,,,,,,196.34011250000003,None,num_add,25.858893499998885,,,,,,,,,,,,,,,,,,,,,,,,,,,,,,,,,,,,,,,,,,,,,,,,,,,,,,,,,,,,,,,,,,,,,,,,,,,,,,,,,,,,,,,,,,,,,,,,,35,001,0,25,450,320,2022_Oct_31_1346,Experiment,2021.1.4,359.90771966766965,
,,,,,,,,,,,,,,,,,,,,,,,,,,,,,,,,,,,,,,,,,,,,,,,,,,,,,,,,,,,,,,,,,,,,222.20993249999992,None,space,99.38083220000044,,,,,,,,,,,,,,,,,,,,,,,,,,,,,,,,,,,,,,,,,,,,,,,,,,,,,,,,,,,,,,,,,,,,,,,,,,,,,,,,,,,,,,,,,,,,,35,001,0,25,450,320,2022_Oct_31_1346,Experiment,2021.1.4,359.90771966766965,
images\S21_F_H_01.png,images\S21_F_H_01_scrambled.png,21,Happy,-0.1,F,0,0,practice,off,1,0.5,0.75,0.5,0.853,3,,,,,,,,,,,0,0,0,0,,,,,,,,,,,,,,,,,,,,,,,,,,,,,,,,,,,,,,,,,,,321.71806240000114,322.2235423000002,322.2235423000002,322.97608820000096,322.97608820000096,323.4759451000009,323.4759451000009,324.3312274,324.3312274,None,num_6,2.0200478000006115,324.3312274,None,,,,,,,,,,,,,,,,,,,,,,,,,,,,,,,,,,,,,,,,,,,,,,,,,,,,,,,,,,,,,,,,,,,,,,,,,,,,,,,35,001,0,25,450,320,2022_Oct_31_1346,Experiment,2021.1.4,359.90771966766965,
images\S21_F_H_02.png,images\S21_F_H_02_scrambled.png,21,Happy,-0.2,F,0,0,practice,off,1,0.5,0.75,0.5,0.91,3,,,,,,,,,,,0,1,1,1,,,,,,,,,,,,,,,,,,,,,,,,,,,,,,,,,,,,,,,,,,,326.4083451000006,326.91376130000026,326.91376130000026,327.66630819999955,327.66630819999955,328.1689107000002,328.1689107000002,329.0853795000003,329.0853795000003,None,num_6,0.20969640000112122,329.0853795000003,None,,,,,,,,,,,,,,,,,,,,,,,,,,,,,,,,,,,,,,,,,,,,,,,,,,,,,,,,,,,,,,,,,,,,,,,,,,,,,,,35,001,0,25,450,320,2022_Oct_31_1346,Experiment,2021.1.4,359.90771966766965,
images\S22_M_S_03.png,images\S22_M_S_03_scrambled.png,22,Sad,0.3,M,0,0,practice,on,2,0.5,0.75,0.5,0.794,3,,,,,,,,,,,0,2,2,7,,,,,,,,,,,,,,,,,,,,,,,,,,,,,,,,,,,,,,,,,,,329.3491683000011,329.8517339000009,329.8517339000009,330.6015229000004,330.6015229000004,331.10696050000115,331.10696050000115,331.90667829999984,331.90667829999984,None,None,,331.90667829999984,None,,,,,,,,,,,,,,,,,,,,,,,,,,,,,,,,,,,,,,,,,,,,,,,,,,,,,,,,,,,,,,,,,,,,,,,,,,,,,,,35,001,0,25,450,320,2022_Oct_31_1346,Experiment,2021.1.4,359.90771966766965,
images\S22_M_S_03.png,images\S22_M_S_03_scrambled.png,22,Sad,0.3,M,0,0,practice,on,2,0.5,0.75,0.5,0.87,3,,,,,,,,,,,0,3,3,4,,,,,,,,,,,,,,,,,,,,,,,,,,,,,,,,,,,,,,,,,,,334.95293219999985,335.4583502000005,335.4583502000005,336.2109037000009,336.2109037000009,336.71352490000027,336.71352490000027,337.5855530000008,337.5855530000008,334.95293219999985,num_6,2.9094895999987784,337.5855530000008,334.95293219999985,,,,,,,,,,,,,,,,,,,,,,,,,,,,,,,,,,,,,,,,,,,,,,,,,,,,,,,,,,,,,,,,,,,,,,,,,,,,,,,35,001,0,25,450,320,2022_Oct_31_1346,Experiment,2021.1.4,359.90771966766965,
images\S22_M_S_01.png,images\S22_M_S_01_scrambled.png,22,Sad,0.1,M,0,0,practice,on,2,0.5,0.75,0.5,0.867,3,,,,,,,,,,,0,4,4,5,,,,,,,,,,,,,,,,,,,,,,,,,,,,,,,,,,,,,,,,,,,340.570649700001,341.07610100000056,341.07610100000056,341.83144859999993,341.83144859999993,342.33680470000036,342.33680470000036,343.2087380000012,343.2087380000012,None,None,,343.2087380000012,None,,,,,,,,,,,,,,,,,,,,,,,,,,,,,,,,,,,,,,,,,,,,,,,,,,,,,,,,,,,,,,,,,,,,,,,,,,,,,,,35,001,0,25,450,320,2022_Oct_31_1346,Experiment,2021.1.4,359.90771966766965,
images\S22_M_S_02.png,images\S22_M_S_02_scrambled.png,22,Sad,0.2,M,0,0,practice,on,2,0.5,0.75,0.5,0.783,3,,,,,,,,,,,0,5,5,6,,,,,,,,,,,,,,,,,,,,,,,,,,,,,,,,,,,,,,,,,,,346.2577762000001,346.7632052000008,346.7632052000008,347.51584530000036,347.51584530000036,348.01556300000084,348.01556300000084,348.8015163,348.8015163,346.2577762000001,num_6,0.15761179999935848,348.8015163,346.2577762000001,,,,,,,,,,,,,,,,,,,,,,,,,,,,,,,,,,,,,,,,,,,,,,,,,,,,,,,,,,,,,,,,,,,,,,,,,,,,,,,35,001,0,25,450,320,2022_Oct_31_1346,Experiment,2021.1.4,359.90771966766965,
images\S22_M_H_02.png,images\S22_M_H_02_scrambled.png,22,Happy,-0.2,M,0,0,practice,off,1,0.5,0.75,0.5,0.883,3,,,,,,,,,,,0,6,6,2,,,,,,,,,,,,,,,,,,,,,,,,,,,,,,,,,,,,,,,,,,,349.01803459999974,349.52346390000093,349.52346390000093,350.27877290000106,350.27877290000106,350.78146519999973,350.78146519999973,351.66444129999945,351.66444129999945,None,num_6,1.7985943000003317,351.66444129999945,None,,,,,,,,,,,,,,,,,,,,,,,,,,,,,,,,,,,,,,,,,,,,,,,,,,,,,,,,,,,,,,,,,,,,,,,,,,,,,,,35,001,0,25,450,320,2022_Oct_31_1346,Experiment,2021.1.4,359.90771966766965,
images\S22_M_S_02.png,images\S22_M_S_02_scrambled.png,22,Sad,0.2,M,0,0,practice,off,1,0.5,0.75,0.5,0.751,3,,,,,,,,,,,0,7,7,3,,,,,,,,,,,,,,,,,,,,,,,,,,,,,,,,,,,,,,,,,,,353.51942640000016,354.0220776999995,354.0220776999995,354.7745957999996,354.7745957999996,355.27448300000106,355.27448300000106,356.0325793000011,356.0325793000011,None,num_4,1.3107042000010551,356.0325793000011,None,,,,,,,,,,,,,,,,,,,,,,,,,,,,,,,,,,,,,,,,,,,,,,,,,,,,,,,,,,,,,,,,,,,,,,,,,,,,,,,35,001,0,25,450,320,2022_Oct_31_1346,Experiment,2021.1.4,359.90771966766965,
,,,,,,,,,,,,,,,,,,,,,,,,,,,,,,,,,,,,,,,,,,,,,,,,,,,,,,,,,,,,,,,,,,,,,,,,,,,,,,,,,,,,,,357.3709962000012,None,space,94.0516176000001,,,,,,,,,,,,,,,,,,,,,,,,,,,,,,,,,,,,,,,,,,,,,,,,,,,,,,,,,,,,,,,,,,,,,,,,,,,35,001,0,25,450,320,2022_Oct_31_1346,Experiment,2021.1.4,359.90771966766965,
images\S4_M_S_02.png,images\S4_M_S_02_scrambled.png,4,sad,-20,male,2,,263,off,1,0.5,0.75,0.5,0.775,3,262,1,1,1,0,0,0,0,2,,,,,,0,0,0,0,,,,,,,,,,,,,,,,,,,,,,,,,,,,,,,,,,,,,,,,,,,,,,,,,,,,,,,,,451.91130390000035,452.4167161999994,452.4167161999994,453.16647209999974,453.16647209999974,453.66918110000006,453.66918110000006,454.4494663000005,454.4494663000005,None,num_6,0.20529829999941285,454.4494663000005,None,sad,1,Sad,454.67712530000097,None,None,454.67712530000097,None,,,,,,,,,,,,,,,,,,,,,,,,,,,,,,,,,,,,,,,,,,,,,,,,,,,,,35,001,0,25,450,320,2022_Oct_31_1346,Experiment,2021.1.4,359.90771966766965,
images\S6_M_S_02.png,images\S6_M_S_02_scrambled.png,6,sad,-20,male,2,,35,off,1,0.5,0.75,0.5,0.914,3,34,2,1,2,0,0,0,0,2,,,,,,0,1,1,1,,,,,,,,,,,,,,,,,,,,,,,,,,,,,,,,,,,,,,,,,,,,,,,,,,,,,,,,,454.72432930000105,455.2297832000004,455.2297832000004,455.9794961000007,455.9794961000007,456.48495379999986,456.48495379999986,457.4012995000012,457.4012995000012,None,num_4,0.6297728999998071,457.4012995000012,None,happy,1,Sad,458.039962900001,None,None,458.039962900001,None,,,,,,,,,,,,,,,,,,,,,,,,,,,,,,,,,,,,,,,,,,,,,,,,,,,,,35,001,0,25,450,320,2022_Oct_31_1346,Experiment,2021.1.4,359.90771966766965,
images\S2_M_S_01.png,images\S2_M_S_01_scrambled.png,2,sad,-10,male,3,,130,off,1,0.5,0.75,0.5,0.825,3,129,3,1,1,0,0,0,0,3,,,,,,0,2,2,2,,,,,,,,,,,,,,,,,,,,,,,,,,,,,,,,,,,,,,,,,,,,,,,,,,,,,,,,,458.08718210000006,458.58980990000055,458.58980990000055,459.33957480000026,459.33957480000026,459.84220240000104,459.84220240000104,460.66977360000055,460.66977360000055,None,num_4,0.3614498000006279,460.66977360000055,None,happy,1,Sad,461.0391612000005,None,None,461.0391612000005,None,,,,,,,,,,,,,,,,,,,,,,,,,,,,,,,,,,,,,,,,,,,,,,,,,,,,,35,001,0,25,450,320,2022_Oct_31_1346,Experiment,2021.1.4,359.90771966766965,
images\blank.jpg,images\blank.jpg,none,none,none,none,0,,631,on,2,0.5,0.75,0.5,0.946,0,630,1,1,1,3,3,48,192,240,,,,,,0,3,3,3,,,,,,,,,,,,,,,,,,,,,,,,,,,,,,,,,,,,,,,,,,,,,,,,,,,,,,,,,461.13670699999966,461.63898300000074,461.63898300000074,462.3914334000001,462.3914334000001,462.8941218,462.8941218,463.8438728000001,463.8438728000001,463.8438728000001,None,,463.8438728000001,None,miss,1,,466.8484409,None,None,466.8484409,None,,,,,,,,,,,,,,,,,,,,,,,,,,,,,,,,,,,,,,,,,,,,,,,,,,,,,35,001,0,25,450,320,2022_Oct_31_1346,Experiment,2021.1.4,359.90771966766965,
images\S6_M_H_02.png,images\S6_M_H_02_scrambled.png,6,happy,20,male,5,,452,on,2,0.5,0.75,0.5,0.923,3,451,2,1,1,2,2,32,128,165,,,,,,0,4,4,4,,,,,,,,,,,,,,,,,,,,,,,,,,,,,,,,,,,,,,,,,,,,,,,,,,,,,,,,,466.9680511000006,467.4704550999995,467.4704550999995,468.2201922000004,468.2201922000004,468.72562199999993,468.72562199999993,469.6503739,469.6503739,None,num_4,0.3967960999998468,469.6503739,466.9680511000006,happy,1,Happy,470.0641175000004,None,None,470.0641175000004,None,,,,,,,,,,,,,,,,,,,,,,,,,,,,,,,,,,,,,,,,,,,,,,,,,,,,,35,001,0,25,450,320,2022_Oct_31_1346,Experiment,2021.1.4,359.90771966766965,
images\S2_M_S_03.png,images\S2_M_S_03_scrambled.png,2,sad,-30,male,1,,492,off,1,0.5,0.75,0.5,0.886,3,491,1,1,1,0,0,0,0,1,,,,,,0,5,5,5,,,,,,,,,,,,,,,,,,,,,,,,,,,,,,,,,,,,,,,,,,,,,,,,,,,,,,,,,470.1306908000006,470.63612699999976,470.63612699999976,471.39143820000027,471.39143820000027,471.8968421999998,471.8968421999998,472.7854155999994,472.7854155999994,None,num_6,0.5736670999995113,472.7854155999994,None,sad,1,Sad,473.3796974000006,None,None,473.3796974000006,None,,,,,,,,,,,,,,,,,,,,,,,,,,,,,,,,,,,,,,,,,,,,,,,,,,,,,35,001,0,25,450,320,2022_Oct_31_1346,Experiment,2021.1.4,359.90771966766965,
images\S8_M_H_01.png,images\S8_M_H_01_scrambled.png,8,happy,10,male,4,,343,on,2,0.5,0.75,0.5,0.844,3,342,1,1,1,2,2,32,128,164,,,,,,0,6,6,6,,,,,,,,,,,,,,,,,,,,,,,,,,,,,,,,,,,,,,,,,,,,,,,,,,,,,,,,,473.4241320000001,473.92676890000075,473.92676890000075,474.68207749999965,474.68207749999965,475.184677700001,475.184677700001,476.0316767000004,476.0316767000004,None,num_4,0.39138500000080967,476.0316767000004,None,happy,1,Happy,476.43428960000125,None,None,476.43428960000125,None,,,,,,,,,,,,,,,,,,,,,,,,,,,,,,,,,,,,,,,,,,,,,,,,,,,,,35,001,0,25,450,320,2022_Oct_31_1346,Experiment,2021.1.4,359.90771966766965,
images\S4_M_S_02.png,images\S4_M_S_02_scrambled.png,4,sad,-20,male,2,,143,off,1,0.5,0.75,0.5,0.898,3,142,1,1,1,0,0,0,0,2,,,,,,0,7,7,7,,,,,,,,,,,,,,,,,,,,,,,,,,,,,,,,,,,,,,,,,,,,,,,,,,,,,,,,,476.4843369000009,476.9869331000009,476.9869331000009,477.73957640000117,477.73957640000117,478.2449811000006,478.2449811000006,479.1502383999996,479.1502383999996,None,num_6,0.4167127000000619,479.1502383999996,None,sad,1,Sad,479.5805409,None,None,479.5805409,None,,,,,,,,,,,,,,,,,,,,,,,,,,,,,,,,,,,,,,,,,,,,,,,,,,,,,35,001,0,25,450,320,2022_Oct_31_1346,Experiment,2021.1.4,359.90771966766965,
images\S3_F_H_03.png,images\S3_F_H_03_scrambled.png,3,happy,30,female,6,,75,on,2,0.5,0.75,0.5,0.865,3,74,1,1,1,2,2,32,128,166,,,,,,0,8,8,8,,,,,,,,,,,,,,,,,,,,,,,,,,,,,,,,,,,,,,,,,,,,,,,,,,,,,,,,,479.63063520000105,480.1359752999997,480.1359752999997,480.88850939999975,480.88850939999975,481.38838380000016,481.38838380000016,482.2575118999994,482.2575118999994,None,num_4,0.43809150000015507,482.2575118999994,None,happy,1,Happy,482.7185898000005,None,None,482.7185898000005,None,,,,,,,,,,,,,,,,,,,,,,,,,,,,,,,,,,,,,,,,,,,,,,,,,,,,,35,001,0,25,450,320,2022_Oct_31_1346,Experiment,2021.1.4,359.90771966766965,
images\S8_M_S_01.png,images\S8_M_S_01_scrambled.png,8,sad,-10,male,3,,526,off,1,0.5,0.75,0.5,0.844,3,525,1,1,1,0,0,0,0,3,,,,,,0,9,9,9,,,,,,,,,,,,,,,,,,,,,,,,,,,,,,,,,,,,,,,,,,,,,,,,,,,,,,,,,482.77400710000074,483.27955199999997,483.27955199999997,484.0291723999999,484.0291723999999,484.53180240000074,484.53180240000074,485.37880320000113,485.37880320000113,None,num_4,0.6920721999995294,485.37880320000113,None,happy,1,Sad,486.07578180000087,None,None,486.07578180000087,None,,,,,,,,,,,,,,,,,,,,,,,,,,,,,,,,,,,,,,,,,,,,,,,,,,,,,35,001,0,25,450,320,2022_Oct_31_1346,Experiment,2021.1.4,359.90771966766965,
images\S5_F_S_03.png,images\S5_F_S_03_scrambled.png,5,sad,-30,female,1,,30,off,1,0.5,0.75,0.5,0.82,3,29,2,1,1,0,0,0,0,1,,,,,,0,10,10,10,,,,,,,,,,,,,,,,,,,,,,,,,,,,,,,,,,,,,,,,,,,,,,,,,,,,,,,,,486.1229717999995,486.622838700001,486.622838700001,487.37538140000106,487.37538140000106,487.8808098999998,487.8808098999998,488.7055584999998,488.7055584999998,None,num_4,0.46950269999979355,488.7055584999998,None,happy,1,Sad,489.1831374000001,None,None,489.1831374000001,None,,,,,,,,,,,,,,,,,,,,,,,,,,,,,,,,,,,,,,,,,,,,,,,,,,,,,35,001,0,25,450,320,2022_Oct_31_1346,Experiment,2021.1.4,359.90771966766965,
images\S3_F_S_02.png,images\S3_F_S_02_scrambled.png,3,sad,-20,female,2,,377,off,1,0.5,0.75,0.5,0.916,3,376,3,1,1,0,0,0,0,2,,,,,,0,11,11,11,,,,,,,,,,,,,,,,,,,,,,,,,,,,,,,,,,,,,,,,,,,,,,,,,,,,,,,,,489.2303654999996,489.7301996999995,489.7301996999995,490.48558070000036,490.48558070000036,490.9909625,490.9909625,491.91016560000025,491.91016560000025,None,num_4,0.4407336000003852,491.91016560000025,None,happy,1,Sad,492.3627135999997,None,None,492.3627135999997,None,,,,,,,,,,,,,,,,,,,,,,,,,,,,,,,,,,,,,,,,,,,,,,,,,,,,,35,001,0,25,450,320,2022_Oct_31_1346,Experiment,2021.1.4,359.90771966766965,
images\S8_M_H_03.png,images\S8_M_H_03_scrambled.png,8,happy,30,male,6,,285,off,1,0.5,0.75,0.5,0.905,3,284,4,1,1,0,0,0,0,6,,,,,,0,12,12,12,,,,,,,,,,,,,,,,,,,,,,,,,,,,,,,,,,,,,,,,,,,,,,,,,,,,,,,,,492.42936310000005,492.9348986999994,492.9348986999994,493.6845494999998,493.6845494999998,494.190070300001,494.190070300001,495.1007905999995,495.1007905999995,None,num_4,0.43428710000080173,495.1007905999995,None,happy,1,Happy,495.5478548000006,None,None,495.5478548000006,None,,,,,,,,,,,,,,,,,,,,,,,,,,,,,,,,,,,,,,,,,,,,,,,,,,,,,35,001,0,25,450,320,2022_Oct_31_1346,Experiment,2021.1.4,359.90771966766965,
images\S3_F_H_02.png,images\S3_F_H_02_scrambled.png,3,happy,20,female,5,,134,off,1,0.5,0.75,0.5,0.947,3,133,5,1,1,0,0,0,0,5,,,,,,0,13,13,13,,,,,,,,,,,,,,,,,,,,,,,,,,,,,,,,,,,,,,,,,,,,,,,,,,,,,,,,,495.59783530000095,496.1005208000006,496.1005208000006,496.8558188999996,496.8558188999996,497.36122109999997,497.36122109999997,498.31092549999994,498.31092549999994,None,num_4,0.31206590000147116,498.31092549999994,None,happy,1,Happy,498.63581129999966,None,None,498.63581129999966,None,,,,,,,,,,,,,,,,,,,,,,,,,,,,,,,,,,,,,,,,,,,,,,,,,,,,,35,001,0,25,450,320,2022_Oct_31_1346,Experiment,2021.1.4,359.90771966766965,
images\S2_M_S_02.png,images\S2_M_S_02_scrambled.png,2,sad,-20,male,2,,71,on,2,0.5,0.75,0.5,0.757,3,70,1,1,1,2,2,32,128,162,,,,,,0,14,14,14,,,,,,,,,,,,,,,,,,,,,,,,,,,,,,,,,,,,,,,,,,,,,,,,,,,,,,,,,498.68299620000107,499.1856779000009,499.1856779000009,499.9409780999995,499.9409780999995,500.44637160000093,500.44637160000093,501.20442809999986,501.20442809999986,None,num_6,0.40242880000005243,501.20442809999986,None,sad,1,Sad,501.6209809000002,None,None,501.6209809000002,None,,,,,,,,,,,,,,,,,,,,,,,,,,,,,,,,,,,,,,,,,,,,,,,,,,,,,35,001,0,25,450,320,2022_Oct_31_1346,Experiment,2021.1.4,359.90771966766965,
images\S2_M_H_03.png,images\S2_M_H_03_scrambled.png,2,happy,30,male,6,,429,on,2,0.5,0.75,0.5,0.763,3,428,2,2,1,2,2,32,128,166,,,,,,0,15,15,15,,,,,,,,,,,,,,,,,,,,,,,,,,,,,,,,,,,,,,,,,,,,,,,,,,,,,,,,,501.6682202000011,502.170844100001,502.170844100001,502.9234116000007,502.9234116000007,503.4260121999996,503.4260121999996,504.1952687000012,504.1952687000012,None,num_4,0.5235205999997561,504.1952687000012,None,happy,1,Happy,504.7311400000008,None,None,504.7311400000008,None,,,,,,,,,,,,,,,,,,,,,,,,,,,,,,,,,,,,,,,,,,,,,,,,,,,,,35,001,0,25,450,320,2022_Oct_31_1346,Experiment,2021.1.4,359.90771966766965,
images\S10_M_S_03.png,images\S10_M_S_03_scrambled.png,10,sad,-30,male,1,,60,off,1,0.5,0.75,0.5,0.794,3,59,1,1,1,0,0,0,0,1,,,,,,0,16,16,16,,,,,,,,,,,,,,,,,,,,,,,,,,,,,,,,,,,,,,,,,,,,,,,,,,,,,,,,,504.7811156000007,505.28653529999974,505.28653529999974,506.04185809999944,506.04185809999944,506.5445877000002,506.5445877000002,507.3443645999996,507.3443645999996,None,num_6,0.2950817000000825,507.3443645999996,None,sad,1,Sad,507.6664248000008,None,None,507.6664248000008,None,,,,,,,,,,,,,,,,,,,,,,,,,,,,,,,,,,,,,,,,,,,,,,,,,,,,,35,001,0,25,450,320,2022_Oct_31_1346,Experiment,2021.1.4,359.90771966766965,
images\S2_M_H_03.png,images\S2_M_H_03_scrambled.png,2,happy,30,male,6,,249,off,1,0.5,0.75,0.5,0.794,3,248,2,1,1,0,0,0,0,6,,,,,,0,17,17,17,,,,,,,,,,,,,,,,,,,,,,,,,,,,,,,,,,,,,,,,,,,,,,,,,,,,,,,,,507.72459119999985,508.22729530000106,508.22729530000106,508.982625300001,508.982625300001,509.4824308999996,509.4824308999996,510.28220669999973,510.28220669999973,None,num_4,0.28493040000103065,510.28220669999973,None,happy,1,Happy,510.58492110000134,None,None,510.58492110000134,None,,,,,,,,,,,,,,,,,,,,,,,,,,,,,,,,,,,,,,,,,,,,,,,,,,,,,35,001,0,25,450,320,2022_Oct_31_1346,Experiment,2021.1.4,359.90771966766965,
images\S1_F_S_01.png,images\S1_F_S_01_scrambled.png,1,sad,-10,female,3,,4,off,1,0.5,0.75,0.5,0.853,3,3,3,1,1,0,0,0,0,3,,,,,,0,18,18,18,,,,,,,,,,,,,,,,,,,,,,,,,,,,,,,,,,,,,,,,,,,,,,,,,,,,,,,,,510.6487508000009,511.1485967000008,511.1485967000008,511.8983810000009,511.8983810000009,512.3982188000009,512.3982188000009,513.2563516000009,513.2563516000009,None,num_6,0.2947001000011369,513.2563516000009,None,sad,1,Sad,513.5672756000013,None,None,513.5672756000013,None,,,,,,,,,,,,,,,,,,,,,,,,,,,,,,,,,,,,,,,,,,,,,,,,,,,,,35,001,0,25,450,320,2022_Oct_31_1346,Experiment,2021.1.4,359.90771966766965,
images\S7_F_H_03.png,images\S7_F_H_03_scrambled.png,7,happy,30,female,6,,159,off,1,0.5,0.75,0.5,0.828,3,158,4,1,1,0,0,0,0,6,,,,,,0,19,19,19,,,,,,,,,,,,,,,,,,,,,,,,,,,,,,,,,,,,,,,,,,,,,,,,,,,,,,,,,513.6144927999994,514.1171615000003,514.1171615000003,514.8669614999999,514.8669614999999,515.3723392000011,515.3723392000011,516.2026188,516.2026188,None,num_4,0.22835510000004433,516.2026188,None,happy,1,Happy,516.4414319000003,None,None,516.4414319000003,None,,,,,,,,,,,,,,,,,,,,,,,,,,,,,,,,,,,,,,,,,,,,,,,,,,,,,35,001,0,25,450,320,2022_Oct_31_1346,Experiment,2021.1.4,359.90771966766965,
images\S1_F_H_03.png,images\S1_F_H_03_scrambled.png,1,happy,30,female,6,,63,on,2,0.5,0.75,0.5,0.78,3,62,1,1,2,2,2,32,128,166,,,,,,0,20,20,20,,,,,,,,,,,,,,,,,,,,,,,,,,,,,,,,,,,,,,,,,,,,,,,,,,,,,,,,,516.4886157000001,516.9884569999995,516.9884569999995,517.7410844000005,517.7410844000005,518.2464457999995,518.2464457999995,519.0295378999999,519.0295378999999,None,num_4,0.48982170000090264,519.0295378999999,None,happy,1,Happy,519.532109200001,None,None,519.532109200001,None,,,,,,,,,,,,,,,,,,,,,,,,,,,,,,,,,,,,,,,,,,,,,,,,,,,,,35,001,0,25,450,320,2022_Oct_31_1346,Experiment,2021.1.4,359.90771966766965,
images\S3_F_H_03.png,images\S3_F_H_03_scrambled.png,3,happy,30,female,6,,195,on,2,0.5,0.75,0.5,0.802,3,194,2,1,3,2,2,32,128,166,,,,,,0,21,21,21,,,,,,,,,,,,,,,,,,,,,,,,,,,,,,,,,,,,,,,,,,,,,,,,,,,,,,,,,519.5959889000005,520.0986083999996,520.0986083999996,520.8512568000006,520.8512568000006,521.3566030000002,521.3566030000002,522.1619014000007,522.1619014000007,None,num_4,0.3409353999995801,522.1619014000007,None,happy,1,Happy,522.5284269000009,None,None,522.5284269000009,None,,,,,,,,,,,,,,,,,,,,,,,,,,,,,,,,,,,,,,,,,,,,,,,,,,,,,35,001,0,25,450,320,2022_Oct_31_1346,Experiment,2021.1.4,359.90771966766965,
images\S6_M_S_02.png,images\S6_M_S_02_scrambled.png,6,sad,-20,male,2,,455,on,2,0.5,0.75,0.5,0.751,3,454,3,1,1,2,2,32,128,162,,,,,,0,22,22,22,,,,,,,,,,,,,,,,,,,,,,,,,,,,,,,,,,,,,,,,,,,,,,,,,,,,,,,,,522.5839624,523.0865875,523.0865875,523.8363662000011,523.8363662000011,524.3362078000009,524.3362078000009,525.0915602000005,525.0915602000005,None,num_6,0.395614499999283,525.0915602000005,None,sad,1,Sad,525.5025118000003,None,None,525.5025118000003,None,,,,,,,,,,,,,,,,,,,,,,,,,,,,,,,,,,,,,,,,,,,,,,,,,,,,,35,001,0,25,450,320,2022_Oct_31_1346,Experiment,2021.1.4,359.90771966766965,
images\S8_M_S_01.png,images\S8_M_S_01_scrambled.png,8,sad,-10,male,3,,106,on,2,0.5,0.75,0.5,0.857,3,105,4,1,1,2,2,32,128,163,,,,,,0,23,23,23,,,,,,,,,,,,,,,,,,,,,,,,,,,,,,,,,,,,,,,,,,,,,,,,,,,,,,,,,525.5525269000009,526.0578807000002,526.0578807000002,526.8132266000011,526.8132266000011,527.3159178999995,527.3159178999995,528.1766714999994,528.1766714999994,None,num_6,0.35809859999972105,528.1766714999994,None,sad,1,Sad,528.5543531000012,None,None,528.5543531000012,None,,,,,,,,,,,,,,,,,,,,,,,,,,,,,,,,,,,,,,,,,,,,,,,,,,,,,35,001,0,25,450,320,2022_Oct_31_1346,Experiment,2021.1.4,359.90771966766965,
images\S7_F_H_02.png,images\S7_F_H_02_scrambled.png,7,happy,20,female,5,,98,on,2,0.5,0.75,0.5,0.868,3,97,5,1,1,2,2,32,128,165,,,,,,0,24,24,24,,,,,,,,,,,,,,,,,,,,,,,,,,,,,,,,,,,,,,,,,,,,,,,,,,,,,,,,,528.6015387000007,529.1069863000012,529.1069863000012,529.8566881000006,529.8566881000006,530.3621553000012,530.3621553000012,531.2312792000012,531.2312792000012,None,num_4,0.2242223000012018,531.2312792000012,None,happy,1,Happy,531.4757536000013,None,None,531.4757536000013,None,,,,,,,,,,,,,,,,,,,,,,,,,,,,,,,,,,,,,,,,,,,,,,,,,,,,,35,001,0,25,450,320,2022_Oct_31_1346,Experiment,2021.1.4,359.90771966766965,
images\S7_F_S_03.png,images\S7_F_S_03_scrambled.png,7,sad,-30,female,1,,462,on,2,0.5,0.75,0.5,0.853,3,461,6,2,1,2,2,32,128,161,,,,,,0,25,25,25,,,,,,,,,,,,,,,,,,,,,,,,,,,,,,,,,,,,,,,,,,,,,,,,,,,,,,,,,531.5256461999998,532.0311264000011,532.0311264000011,532.7835802000009,532.7835802000009,533.2862896000006,533.2862896000006,534.1415537000012,534.1415537000012,None,num_6,0.24209410000003118,534.1415537000012,None,sad,1,Sad,534.4109412000008,None,None,534.4109412000008,None,,,,,,,,,,,,,,,,,,,,,,,,,,,,,,,,,,,,,,,,,,,,,,,,,,,,,35,001,0,25,450,320,2022_Oct_31_1346,Experiment,2021.1.4,359.90771966766965,
images\S7_F_H_01.png,images\S7_F_H_01_scrambled.png,7,happy,10,female,4,,517,off,1,0.5,0.75,0.5,0.846,3,516,1,3,1,0,0,0,0,4,,,,,,0,26,26,26,,,,,,,,,,,,,,,,,,,,,,,,,,,,,,,,,,,,,,,,,,,,,,,,,,,,,,,,,534.4636293000003,534.9663282000001,534.9663282000001,535.7188041999998,535.7188041999998,536.2214712000005,536.2214712000005,537.0739512,537.0739512,None,num_6,0.3329384000007849,537.0739512,None,sad,1,Happy,537.4127274000009,None,None,537.4127274000009,None,,,,,,,,,,,,,,,,,,,,,,,,,,,,,,,,,,,,,,,,,,,,,,,,,,,,,35,001,0,25,450,320,2022_Oct_31_1346,Experiment,2021.1.4,359.90771966766965,
images\S5_F_S_01.png,images\S5_F_S_01_scrambled.png,5,sad,-10,female,3,,88,on,2,0.5,0.75,0.5,0.859,3,87,1,1,1,2,2,32,128,163,,,,,,0,27,27,27,,,,,,,,,,,,,,,,,,,,,,,,,,,,,,,,,,,,,,,,,,,,,,,,,,,,,,,,,537.4654805000009,537.9710003,537.9710003,538.7234337000009,538.7234337000009,539.223288000001,539.223288000001,540.0869321999999,540.0869321999999,None,num_4,0.304180199998882,540.0869321999999,None,happy,1,Sad,540.3951471000007,None,None,540.3951471000007,None,,,,,,,,,,,,,,,,,,,,,,,,,,,,,,,,,,,,,,,,,,,,,,,,,,,,,35,001,0,25,450,320,2022_Oct_31_1346,Experiment,2021.1.4,359.90771966766965,
images\S5_F_H_03.png,images\S5_F_H_03_scrambled.png,5,happy,30,female,6,,27,off,1,0.5,0.75,0.5,0.825,3,26,1,2,1,0,0,0,0,6,,,,,,0,28,28,28,,,,,,,,,,,,,,,,,,,,,,,,,,,,,,,,,,,,,,,,,,,,,,,,,,,,,,,,,540.4451139000012,540.9477563,540.9477563,541.7004161999994,541.7004161999994,542.202920400001,542.202920400001,543.0305618000002,543.0305618000002,None,num_4,0.4085424000004423,543.0305618000002,None,happy,1,Happy,543.4664439,None,None,543.4664439,None,,,,,,,,,,,,,,,,,,,,,,,,,,,,,,,,,,,,,,,,,,,,,,,,,,,,,35,001,0,25,450,320,2022_Oct_31_1346,Experiment,2021.1.4,359.90771966766965,
images\S4_M_S_02.png,images\S4_M_S_02_scrambled.png,4,sad,-20,male,2,,563,on,2,0.5,0.75,0.5,0.873,3,562,1,1,1,2,2,32,128,162,,,,,,0,29,29,29,,,,,,,,,,,,,,,,,,,,,,,,,,,,,,,,,,,,,,,,,,,,,,,,,,,,,,,,,543.5302664999999,544.0329155,544.0329155,544.7854437000005,544.7854437000005,545.2909854999998,545.2909854999998,546.1683714999999,546.1683714999999,None,num_6,0.3345413000006374,546.1683714999999,None,sad,1,Sad,546.5126985000003,None,None,546.5126985000003,None,,,,,,,,,,,,,,,,,,,,,,,,,,,,,,,,,,,,,,,,,,,,,,,,,,,,,35,001,0,25,450,320,2022_Oct_31_1346,Experiment,2021.1.4,359.90771966766965,
images\S10_M_H_03.png,images\S10_M_H_03_scrambled.png,10,happy,30,male,6,,357,on,2,0.5,0.75,0.5,0.835,3,356,2,1,1,2,2,32,128,166,,,,,,0,30,30,30,,,,,,,,,,,,,,,,,,,,,,,,,,,,,,,,,,,,,,,,,,,,,,,,,,,,,,,,,546.5598676999998,547.0625500000006,547.0625500000006,547.8150975000008,547.8150975000008,548.3177145000009,548.3177145000009,549.156303400001,549.156303400001,None,num_4,0.35450700000001234,549.156303400001,None,happy,1,Happy,549.5395098000014,None,None,549.5395098000014,None,,,,,,,,,,,,,,,,,,,,,,,,,,,,,,,,,,,,,,,,,,,,,,,,,,,,,35,001,0,25,450,320,2022_Oct_31_1346,Experiment,2021.1.4,359.90771966766965,
images\S8_M_H_02.png,images\S8_M_H_02_scrambled.png,8,happy,20,male,5,,404,off,1,0.5,0.75,0.5,0.795,3,403,1,1,1,0,0,0,0,5,,,,,,0,31,31,31,,,,,,,,,,,,,,,,,,,,,,,,,,,,,,,,,,,,,,,,,,,,,,,,,,,,,,,,,549.5922938000003,550.0976855000008,550.0976855000008,550.8474595999996,550.8474595999996,551.350112600001,551.350112600001,552.1471027000007,552.1471027000007,None,num_4,0.3483439999999973,552.1471027000007,None,happy,1,Happy,552.5137096000008,None,None,552.5137096000008,None,,,,,,,,,,,,,,,,,,,,,,,,,,,,,,,,,,,,,,,,,,,,,,,,,,,,,35,001,0,25,450,320,2022_Oct_31_1346,Experiment,2021.1.4,359.90771966766965,
images\S4_M_H_01.png,images\S4_M_H_01_scrambled.png,4,happy,10,male,4,,259,off,1,0.5,0.75,0.5,0.888,3,258,2,1,1,0,0,0,0,4,,,,,,0,32,32,32,,,,,,,,,,,,,,,,,,,,,,,,,,,,,,,,,,,,,,,,,,,,,,,,,,,,,,,,,552.5608504000011,553.0634726000008,553.0634726000008,553.8187564,553.8187564,554.3214399000008,554.3214399000008,555.2156546999995,555.2156546999995,None,num_6,0.2473669000009977,555.2156546999995,None,sad,1,Happy,555.4710315,None,None,555.4710315,None,,,,,,,,,,,,,,,,,,,,,,,,,,,,,,,,,,,,,,,,,,,,,,,,,,,,,35,001,0,25,450,320,2022_Oct_31_1346,Experiment,2021.1.4,359.90771966766965,
images\S2_M_S_01.png,images\S2_M_S_01_scrambled.png,2,sad,-10,male,3,,190,on,2,0.5,0.75,0.5,0.799,3,189,1,1,1,2,2,32,128,163,,,,,,0,33,33,33,,,,,,,,,,,,,,,,,,,,,,,,,,,,,,,,,,,,,,,,,,,,,,,,,,,,,,,,,555.5237961000003,556.0264766,556.0264766,556.7817802000009,556.7817802000009,557.2815986999994,557.2815986999994,558.081332400001,558.081332400001,None,num_6,0.32562250000046333,558.081332400001,None,sad,1,Sad,558.4201866000012,None,None,558.4201866000012,None,,,,,,,,,,,,,,,,,,,,,,,,,,,,,,,,,,,,,,,,,,,,,,,,,,,,,35,001,0,25,450,320,2022_Oct_31_1346,Experiment,2021.1.4,359.90771966766965,
images\S1_F_S_03.png,images\S1_F_S_03_scrambled.png,1,sad,-30,female,1,,306,on,2,0.5,0.75,0.5,0.785,3,305,2,1,1,2,2,32,128,161,,,,,,0,34,34,34,,,,,,,,,,,,,,,,,,,,,,,,,,,,,,,,,,,,,,,,,,,,,,,,,,,,,,,,,558.470115600001,558.9727325000003,558.9727325000003,559.7280842,559.7280842,560.2306929000006,560.2306929000006,561.0221438000008,561.0221438000008,None,num_6,0.2807403000006161,561.0221438000008,None,sad,1,Sad,561.3136616999997,None,None,561.3136616999997,None,,,,,,,,,,,,,,,,,,,,,,,,,,,,,,,,,,,,,,,,,,,,,,,,,,,,,35,001,0,25,450,320,2022_Oct_31_1346,Experiment,2021.1.4,359.90771966766965,
images\S10_M_H_03.png,images\S10_M_H_03_scrambled.png,10,happy,30,male,6,,537,off,1,0.5,0.75,0.5,0.852,3,536,1,1,1,0,0,0,0,6,,,,,,0,35,35,35,,,,,,,,,,,,,,,,,,,,,,,,,,,,,,,,,,,,,,,,,,,,,,,,,,,,,,,,,561.3636758000011,561.863521700001,561.863521700001,562.6188440000005,562.6188440000005,563.1215207999994,563.1215207999994,563.9767921000002,563.9767921000002,None,num_4,0.29406050000034156,563.9767921000002,None,happy,1,Happy,564.2849727000008,None,None,564.2849727000008,None,,,,,,,,,,,,,,,,,,,,,,,,,,,,,,,,,,,,,,,,,,,,,,,,,,,,,35,001,0,25,450,320,2022_Oct_31_1346,Experiment,2021.1.4,359.90771966766965,
images\S3_F_S_03.png,images\S3_F_S_03_scrambled.png,3,sad,-30,female,1,,318,on,2,0.5,0.75,0.5,0.911,3,317,1,1,1,2,2,32,128,161,,,,,,0,36,36,36,,,,,,,,,,,,,,,,,,,,,,,,,,,,,,,,,,,,,,,,,,,,,,,,,,,,,,,,,564.3321995000006,564.8348196000006,564.8348196000006,565.5902684000012,565.5902684000012,566.0927866000002,566.0927866000002,567.0064223000008,567.0064223000008,None,num_6,0.3523168000010628,567.0064223000008,None,sad,1,Sad,567.3701470000011,None,None,567.3701470000011,None,,,,,,,,,,,,,,,,,,,,,,,,,,,,,,,,,,,,,,,,,,,,,,,,,,,,,35,001,0,25,450,320,2022_Oct_31_1346,Experiment,2021.1.4,359.90771966766965,
images\S10_M_S_03.png,images\S10_M_S_03_scrambled.png,10,sad,-30,male,1,,240,on,2,0.5,0.75,0.5,0.772,3,239,2,1,2,2,2,32,128,161,,,,,,0,37,37,37,,,,,,,,,,,,,,,,,,,,,,,,,,,,,,,,,,,,,,,,,,,,,,,,,,,,,,,,,567.4230074000006,567.9256578000004,567.9256578000004,568.6753276,568.6753276,569.1751746999998,569.1751746999998,569.9527097000009,569.9527097000009,None,num_4,0.534315400000196,569.9527097000009,None,happy,1,Sad,570.4941925999999,None,None,570.4941925999999,None,,,,,,,,,,,,,,,,,,,,,,,,,,,,,,,,,,,,,,,,,,,,,,,,,,,,,35,001,0,25,450,320,2022_Oct_31_1346,Experiment,2021.1.4,359.90771966766965,
images\S9_F_S_02.png,images\S9_F_S_02_scrambled.png,9,sad,-20,female,2,,173,off,1,0.5,0.75,0.5,0.948,3,172,1,1,1,0,0,0,0,2,,,,,,0,38,38,38,,,,,,,,,,,,,,,,,,,,,,,,,,,,,,,,,,,,,,,,,,,,,,,,,,,,,,,,,570.5441683999998,571.044026900001,571.044026900001,571.7965456000002,571.7965456000002,572.3019975000007,572.3019975000007,573.2572457999995,573.2572457999995,None,num_6,0.19768959999964864,573.2572457999995,None,sad,1,Sad,573.471073000001,None,None,573.471073000001,None,,,,,,,,,,,,,,,,,,,,,,,,,,,,,,,,,,,,,,,,,,,,,,,,,,,,,35,001,0,25,450,320,2022_Oct_31_1346,Experiment,2021.1.4,359.90771966766965,
images\S4_M_S_02.png,images\S4_M_S_02_scrambled.png,4,sad,-20,male,2,,23,off,1,0.5,0.75,0.5,0.753,3,22,2,1,2,0,0,0,0,2,,,,,,0,39,39,39,,,,,,,,,,,,,,,,,,,,,,,,,,,,,,,,,,,,,,,,,,,,,,,,,,,,,,,,,573.5210258000006,574.0236600999997,574.0236600999997,574.7734297999996,574.7734297999996,575.2761136999998,575.2761136999998,576.0314072000001,576.0314072000001,None,num_6,0.2634116000008362,576.0314072000001,None,sad,1,Sad,576.3062679999999,None,None,576.3062679999999,None,,,,,,,,,,,,,,,,,,,,,,,,,,,,,,,,,,,,,,,,,,,,,,,,,,,,,35,001,0,25,450,320,2022_Oct_31_1346,Experiment,2021.1.4,359.90771966766965,
images\blank.jpg,images\blank.jpg,none,none,none,none,0,,636,on,2,0.5,0.75,0.5,0.804,0,635,1,1,1,3,3,48,192,240,,,,,,0,40,40,40,,,,,,,,,,,,,,,,,,,,,,,,,,,,,,,,,,,,,,,,,,,,,,,,,,,,,,,,,576.3898105000007,576.8922500999997,576.8922500999997,577.6419805999994,577.6419805999994,578.1445980999997,578.1445980999997,578.9555952999999,578.9555952999999,578.9555952999999,None,,578.9555952999999,None,miss,1,,581.9574247000007,None,None,581.9574247000007,None,,,,,,,,,,,,,,,,,,,,,,,,,,,,,,,,,,,,,,,,,,,,,,,,,,,,,35,001,0,25,450,320,2022_Oct_31_1346,Experiment,2021.1.4,359.90771966766965,
images\S3_F_H_02.png,images\S3_F_H_02_scrambled.png,3,happy,20,female,5,,254,off,1,0.5,0.75,0.5,0.772,3,253,1,1,1,0,0,0,0,5,,,,,,0,41,41,41,,,,,,,,,,,,,,,,,,,,,,,,,,,,,,,,,,,,,,,,,,,,,,,,,,,,,,,,,582.0824677,582.5821159999996,582.5821159999996,583.3347978000002,583.3347978000002,583.8372897000008,583.8372897000008,584.6120912999995,584.6120912999995,None,num_4,0.16260250000050291,584.6120912999995,582.0824677,happy,1,Happy,584.7842194000001,None,None,584.7842194000001,None,,,,,,,,,,,,,,,,,,,,,,,,,,,,,,,,,,,,,,,,,,,,,,,,,,,,,35,001,0,25,450,320,2022_Oct_31_1346,Experiment,2021.1.4,359.90771966766965,
images\S3_F_S_03.png,images\S3_F_S_03_scrambled.png,3,sad,-30,female,1,,258,off,1,0.5,0.75,0.5,0.793,3,257,2,2,1,0,0,0,0,1,,,,,,0,42,42,42,,,,,,,,,,,,,,,,,,,,,,,,,,,,,,,,,,,,,,,,,,,,,,,,,,,,,,,,,584.8341903,585.3368871000002,585.3368871000002,586.0921532000011,586.0921532000011,586.5975780000008,586.5975780000008,587.3973371000011,587.3973371000011,None,num_6,0.257751900000585,587.3973371000011,None,sad,1,Sad,587.6806696000001,None,None,587.6806696000001,None,,,,,,,,,,,,,,,,,,,,,,,,,,,,,,,,,,,,,,,,,,,,,,,,,,,,,35,001,0,25,450,320,2022_Oct_31_1346,Experiment,2021.1.4,359.90771966766965,
images\S6_M_H_02.png,images\S6_M_H_02_scrambled.png,6,happy,20,male,5,,332,on,2,0.5,0.75,0.5,0.776,3,331,1,1,1,2,2,32,128,165,,,,,,0,43,43,43,,,,,,,,,,,,,,,,,,,,,,,,,,,,,,,,,,,,,,,,,,,,,,,,,,,,,,,,,587.7305354,588.236018900001,588.236018900001,588.9884922000001,588.9884922000001,589.4912003000009,589.4912003000009,590.2714377000011,590.2714377000011,None,num_6,0.24741850000100385,590.2714377000011,None,sad,1,Happy,590.5241114999997,None,None,590.5241114999997,None,,,,,,,,,,,,,,,,,,,,,,,,,,,,,,,,,,,,,,,,,,,,,,,,,,,,,35,001,0,25,450,320,2022_Oct_31_1346,Experiment,2021.1.4,359.90771966766965,
images\S8_M_S_01.png,images\S8_M_S_01_scrambled.png,8,sad,-10,male,3,,586,on,2,0.5,0.75,0.5,0.788,3,585,2,1,1,2,2,32,128,163,,,,,,0,44,44,44,,,,,,,,,,,,,,,,,,,,,,,,,,,,,,,,,,,,,,,,,,,,,,,,,,,,,,,,,590.5740993,591.0767209999995,591.0767209999995,591.8292586999996,591.8292586999996,592.3319300000003,592.3319300000003,593.1233229000009,593.1233229000009,None,num_4,0.3393941000013001,593.1233229000009,None,happy,1,Sad,593.4676640000005,None,None,593.4676640000005,None,,,,,,,,,,,,,,,,,,,,,,,,,,,,,,,,,,,,,,,,,,,,,,,,,,,,,35,001,0,25,450,320,2022_Oct_31_1346,Experiment,2021.1.4,359.90771966766965,
images\S6_M_H_01.png,images\S6_M_H_01_scrambled.png,6,happy,10,male,4,,331,on,2,0.5,0.75,0.5,0.791,3,330,3,1,1,2,2,32,128,164,,,,,,0,45,45,45,,,,,,,,,,,,,,,,,,,,,,,,,,,,,,,,,,,,,,,,,,,,,,,,,,,,,,,,,593.517632000001,594.0230566000009,594.0230566000009,594.7757213000004,594.7757213000004,595.2810674000011,595.2810674000011,596.0753044000012,596.0753044000012,None,num_4,0.22740599999997357,596.0753044000012,None,happy,1,Happy,596.3139709000003,None,None,596.3139709000003,None,,,,,,,,,,,,,,,,,,,,,,,,,,,,,,,,,,,,,,,,,,,,,,,,,,,,,35,001,0,25,450,320,2022_Oct_31_1346,Experiment,2021.1.4,359.90771966766965,
images\S1_F_S_02.png,images\S1_F_S_02_scrambled.png,1,sad,-20,female,2,,5,off,1,0.5,0.75,0.5,0.779,3,4,1,1,1,0,0,0,0,2,,,,,,0,46,46,46,,,,,,,,,,,,,,,,,,,,,,,,,,,,,,,,,,,,,,,,,,,,,,,,,,,,,,,,,596.3612052000008,596.8666472999994,596.8666472999994,597.6191591000006,597.6191591000006,598.1217696000003,598.1217696000003,598.9048650999994,598.9048650999994,None,num_6,0.26210360000004584,598.9048650999994,None,sad,1,Sad,599.1826858000007,None,None,599.1826858000007,None,,,,,,,,,,,,,,,,,,,,,,,,,,,,,,,,,,,,,,,,,,,,,,,,,,,,,35,001,0,25,450,320,2022_Oct_31_1346,Experiment,2021.1.4,359.90771966766965,
images\S5_F_S_02.png,images\S5_F_S_02_scrambled.png,5,sad,-20,female,2,,269,off,1,0.5,0.75,0.5,0.768,3,268,2,1,2,0,0,0,0,2,,,,,,0,47,47,47,,,,,,,,,,,,,,,,,,,,,,,,,,,,,,,,,,,,,,,,,,,,,,,,,,,,,,,,,599.2353122000004,599.7408570000007,599.7408570000007,600.4961423000004,600.4961423000004,600.9986767999999,600.9986767999999,601.7734364999997,601.7734364999997,None,num_4,0.49754829999983485,601.7734364999997,None,happy,1,Sad,602.2816418999998,None,None,602.2816418999998,None,,,,,,,,,,,,,,,,,,,,,,,,,,,,,,,,,,,,,,,,,,,,,,,,,,,,,35,001,0,25,450,320,2022_Oct_31_1346,Experiment,2021.1.4,359.90771966766965,
images\S2_M_H_03.png,images\S2_M_H_03_scrambled.png,2,happy,30,male,6,,69,on,2,0.5,0.75,0.5,0.846,3,68,1,1,1,2,2,32,128,166,,,,,,0,48,48,48,,,,,,,,,,,,,,,,,,,,,,,,,,,,,,,,,,,,,,,,,,,,,,,,,,,,,,,,,602.3343579000011,602.8370297000001,602.8370297000001,603.5894998000003,603.5894998000003,604.0894229000005,604.0894229000005,604.9419362000008,604.9419362000008,None,num_4,0.19282010000097216,604.9419362000008,None,happy,1,Happy,605.1501749999998,None,None,605.1501749999998,None,,,,,,,,,,,,,,,,,,,,,,,,,,,,,,,,,,,,,,,,,,,,,,,,,,,,,35,001,0,25,450,320,2022_Oct_31_1346,Experiment,2021.1.4,359.90771966766965,
images\S7_F_H_03.png,images\S7_F_H_03_scrambled.png,7,happy,30,female,6,,99,on,2,0.5,0.75,0.5,0.813,3,98,2,1,2,2,2,32,128,166,,,,,,0,49,49,49,,,,,,,,,,,,,,,,,,,,,,,,,,,,,,,,,,,,,,,,,,,,,,,,,,,,,,,,,605.1973789000003,605.7027959999996,605.7027959999996,606.4554532000002,606.4554532000002,606.9579558000005,606.9579558000005,607.7743604999996,607.7743604999996,None,num_4,0.2884391000006872,607.7743604999996,None,happy,1,Happy,608.0742294000007,None,None,608.0742294000007,None,,,,,,,,,,,,,,,,,,,,,,,,,,,,,,,,,,,,,,,,,,,,,,,,,,,,,35,001,0,25,450,320,2022_Oct_31_1346,Experiment,2021.1.4,359.90771966766965,
images\S1_F_H_01.png,images\S1_F_H_01_scrambled.png,1,happy,10,female,4,,61,on,2,0.5,0.75,0.5,0.779,3,60,3,1,1,2,2,32,128,164,,,,,,0,50,50,50,,,,,,,,,,,,,,,,,,,,,,,,,,,,,,,,,,,,,,,,,,,,,,,,,,,,,,,,,608.1214658999997,608.6269033000008,608.6269033000008,609.382216,609.382216,609.8820331999996,609.8820331999996,610.6652537000009,610.6652537000009,None,num_6,0.3975295999989612,610.6652537000009,None,sad,1,Happy,611.0677973999998,None,None,611.0677973999998,None,,,,,,,,,,,,,,,,,,,,,,,,,,,,,,,,,,,,,,,,,,,,,,,,,,,,,35,001,0,25,450,320,2022_Oct_31_1346,Experiment,2021.1.4,359.90771966766965,
images\S5_F_H_03.png,images\S5_F_H_03_scrambled.png,5,happy,30,female,6,,327,on,2,0.5,0.75,0.5,0.789,3,326,4,1,1,2,2,32,128,166,,,,,,0,51,51,51,,,,,,,,,,,,,,,,,,,,,,,,,,,,,,,,,,,,,,,,,,,,,,,,,,,,,,,,,611.117760000001,611.6205121000003,611.6205121000003,612.3701566,612.3701566,612.8757000999994,612.8757000999994,613.6669832999996,613.6669832999996,None,num_4,0.2358354000007239,613.6669832999996,None,happy,1,Happy,613.9169042000003,None,None,613.9169042000003,None,,,,,,,,,,,,,,,,,,,,,,,,,,,,,,,,,,,,,,,,,,,,,,,,,,,,,35,001,0,25,450,320,2022_Oct_31_1346,Experiment,2021.1.4,359.90771966766965,
images\blank.jpg,images\blank.jpg,none,none,none,none,0,,637,on,2,0.5,0.75,0.5,0.851,0,636,5,1,1,3,3,48,192,240,,,,,,0,52,52,52,,,,,,,,,,,,,,,,,,,,,,,,,,,,,,,,,,,,,,,,,,,,,,,,,,,,,,,,,614.0004408999994,614.5000837000007,614.5000837000007,615.2555118,615.2555118,615.7609045999998,615.7609045999998,616.6133327000007,616.6133327000007,616.6133327000007,None,,616.6133327000007,None,miss,1,,619.6123837999997,None,None,619.6123837999997,None,,,,,,,,,,,,,,,,,,,,,,,,,,,,,,,,,,,,,,,,,,,,,,,,,,,,,35,001,0,25,450,320,2022_Oct_31_1346,Experiment,2021.1.4,359.90771966766965,
images\S10_M_H_02.png,images\S10_M_H_02_scrambled.png,10,happy,20,male,5,,296,off,1,0.5,0.75,0.5,0.758,3,295,1,1,1,0,0,0,0,5,,,,,,0,53,53,53,,,,,,,,,,,,,,,,,,,,,,,,,,,,,,,,,,,,,,,,,,,,,,,,,,,,,,,,,619.7264649999997,620.2316623000006,620.2316623000006,620.9841740000011,620.9841740000011,621.4868318000008,621.4868318000008,622.2476927000007,622.2476927000007,None,num_4,0.27908820000084233,622.2476927000007,619.7264649999997,happy,1,Happy,622.5448019000005,None,None,622.5448019000005,None,,,,,,,,,,,,,,,,,,,,,,,,,,,,,,,,,,,,,,,,,,,,,,,,,,,,,35,001,0,25,450,320,2022_Oct_31_1346,Experiment,2021.1.4,359.90771966766965,
images\S1_F_H_03.png,images\S1_F_H_03_scrambled.png,1,happy,30,female,6,,123,off,1,0.5,0.75,0.5,0.78,3,122,2,1,1,0,0,0,0,6,,,,,,0,54,54,54,,,,,,,,,,,,,,,,,,,,,,,,,,,,,,,,,,,,,,,,,,,,,,,,,,,,,,,,,622.5892251999994,623.0918973999997,623.0918973999997,623.8471755999999,623.8471755999999,624.3470228000006,624.3470228000006,625.1273218000006,625.1273218000006,None,num_4,0.2636297999997623,625.1273218000006,None,happy,1,Happy,625.4106179,None,None,625.4106179,None,,,,,,,,,,,,,,,,,,,,,,,,,,,,,,,,,,,,,,,,,,,,,,,,,,,,,35,001,0,25,450,320,2022_Oct_31_1346,Experiment,2021.1.4,359.90771966766965,
images\S7_F_H_02.png,images\S7_F_H_02_scrambled.png,7,happy,20,female,5,,278,off,1,0.5,0.75,0.5,0.941,3,277,3,1,1,0,0,0,0,5,,,,,,0,55,55,55,,,,,,,,,,,,,,,,,,,,,,,,,,,,,,,,,,,,,,,,,,,,,,,,,,,,,,,,,625.4744638000011,625.9770676000007,625.9770676000007,626.7324220999999,626.7324220999999,627.2378110000009,627.2378110000009,628.1819863000001,628.1819863000001,None,num_4,0.31341599999905156,628.1819863000001,None,happy,1,Happy,628.5125219000005,None,None,628.5125219000005,None,,,,,,,,,,,,,,,,,,,,,,,,,,,,,,,,,,,,,,,,,,,,,,,,,,,,,35,001,0,25,450,320,2022_Oct_31_1346,Experiment,2021.1.4,359.90771966766965,
images\S2_M_H_02.png,images\S2_M_H_02_scrambled.png,2,happy,20,male,5,,248,off,1,0.5,0.75,0.5,0.779,3,247,4,1,2,0,0,0,0,5,,,,,,0,56,56,56,,,,,,,,,,,,,,,,,,,,,,,,,,,,,,,,,,,,,,,,,,,,,,,,,,,,,,,,,628.5651634999995,629.0678065000011,629.0678065000011,629.8203298999997,629.8203298999997,630.3258652000004,630.3258652000004,631.108824500001,631.108824500001,None,num_4,0.35382279999976163,631.108824500001,None,happy,1,Happy,631.4753346000012,None,None,631.4753346000012,None,,,,,,,,,,,,,,,,,,,,,,,,,,,,,,,,,,,,,,,,,,,,,,,,,,,,,35,001,0,25,450,320,2022_Oct_31_1346,Experiment,2021.1.4,359.90771966766965,
images\S4_M_H_01.png,images\S4_M_H_01_scrambled.png,4,happy,10,male,4,,499,off,1,0.5,0.75,0.5,0.8,3,498,5,1,1,0,0,0,0,4,,,,,,0,57,57,57,,,,,,,,,,,,,,,,,,,,,,,,,,,,,,,,,,,,,,,,,,,,,,,,,,,,,,,,,631.5448054999997,632.0474505000002,632.0474505000002,632.7971978999994,632.7971978999994,633.2998413999994,633.2998413999994,634.1023654,634.1023654,None,num_6,0.28072249999968335,634.1023654,None,sad,1,Happy,634.3911730000001,None,None,634.3911730000001,None,,,,,,,,,,,,,,,,,,,,,,,,,,,,,,,,,,,,,,,,,,,,,,,,,,,,,35,001,0,25,450,320,2022_Oct_31_1346,Experiment,2021.1.4,359.90771966766965,
images\S1_F_S_01.png,images\S1_F_S_01_scrambled.png,1,sad,-10,female,3,,184,on,2,0.5,0.75,0.5,0.826,3,183,1,1,1,2,2,32,128,163,,,,,,0,58,58,58,,,,,,,,,,,,,,,,,,,,,,,,,,,,,,,,,,,,,,,,,,,,,,,,,,,,,,,,,634.4550431000007,634.9576646000005,634.9576646000005,635.7103066,635.7103066,636.2128221000003,636.2128221000003,637.0431224000004,637.0431224000004,None,num_6,0.30791970000063884,637.0431224000004,None,sad,1,Sad,637.3652189000001,None,None,637.3652189000001,None,,,,,,,,,,,,,,,,,,,,,,,,,,,,,,,,,,,,,,,,,,,,,,,,,,,,,35,001,0,25,450,320,2022_Oct_31_1346,Experiment,2021.1.4,359.90771966766965,
images\S4_M_H_01.png,images\S4_M_H_01_scrambled.png,4,happy,10,male,4,,199,on,2,0.5,0.75,0.5,0.893,3,198,2,1,1,2,2,32,128,164,,,,,,0,59,59,59,,,,,,,,,,,,,,,,,,,,,,,,,,,,,,,,,,,,,,,,,,,,,,,,,,,,,,,,,637.412437500001,637.9178530999998,637.9178530999998,638.6705216999999,638.6705216999999,639.1759136000001,639.1759136000001,640.0727234999995,640.0727234999995,None,num_6,0.30227709999962826,640.0727234999995,None,sad,1,Happy,640.389405,None,None,640.389405,None,,,,,,,,,,,,,,,,,,,,,,,,,,,,,,,,,,,,,,,,,,,,,,,,,,,,,35,001,0,25,450,320,2022_Oct_31_1346,Experiment,2021.1.4,359.90771966766965,
images\S8_M_S_03.png,images\S8_M_S_03_scrambled.png,8,sad,-30,male,1,,108,on,2,0.5,0.75,0.5,0.945,3,107,3,1,1,2,2,32,128,161,,,,,,0,60,60,60,,,,,,,,,,,,,,,,,,,,,,,,,,,,,,,,,,,,,,,,,,,,,,,,,,,,,,,,,640.4448346999998,640.9474946999999,640.9474946999999,641.6972223000012,641.6972223000012,642.1998898000002,642.1998898000002,643.1468165000006,643.1468165000006,None,num_6,0.23662639999929524,643.1468165000006,None,sad,1,Sad,643.4079293000011,None,None,643.4079293000011,None,,,,,,,,,,,,,,,,,,,,,,,,,,,,,,,,,,,,,,,,,,,,,,,,,,,,,35,001,0,25,450,320,2022_Oct_31_1346,Experiment,2021.1.4,359.90771966766965,
images\S8_M_H_02.png,images\S8_M_H_02_scrambled.png,8,happy,20,male,5,,464,on,2,0.5,0.75,0.5,0.805,3,463,4,2,1,2,2,32,128,165,,,,,,0,61,61,61,,,,,,,,,,,,,,,,,,,,,,,,,,,,,,,,,,,,,,,,,,,,,,,,,,,,,,,,,643.4605666000007,643.9661113000002,643.9661113000002,644.7157571999996,644.7157571999996,645.218367200001,645.218367200001,646.0264521000008,646.0264521000008,None,num_4,0.23624910000035015,646.0264521000008,None,happy,1,Happy,646.2735843000006,None,None,646.2735843000006,None,,,,,,,,,,,,,,,,,,,,,,,,,,,,,,,,,,,,,,,,,,,,,,,,,,,,,35,001,0,25,450,320,2022_Oct_31_1346,Experiment,2021.1.4,359.90771966766965,
images\S1_F_S_01.png,images\S1_F_S_01_scrambled.png,1,sad,-10,female,3,,304,on,2,0.5,0.75,0.5,0.782,3,303,5,1,1,2,2,32,128,163,,,,,,0,62,62,62,,,,,,,,,,,,,,,,,,,,,,,,,,,,,,,,,,,,,,,,,,,,,,,,,,,,,,,,,646.3207891000002,646.8234100999998,646.8234100999998,647.5761043000002,647.5761043000002,648.0814098999999,648.0814098999999,648.8672619000008,648.8672619000008,None,num_6,0.4039928999991389,648.8672619000008,None,sad,1,Sad,649.2976176000003,None,None,649.2976176000003,None,,,,,,,,,,,,,,,,,,,,,,,,,,,,,,,,,,,,,,,,,,,,,,,,,,,,,35,001,0,25,450,320,2022_Oct_31_1346,Experiment,2021.1.4,359.90771966766965,
images\S5_F_S_02.png,images\S5_F_S_02_scrambled.png,5,sad,-20,female,2,,149,off,1,0.5,0.75,0.5,0.924,3,148,1,1,1,0,0,0,0,2,,,,,,0,63,63,63,,,,,,,,,,,,,,,,,,,,,,,,,,,,,,,,,,,,,,,,,,,,,,,,,,,,,,,,,649.3559139999998,649.8586106000002,649.8586106000002,650.6112088999998,650.6112088999998,651.113807400001,651.113807400001,652.0412981999998,652.0412981999998,None,num_4,0.45332799999960116,652.0412981999998,None,happy,1,Sad,652.5022260000012,None,None,652.5022260000012,None,,,,,,,,,,,,,,,,,,,,,,,,,,,,,,,,,,,,,,,,,,,,,,,,,,,,,35,001,0,25,450,320,2022_Oct_31_1346,Experiment,2021.1.4,359.90771966766965,
images\S3_F_S_03.png,images\S3_F_S_03_scrambled.png,3,sad,-30,female,1,,498,off,1,0.5,0.75,0.5,0.798,3,497,2,1,1,0,0,0,0,1,,,,,,0,64,64,64,,,,,,,,,,,,,,,,,,,,,,,,,,,,,,,,,,,,,,,,,,,,,,,,,,,,,,,,,652.5522201000003,653.0548328000004,653.0548328000004,653.807402800001,653.807402800001,654.3101361999998,654.3101361999998,655.1125628000009,655.1125628000009,None,num_6,0.3263007000005018,655.1125628000009,None,sad,1,Sad,655.4540830000002,None,None,655.4540830000002,None,,,,,,,,,,,,,,,,,,,,,,,,,,,,,,,,,,,,,,,,,,,,,,,,,,,,,35,001,0,25,450,320,2022_Oct_31_1346,Experiment,2021.1.4,359.90771966766965,
images\S10_M_S_03.png,images\S10_M_S_03_scrambled.png,10,sad,-30,male,1,,600,on,2,0.5,0.75,0.5,0.911,3,599,1,1,2,2,2,32,128,161,,,,,,0,65,65,65,,,,,,,,,,,,,,,,,,,,,,,,,,,,,,,,,,,,,,,,,,,,,,,,,,,,,,,,,655.5013025999997,656.001151800001,656.001151800001,656.7509327999996,656.7509327999996,657.2563568000005,657.2563568000005,658.1727162999996,658.1727162999996,None,num_6,0.3139832999986538,658.1727162999996,None,sad,1,Sad,658.505947300001,None,None,658.505947300001,None,,,,,,,,,,,,,,,,,,,,,,,,,,,,,,,,,,,,,,,,,,,,,,,,,,,,,35,001,0,25,450,320,2022_Oct_31_1346,Experiment,2021.1.4,359.90771966766965,
images\blank.jpg,images\blank.jpg,none,none,none,none,0,,648,on,2,0.5,0.75,0.5,0.773,0,647,2,1,1,3,3,48,192,240,,,,,,0,66,66,66,,,,,,,,,,,,,,,,,,,,,,,,,,,,,,,,,,,,,,,,,,,,,,,,,,,,,,,,,658.5894655000011,659.0919002999999,659.0919002999999,659.8416326999995,659.8416326999995,660.3470682000006,660.3470682000006,661.1217918000002,661.1217918000002,661.1217918000002,None,,661.1217918000002,None,miss,1,,664.1264906000004,None,None,664.1264906000004,None,,,,,,,,,,,,,,,,,,,,,,,,,,,,,,,,,,,,,,,,,,,,,,,,,,,,,35,001,0,25,450,320,2022_Oct_31_1346,Experiment,2021.1.4,359.90771966766965,
images\S2_M_S_02.png,images\S2_M_S_02_scrambled.png,2,sad,-20,male,2,,371,off,1,0.5,0.75,0.5,0.819,3,370,1,1,1,0,0,0,0,2,,,,,,0,67,67,67,,,,,,,,,,,,,,,,,,,,,,,,,,,,,,,,,,,,,,,,,,,,,,,,,,,,,,,,,664.2488690000009,664.754010300001,664.754010300001,665.5065902999995,665.5065902999995,666.0119864999997,666.0119864999997,666.8339240000005,666.8339240000005,None,num_6,0.277051200000642,666.8339240000005,664.2488690000009,sad,1,Sad,667.1310875000003,None,None,667.1310875000003,None,,,,,,,,,,,,,,,,,,,,,,,,,,,,,,,,,,,,,,,,,,,,,,,,,,,,,35,001,0,25,450,320,2022_Oct_31_1346,Experiment,2021.1.4,359.90771966766965,
images\S4_M_H_03.png,images\S4_M_H_03_scrambled.png,4,happy,30,male,6,,21,off,1,0.5,0.75,0.5,0.832,3,20,2,1,1,0,0,0,0,6,,,,,,0,68,68,68,,,,,,,,,,,,,,,,,,,,,,,,,,,,,,,,,,,,,,,,,,,,,,,,,,,,,,,,,667.1810289999994,667.6836659,667.6836659,668.4362003999995,668.4362003999995,668.9416638000002,668.9416638000002,669.7774836999997,669.7774836999997,None,num_4,0.25301330000002054,669.7774836999997,None,happy,1,Happy,670.0412568999997,None,None,670.0412568999997,None,,,,,,,,,,,,,,,,,,,,,,,,,,,,,,,,,,,,,,,,,,,,,,,,,,,,,35,001,0,25,450,320,2022_Oct_31_1346,Experiment,2021.1.4,359.90771966766965,
images\S2_M_H_01.png,images\S2_M_H_01_scrambled.png,2,happy,10,male,4,,307,on,2,0.5,0.75,0.5,0.856,3,306,1,1,1,2,2,32,128,164,,,,,,0,69,69,69,,,,,,,,,,,,,,,,,,,,,,,,,,,,,,,,,,,,,,,,,,,,,,,,,,,,,,,,,670.0884700000006,670.5938748999997,670.5938748999997,671.3464043000004,671.3464043000004,671.851855500001,671.851855500001,672.7126886000005,672.7126886000005,None,num_4,0.3259557000001223,672.7126886000005,None,happy,1,Happy,673.059800600001,None,None,673.059800600001,None,,,,,,,,,,,,,,,,,,,,,,,,,,,,,,,,,,,,,,,,,,,,,,,,,,,,,35,001,0,25,450,320,2022_Oct_31_1346,Experiment,2021.1.4,359.90771966766965,
images\S9_F_H_01.png,images\S9_F_H_01_scrambled.png,9,happy,10,female,4,,109,on,2,0.5,0.75,0.5,0.916,3,108,2,1,2,2,2,32,128,164,,,,,,0,70,70,70,,,,,,,,,,,,,,,,,,,,,,,,,,,,,,,,,,,,,,,,,,,,,,,,,,,,,,,,,673.1125350000002,673.6179563999995,673.6179563999995,674.370615400001,674.370615400001,674.8759769000008,674.8759769000008,675.7951671999999,675.7951671999999,None,num_4,0.2435007999993104,675.7951671999999,None,happy,1,Happy,676.0560656000013,None,None,676.0560656000013,None,,,,,,,,,,,,,,,,,,,,,,,,,,,,,,,,,,,,,,,,,,,,,,,,,,,,,35,001,0,25,450,320,2022_Oct_31_1346,Experiment,2021.1.4,359.90771966766965,
images\S6_M_H_02.png,images\S6_M_H_02_scrambled.png,6,happy,20,male,5,,152,off,1,0.5,0.75,0.5,0.832,3,151,1,1,1,0,0,0,0,5,,,,,,0,71,71,71,,,,,,,,,,,,,,,,,,,,,,,,,,,,,,,,,,,,,,,,,,,,,,,,,,,,,,,,,676.1032749999995,676.6060139000001,676.6060139000001,677.3556898999996,677.3556898999996,677.8555474999994,677.8555474999994,678.6914164999998,678.6914164999998,None,num_4,0.3152208999999857,678.6914164999998,None,happy,1,Happy,679.0246121999999,None,None,679.0246121999999,None,,,,,,,,,,,,,,,,,,,,,,,,,,,,,,,,,,,,,,,,,,,,,,,,,,,,,35,001,0,25,450,320,2022_Oct_31_1346,Experiment,2021.1.4,359.90771966766965,
images\S9_F_S_03.png,images\S9_F_S_03_scrambled.png,9,sad,-30,female,1,,114,on,2,0.5,0.75,0.5,0.817,3,113,1,1,1,2,2,32,128,161,,,,,,0,72,72,72,,,,,,,,,,,,,,,,,,,,,,,,,,,,,,,,,,,,,,,,,,,,,,,,,,,,,,,,,679.0718102999999,679.5772383000003,679.5772383000003,680.329783000001,680.329783000001,680.8296021000006,680.8296021000006,681.6516138999996,681.6516138999996,None,num_6,0.25932339999963006,681.6516138999996,None,sad,1,Sad,681.9348547000006,None,None,681.9348547000006,None,,,,,,,,,,,,,,,,,,,,,,,,,,,,,,,,,,,,,,,,,,,,,,,,,,,,,35,001,0,25,450,320,2022_Oct_31_1346,Experiment,2021.1.4,359.90771966766965,
images\S7_F_S_03.png,images\S7_F_S_03_scrambled.png,7,sad,-30,female,1,,222,on,2,0.5,0.75,0.5,0.813,3,221,2,1,2,2,2,32,128,161,,,,,,0,73,73,73,,,,,,,,,,,,,,,,,,,,,,,,,,,,,,,,,,,,,,,,,,,,,,,,,,,,,,,,,682.0014666999996,682.5013042999999,682.5013042999999,683.256678400001,683.256678400001,683.7592550999998,683.7592550999998,684.5784561,684.5784561,None,num_6,0.2762901999994938,684.5784561,None,sad,1,Sad,684.870039800001,None,None,684.870039800001,None,,,,,,,,,,,,,,,,,,,,,,,,,,,,,,,,,,,,,,,,,,,,,,,,,,,,,35,001,0,25,450,320,2022_Oct_31_1346,Experiment,2021.1.4,359.90771966766965,
images\S2_M_H_03.png,images\S2_M_H_03_scrambled.png,2,happy,30,male,6,,549,on,2,0.5,0.75,0.5,0.795,3,548,3,1,1,2,2,32,128,166,,,,,,0,74,74,74,,,,,,,,,,,,,,,,,,,,,,,,,,,,,,,,,,,,,,,,,,,,,,,,,,,,,,,,,684.917225000001,685.4226495000003,685.4226495000003,686.175164100001,686.175164100001,686.6807022000012,686.6807022000012,687.4775793000008,687.4775793000008,None,num_4,0.19313230000079784,687.4775793000008,None,happy,1,Happy,687.6858340999997,None,None,687.6858340999997,None,,,,,,,,,,,,,,,,,,,,,,,,,,,,,,,,,,,,,,,,,,,,,,,,,,,,,35,001,0,25,450,320,2022_Oct_31_1346,Experiment,2021.1.4,359.90771966766965,
images\blank.jpg,images\blank.jpg,none,none,none,none,0,,628,on,2,0.5,0.75,0.5,0.911,0,627,4,1,1,3,3,48,192,240,,,,,,0,75,75,75,,,,,,,,,,,,,,,,,,,,,,,,,,,,,,,,,,,,,,,,,,,,,,,,,,,,,,,,,687.769361300001,688.2717922000011,688.2717922000011,689.0215195000001,689.0215195000001,689.5213593999997,689.5213593999997,690.4351153000007,690.4351153000007,690.4351153000007,None,,690.4351153000007,None,miss,1,,693.4396176000004,None,None,693.4396176000004,None,,,,,,,,,,,,,,,,,,,,,,,,,,,,,,,,,,,,,,,,,,,,,,,,,,,,,35,001,0,25,450,320,2022_Oct_31_1346,Experiment,2021.1.4,359.90771966766965,
images\S9_F_S_02.png,images\S9_F_S_02_scrambled.png,9,sad,-20,female,2,,113,on,2,0.5,0.75,0.5,0.805,3,112,5,1,1,2,2,32,128,162,,,,,,0,76,76,76,,,,,,,,,,,,,,,,,,,,,,,,,,,,,,,,,,,,,,,,,,,,,,,,,,,,,,,,,693.5536837,694.0588611000003,694.0588611000003,694.8086337999994,694.8086337999994,695.3112988000012,695.3112988000012,696.1221321000012,696.1221321000012,None,num_6,0.23668309999993653,696.1221321000012,693.5536837,sad,1,Sad,696.377621300001,None,None,696.377621300001,None,,,,,,,,,,,,,,,,,,,,,,,,,,,,,,,,,,,,,,,,,,,,,,,,,,,,,35,001,0,25,450,320,2022_Oct_31_1346,Experiment,2021.1.4,359.90771966766965,
images\S8_M_S_02.png,images\S8_M_S_02_scrambled.png,8,sad,-20,male,2,,467,on,2,0.5,0.75,0.5,0.86,3,466,6,1,2,2,2,32,128,162,,,,,,0,77,77,77,,,,,,,,,,,,,,,,,,,,,,,,,,,,,,,,,,,,,,,,,,,,,,,,,,,,,,,,,696.4275792000008,696.9303380000001,696.9303380000001,697.6799573999997,697.6799573999997,698.1825805000008,698.1825805000008,699.0462511999995,699.0462511999995,None,num_6,0.23270079999929294,699.0462511999995,None,sad,1,Sad,699.3017609000009,None,None,699.3017609000009,None,,,,,,,,,,,,,,,,,,,,,,,,,,,,,,,,,,,,,,,,,,,,,,,,,,,,,35,001,0,25,450,320,2022_Oct_31_1346,Experiment,2021.1.4,359.90771966766965,
images\S5_F_H_02.png,images\S5_F_H_02_scrambled.png,5,happy,20,female,5,,86,on,2,0.5,0.75,0.5,0.882,3,85,7,1,1,2,2,32,128,165,,,,,,0,78,78,78,,,,,,,,,,,,,,,,,,,,,,,,,,,,,,,,,,,,,,,,,,,,,,,,,,,,,,,,,699.3544428000005,699.8542964999997,699.8542964999997,700.6068780999994,700.6068780999994,701.1094966,701.1094966,701.9980931000009,701.9980931000009,None,num_4,0.3530903999999282,701.9980931000009,None,happy,1,Happy,702.3702656000008,None,None,702.3702656000008,None,,,,,,,,,,,,,,,,,,,,,,,,,,,,,,,,,,,,,,,,,,,,,,,,,,,,,35,001,0,25,450,320,2022_Oct_31_1346,Experiment,2021.1.4,359.90771966766965,
images\S10_M_H_01.png,images\S10_M_H_01_scrambled.png,10,happy,10,male,4,,55,off,1,0.5,0.75,0.5,0.833,3,54,1,1,1,0,0,0,0,4,,,,,,0,79,79,79,,,,,,,,,,,,,,,,,,,,,,,,,,,,,,,,,,,,,,,,,,,,,,,,,,,,,,,,,702.4229407000003,702.9257040000011,702.9257040000011,703.6809704999996,703.6809704999996,704.1863332000012,704.1863332000012,705.0250472999996,705.0250472999996,None,num_4,0.3660985000005894,705.0250472999996,None,happy,1,Happy,705.4053495000004,None,None,705.4053495000004,None,,,,,,,,,,,,,,,,,,,,,,,,,,,,,,,,,,,,,,,,,,,,,,,,,,,,,35,001,0,25,450,320,2022_Oct_31_1346,Experiment,2021.1.4,359.90771966766965,
images\S8_M_S_02.png,images\S8_M_S_02_scrambled.png,8,sad,-20,male,2,,167,off,1,0.5,0.75,0.5,0.855,3,166,2,1,1,0,0,0,0,2,,,,,,0,80,80,80,,,,,,,,,,,,,,,,,,,,,,,,,,,,,,,,,,,,,,,,,,,,,,,,,,,,,,,,,705.452564700001,705.9551838000007,705.9551838000007,706.704982700001,706.704982700001,707.2103934999996,707.2103934999996,708.0684125999996,708.0684125999996,None,num_6,0.35418579999895883,708.0684125999996,None,sad,1,Sad,708.4405398999997,None,None,708.4405398999997,None,,,,,,,,,,,,,,,,,,,,,,,,,,,,,,,,,,,,,,,,,,,,,,,,,,,,,35,001,0,25,450,320,2022_Oct_31_1346,Experiment,2021.1.4,359.90771966766965,
images\S6_M_S_02.png,images\S6_M_S_02_scrambled.png,6,sad,-20,male,2,,515,off,1,0.5,0.75,0.5,0.768,3,514,3,1,2,0,0,0,0,2,,,,,,0,81,81,81,,,,,,,,,,,,,,,,,,,,,,,,,,,,,,,,,,,,,,,,,,,,,,,,,,,,,,,,,708.4877403999999,708.9904449999995,708.9904449999995,709.7458208000007,709.7458208000007,710.2511415000008,710.2511415000008,711.0230862999997,711.0230862999997,None,num_6,0.3836719000009907,711.0230862999997,None,sad,1,Sad,711.4229451999996,None,None,711.4229451999996,None,,,,,,,,,,,,,,,,,,,,,,,,,,,,,,,,,,,,,,,,,,,,,,,,,,,,,35,001,0,25,450,320,2022_Oct_31_1346,Experiment,2021.1.4,359.90771966766965,
images\S5_F_H_02.png,images\S5_F_H_02_scrambled.png,5,happy,20,female,5,,386,off,1,0.5,0.75,0.5,0.895,3,385,4,1,1,0,0,0,0,5,,,,,,0,82,82,82,,,,,,,,,,,,,,,,,,,,,,,,,,,,,,,,,,,,,,,,,,,,,,,,,,,,,,,,,711.4701548000012,711.9727915000003,711.9727915000003,712.7253347999995,712.7253347999995,713.2308604000009,713.2308604000009,714.1305903000011,714.1305903000011,None,num_4,0.380538900000829,714.1305903000011,None,happy,1,Happy,714.5304188000013,None,None,714.5304188000013,None,,,,,,,,,,,,,,,,,,,,,,,,,,,,,,,,,,,,,,,,,,,,,,,,,,,,,35,001,0,25,450,320,2022_Oct_31_1346,Experiment,2021.1.4,359.90771966766965,
images\S1_F_H_01.png,images\S1_F_H_01_scrambled.png,1,happy,10,female,4,,121,off,1,0.5,0.75,0.5,0.816,3,120,5,1,1,0,0,0,0,4,,,,,,0,83,83,83,,,,,,,,,,,,,,,,,,,,,,,,,,,,,,,,,,,,,,,,,,,,,,,,,,,,,,,,,714.5803061000006,715.0858360000002,715.0858360000002,715.8411018000006,715.8411018000006,716.3464664000003,716.3464664000003,717.1657501000009,717.1657501000009,None,num_4,0.32904059999964375,717.1657501000009,None,happy,1,Happy,717.512723200001,None,None,717.512723200001,None,,,,,,,,,,,,,,,,,,,,,,,,,,,,,,,,,,,,,,,,,,,,,,,,,,,,,35,001,0,25,450,320,2022_Oct_31_1346,Experiment,2021.1.4,359.90771966766965,
images\S4_M_H_01.png,images\S4_M_H_01_scrambled.png,4,happy,10,male,4,,439,on,2,0.5,0.75,0.5,0.913,3,438,1,1,2,2,2,32,128,164,,,,,,0,84,84,84,,,,,,,,,,,,,,,,,,,,,,,,,,,,,,,,,,,,,,,,,,,,,,,,,,,,,,,,,717.5627165000005,718.065481900001,718.065481900001,718.8151352000004,718.8151352000004,719.3206465000003,719.3206465000003,720.2368994000008,720.2368994000008,None,num_6,0.4658939000000828,720.2368994000008,None,sad,1,Happy,720.7117810000007,None,None,720.7117810000007,None,,,,,,,,,,,,,,,,,,,,,,,,,,,,,,,,,,,,,,,,,,,,,,,,,,,,,35,001,0,25,450,320,2022_Oct_31_1346,Experiment,2021.1.4,359.90771966766965,
images\S6_M_S_01.png,images\S6_M_S_01_scrambled.png,6,sad,-10,male,3,,94,on,2,0.5,0.75,0.5,0.947,3,93,2,1,1,2,2,32,128,163,,,,,,0,85,85,85,,,,,,,,,,,,,,,,,,,,,,,,,,,,,,,,,,,,,,,,,,,,,,,,,,,,,,,,,720.7617356999999,721.2643834999999,721.2643834999999,722.0169401000003,722.0169401000003,722.5195641000009,722.5195641000009,723.4720362000007,723.4720362000007,None,num_6,1.0788136999999551,723.4720362000007,None,sad,1,Sad,724.5661581000007,None,None,724.5661581000007,None,,,,,,,,,,,,,,,,,,,,,,,,,,,,,,,,,,,,,,,,,,,,,,,,,,,,,35,001,0,25,450,320,2022_Oct_31_1346,Experiment,2021.1.4,359.90771966766965,
images\S7_F_H_01.png,images\S7_F_H_01_scrambled.png,7,happy,10,female,4,,337,on,2,0.5,0.75,0.5,0.939,3,336,3,1,1,2,2,32,128,164,,,,,,0,86,86,86,,,,,,,,,,,,,,,,,,,,,,,,,,,,,,,,,,,,,,,,,,,,,,,,,,,,,,,,,724.6133205999995,725.1160987000003,725.1160987000003,725.8712928999994,725.8712928999994,726.3738986999997,726.3738986999997,727.3180714999999,727.3180714999999,None,num_4,0.480695399999604,727.3180714999999,None,happy,1,Happy,727.812326500001,None,None,727.812326500001,None,,,,,,,,,,,,,,,,,,,,,,,,,,,,,,,,,,,,,,,,,,,,,,,,,,,,,35,001,0,25,450,320,2022_Oct_31_1346,Experiment,2021.1.4,359.90771966766965,
images\S4_M_H_01.png,images\S4_M_H_01_scrambled.png,4,happy,10,male,4,,379,off,1,0.5,0.75,0.5,0.844,3,378,1,1,2,0,0,0,0,4,,,,,,0,87,87,87,,,,,,,,,,,,,,,,,,,,,,,,,,,,,,,,,,,,,,,,,,,,,,,,,,,,,,,,,727.8595421999999,728.3621617999997,728.3621617999997,729.1119251,729.1119251,729.614577100001,729.614577100001,730.4615606000007,730.4615606000007,None,num_6,0.5531071000004886,730.4615606000007,None,sad,1,Happy,731.0224892999996,None,None,731.0224892999996,None,,,,,,,,,,,,,,,,,,,,,,,,,,,,,,,,,,,,,,,,,,,,,,,,,,,,,35,001,0,25,450,320,2022_Oct_31_1346,Experiment,2021.1.4,359.90771966766965,
images\S9_F_H_01.png,images\S9_F_H_01_scrambled.png,9,happy,10,female,4,,229,on,2,0.5,0.75,0.5,0.914,3,228,1,1,3,2,2,32,128,164,,,,,,0,88,88,88,,,,,,,,,,,,,,,,,,,,,,,,,,,,,,,,,,,,,,,,,,,,,,,,,,,,,,,,,731.0807817000004,731.5862228000005,731.5862228000005,732.3359730000011,732.3359730000011,732.8413820999995,732.8413820999995,733.7606470999999,733.7606470999999,None,num_4,0.8462803999991593,733.7606470999999,None,happy,1,Happy,734.6297095000001,None,None,734.6297095000001,None,,,,,,,,,,,,,,,,,,,,,,,,,,,,,,,,,,,,,,,,,,,,,,,,,,,,,35,001,0,25,450,320,2022_Oct_31_1346,Experiment,2021.1.4,359.90771966766965,
images\S9_F_H_03.png,images\S9_F_H_03_scrambled.png,9,happy,30,female,6,,531,off,1,0.5,0.75,0.5,0.868,3,530,1,2,1,0,0,0,0,6,,,,,,0,89,89,89,,,,,,,,,,,,,,,,,,,,,,,,,,,,,,,,,,,,,,,,,,,,,,,,,,,,,,,,,734.6824405999996,735.1878581000001,735.1878581000001,735.9404038000011,735.9404038000011,736.4459182999999,736.4459182999999,737.3206473999999,737.3206473999999,None,num_4,0.5582087999991927,737.3206473999999,None,happy,1,Happy,737.906488400001,None,None,737.906488400001,None,,,,,,,,,,,,,,,,,,,,,,,,,,,,,,,,,,,,,,,,,,,,,,,,,,,,,35,001,0,25,450,320,2022_Oct_31_1346,Experiment,2021.1.4,359.90771966766965,
images\S8_M_H_01.png,images\S8_M_H_01_scrambled.png,8,happy,10,male,4,,43,off,1,0.5,0.75,0.5,0.837,3,42,2,1,1,0,0,0,0,4,,,,,,0,90,90,90,,,,,,,,,,,,,,,,,,,,,,,,,,,,,,,,,,,,,,,,,,,,,,,,,,,,,,,,,737.9703157000004,738.4729482000002,738.4729482000002,739.2255765999998,739.2255765999998,739.7309708000012,739.7309708000012,740.572277700001,740.572277700001,None,num_6,0.5385435999996844,740.572277700001,None,sad,1,Happy,741.1165748999999,None,None,741.1165748999999,None,,,,,,,,,,,,,,,,,,,,,,,,,,,,,,,,,,,,,,,,,,,,,,,,,,,,,35,001,0,25,450,320,2022_Oct_31_1346,Experiment,2021.1.4,359.90771966766965,
images\S8_M_S_02.png,images\S8_M_S_02_scrambled.png,8,sad,-20,male,2,,227,on,2,0.5,0.75,0.5,0.847,3,226,1,2,1,2,2,32,128,162,,,,,,0,91,91,91,,,,,,,,,,,,,,,,,,,,,,,,,,,,,,,,,,,,,,,,,,,,,,,,,,,,,,,,,741.1665551000006,741.6719690000009,741.6719690000009,742.4217200000003,742.4217200000003,742.9271569000011,742.9271569000011,743.776893100001,743.776893100001,None,num_6,0.6057263000002422,743.776893100001,None,sad,1,Sad,744.3988705000002,None,None,744.3988705000002,None,,,,,,,,,,,,,,,,,,,,,,,,,,,,,,,,,,,,,,,,,,,,,,,,,,,,,35,001,0,25,450,320,2022_Oct_31_1346,Experiment,2021.1.4,359.90771966766965,
images\S4_M_S_03.png,images\S4_M_S_03_scrambled.png,4,sad,-30,male,1,,564,on,2,0.5,0.75,0.5,0.895,3,563,2,1,1,2,2,32,128,161,,,,,,0,92,92,92,,,,,,,,,,,,,,,,,,,,,,,,,,,,,,,,,,,,,,,,,,,,,,,,,,,,,,,,,744.4488727000007,744.9487246999997,744.9487246999997,745.7013124000005,745.7013124000005,746.2011050000001,746.2011050000001,747.0980751999996,747.0980751999996,None,num_6,0.2846769999996468,747.0980751999996,None,sad,1,Sad,747.4063281000009,None,None,747.4063281000009,None,,,,,,,,,,,,,,,,,,,,,,,,,,,,,,,,,,,,,,,,,,,,,,,,,,,,,35,001,0,25,450,320,2022_Oct_31_1346,Experiment,2021.1.4,359.90771966766965,
images\S4_M_H_03.png,images\S4_M_H_03_scrambled.png,4,happy,30,male,6,,261,off,1,0.5,0.75,0.5,0.819,3,260,1,2,1,0,0,0,0,6,,,,,,0,93,93,93,,,,,,,,,,,,,,,,,,,,,,,,,,,,,,,,,,,,,,,,,,,,,,,,,,,,,,,,,747.4701784000008,747.9700074000011,747.9700074000011,748.7197839,748.7197839,749.2252069000006,749.2252069000006,750.047179000001,750.047179000001,None,num_4,0.36020319999988715,750.047179000001,None,happy,1,Happy,750.4333033000013,None,None,750.4333033000013,None,,,,,,,,,,,,,,,,,,,,,,,,,,,,,,,,,,,,,,,,,,,,,,,,,,,,,35,001,0,25,450,320,2022_Oct_31_1346,Experiment,2021.1.4,359.90771966766965,
images\S9_F_H_03.png,images\S9_F_H_03_scrambled.png,9,happy,30,female,6,,111,on,2,0.5,0.75,0.5,0.864,3,110,1,1,2,2,2,32,128,166,,,,,,0,94,94,94,,,,,,,,,,,,,,,,,,,,,,,,,,,,,,,,,,,,,,,,,,,,,,,,,,,,,,,,,750.4886893000003,750.9913269000008,750.9913269000008,751.741083500001,751.741083500001,752.2465154000001,752.2465154000001,753.1128872999998,753.1128872999998,None,num_4,0.5258972000010544,753.1128872999998,None,happy,1,Happy,753.6599952000007,None,None,753.6599952000007,None,,,,,,,,,,,,,,,,,,,,,,,,,,,,,,,,,,,,,,,,,,,,,,,,,,,,,35,001,0,25,450,320,2022_Oct_31_1346,Experiment,2021.1.4,359.90771966766965,
images\S5_F_S_01.png,images\S5_F_S_01_scrambled.png,5,sad,-10,female,3,,28,off,1,0.5,0.75,0.5,0.861,3,27,1,1,1,0,0,0,0,3,,,,,,0,95,95,95,,,,,,,,,,,,,,,,,,,,,,,,,,,,,,,,,,,,,,,,,,,,,,,,,,,,,,,,,753.7126747000002,754.2154379000003,754.2154379000003,754.9678693000005,754.9678693000005,755.4705656000006,755.4705656000006,756.3313244000001,756.3313244000001,None,num_4,0.5152072000000771,756.3313244000001,None,happy,1,Sad,756.8533864999997,None,None,756.8533864999997,None,,,,,,,,,,,,,,,,,,,,,,,,,,,,,,,,,,,,,,,,,,,,,,,,,,,,,35,001,0,25,450,320,2022_Oct_31_1346,Experiment,2021.1.4,359.90771966766965,
images\S10_M_H_01.png,images\S10_M_H_01_scrambled.png,10,happy,10,male,4,,175,off,1,0.5,0.75,0.5,0.916,3,174,2,1,1,0,0,0,0,4,,,,,,0,96,96,96,,,,,,,,,,,,,,,,,,,,,,,,,,,,,,,,,,,,,,,,,,,,,,,,,,,,,,,,,756.9005909999996,757.4060585999996,757.4060585999996,758.1613584000006,758.1613584000006,758.6667491999997,758.6667491999997,759.5859192999997,759.5859192999997,None,num_4,0.30874190000031376,759.5859192999997,None,happy,1,Happy,759.9163766000012,None,None,759.9163766000012,None,,,,,,,,,,,,,,,,,,,,,,,,,,,,,,,,,,,,,,,,,,,,,,,,,,,,,35,001,0,25,450,320,2022_Oct_31_1346,Experiment,2021.1.4,359.90771966766965,
images\S2_M_S_03.png,images\S2_M_S_03_scrambled.png,2,sad,-30,male,1,,552,on,2,0.5,0.75,0.5,0.782,3,551,1,1,1,2,2,32,128,161,,,,,,0,97,97,97,,,,,,,,,,,,,,,,,,,,,,,,,,,,,,,,,,,,,,,,,,,,,,,,,,,,,,,,,759.9801944999999,760.4800697999999,760.4800697999999,761.2355031999996,761.2355031999996,761.7379822000003,761.7379822000003,762.5266738000009,762.5266738000009,None,num_6,0.3520693999998912,762.5266738000009,None,sad,1,Sad,762.9071086000014,None,None,762.9071086000014,None,,,,,,,,,,,,,,,,,,,,,,,,,,,,,,,,,,,,,,,,,,,,,,,,,,,,,35,001,0,25,450,320,2022_Oct_31_1346,Experiment,2021.1.4,359.90771966766965,
images\blank.jpg,images\blank.jpg,none,none,none,none,0,,625,on,2,0.5,0.75,0.5,0.785,0,624,2,1,1,3,3,48,192,240,,,,,,0,98,98,98,,,,,,,,,,,,,,,,,,,,,,,,,,,,,,,,,,,,,,,,,,,,,,,,,,,,,,,,,762.9933773000012,763.4958667999999,763.4958667999999,764.2455331000001,764.2455331000001,764.7510175000007,764.7510175000007,765.5396187000006,765.5396187000006,765.5396187000006,None,,765.5396187000006,None,miss,1,,768.5414892000002,None,None,768.5414892000002,None,,,,,,,,,,,,,,,,,,,,,,,,,,,,,,,,,,,,,,,,,,,,,,,,,,,,,35,001,0,25,450,320,2022_Oct_31_1346,Experiment,2021.1.4,359.90771966766965,
images\S9_F_S_01.png,images\S9_F_S_01_scrambled.png,9,sad,-10,female,3,,112,on,2,0.5,0.75,0.5,0.906,3,111,3,1,1,2,2,32,128,163,,,,,,0,99,99,99,,,,,,,,,,,,,,,,,,,,,,,,,,,,,,,,,,,,,,,,,,,,,,,,,,,,,,,,,768.6610338999999,769.1662947000004,769.1662947000004,769.9160357000001,769.9160357000001,770.4214628999998,770.4214628999998,771.3295170000001,771.3295170000001,None,num_4,0.35739919999832637,771.3295170000001,768.6610338999999,happy,1,Sad,771.6961186999998,None,None,771.6961186999998,None,,,,,,,,,,,,,,,,,,,,,,,,,,,,,,,,,,,,,,,,,,,,,,,,,,,,,35,001,0,25,450,320,2022_Oct_31_1346,Experiment,2021.1.4,359.90771966766965,
images\S1_F_S_02.png,images\S1_F_S_02_scrambled.png,1,sad,-20,female,2,,65,on,2,0.5,0.75,0.5,0.922,3,64,4,1,1,2,2,32,128,162,,,,,,0,100,100,100,,,,,,,,,,,,,,,,,,,,,,,,,,,,,,,,,,,,,,,,,,,,,,,,,,,,,,,,,771.7571179000006,772.2569662000005,772.2569662000005,773.0096496999995,773.0096496999995,773.512127,773.512127,774.4368608000004,774.4368608000004,None,num_4,0.39387300000089454,774.4368608000004,None,happy,1,Sad,774.8367188,None,None,774.8367188,None,,,,,,,,,,,,,,,,,,,,,,,,,,,,,,,,,,,,,,,,,,,,,,,,,,,,,35,001,0,25,450,320,2022_Oct_31_1346,Experiment,2021.1.4,359.90771966766965,
images\S5_F_S_02.png,images\S5_F_S_02_scrambled.png,5,sad,-20,female,2,,89,on,2,0.5,0.75,0.5,0.769,3,88,5,1,2,2,2,32,128,162,,,,,,0,101,101,101,,,,,,,,,,,,,,,,,,,,,,,,,,,,,,,,,,,,,,,,,,,,,,,,,,,,,,,,,774.883925600001,775.3865538999999,775.3865538999999,776.1391512000009,776.1391512000009,776.641751000001,776.641751000001,777.4109306999999,777.4109306999999,None,num_4,0.49151050000000396,777.4109306999999,None,happy,1,Sad,777.9107900000006,None,None,777.9107900000006,None,,,,,,,,,,,,,,,,,,,,,,,,,,,,,,,,,,,,,,,,,,,,,,,,,,,,,35,001,0,25,450,320,2022_Oct_31_1346,Experiment,2021.1.4,359.90771966766965,
images\blank.jpg,images\blank.jpg,none,none,none,none,0,,606,on,2,0.5,0.75,0.5,0.84,0,605,6,1,1,3,3,48,192,240,,,,,,0,102,102,102,,,,,,,,,,,,,,,,,,,,,,,,,,,,,,,,,,,,,,,,,,,,,,,,,,,,,,,,,777.9971814,778.4994778,778.4994778,779.2520294000005,779.2520294000005,779.7574667999997,779.7574667999997,780.5988276999997,780.5988276999997,780.5988276999997,None,,780.5988276999997,None,miss,1,,783.5979553999999,None,None,783.5979553999999,None,,,,,,,,,,,,,,,,,,,,,,,,,,,,,,,,,,,,,,,,,,,,,,,,,,,,,35,001,0,25,450,320,2022_Oct_31_1346,Experiment,2021.1.4,359.90771966766965,
images\S10_M_S_03.png,images\S10_M_S_03_scrambled.png,10,sad,-30,male,1,,420,off,1,0.5,0.75,0.5,0.813,3,419,1,1,1,0,0,0,0,1,,,,,,0,103,103,103,,,,,,,,,,,,,,,,,,,,,,,,,,,,,,,,,,,,,,,,,,,,,,,,,,,,,,,,,783.7202818999995,784.2227383999998,784.2227383999998,784.9753944000004,784.9753944000004,785.4751109999997,785.4751109999997,786.2915644000004,786.2915644000004,None,num_6,0.29080830000020796,786.2915644000004,783.7202818999995,sad,1,Sad,786.5997667000001,None,None,786.5997667000001,None,,,,,,,,,,,,,,,,,,,,,,,,,,,,,,,,,,,,,,,,,,,,,,,,,,,,,35,001,0,25,450,320,2022_Oct_31_1346,Experiment,2021.1.4,359.90771966766965,
images\S4_M_H_03.png,images\S4_M_H_03_scrambled.png,4,happy,30,male,6,,441,on,2,0.5,0.75,0.5,0.835,3,440,1,1,1,2,2,32,128,166,,,,,,0,104,104,104,,,,,,,,,,,,,,,,,,,,,,,,,,,,,,,,,,,,,,,,,,,,,,,,,,,,,,,,,786.6469729,787.1495943999998,787.1495943999998,787.9050521000008,787.9050521000008,788.4104418000006,788.4104418000006,789.2489492000004,789.2489492000004,None,num_4,0.5016606000008323,789.2489492000004,None,happy,1,Happy,789.7654216999996,None,None,789.7654216999996,None,,,,,,,,,,,,,,,,,,,,,,,,,,,,,,,,,,,,,,,,,,,,,,,,,,,,,35,001,0,25,450,320,2022_Oct_31_1346,Experiment,2021.1.4,359.90771966766965,
images\S9_F_S_01.png,images\S9_F_S_01_scrambled.png,9,sad,-10,female,3,,472,on,2,0.5,0.75,0.5,0.949,3,471,2,1,1,2,2,32,128,163,,,,,,0,105,105,105,,,,,,,,,,,,,,,,,,,,,,,,,,,,,,,,,,,,,,,,,,,,,,,,,,,,,,,,,789.8126721999997,790.3154121999996,790.3154121999996,791.0650432000002,791.0650432000002,791.5705321000005,791.5705321000005,792.5258032000002,792.5258032000002,None,num_4,0.47274560000005295,792.5258032000002,None,happy,1,Sad,793.0088939000004,None,None,793.0088939000004,None,,,,,,,,,,,,,,,,,,,,,,,,,,,,,,,,,,,,,,,,,,,,,,,,,,,,,35,001,0,25,450,320,2022_Oct_31_1346,Experiment,2021.1.4,359.90771966766965,
images\blank.jpg,images\blank.jpg,none,none,none,none,0,,624,on,2,0.5,0.75,0.5,0.784,0,623,3,1,1,3,3,48,192,240,,,,,,0,106,106,106,,,,,,,,,,,,,,,,,,,,,,,,,,,,,,,,,,,,,,,,,,,,,,,,,,,,,,,,,793.0952483000001,793.5948258000008,793.5948258000008,794.3473985,794.3473985,794.8501240000005,794.8501240000005,795.6359666000008,795.6359666000008,795.6359666000008,None,,795.6359666000008,None,miss,1,,798.6377959999998,None,None,798.6377959999998,None,,,,,,,,,,,,,,,,,,,,,,,,,,,,,,,,,,,,,,,,,,,,,,,,,,,,,35,001,0,25,450,320,2022_Oct_31_1346,Experiment,2021.1.4,359.90771966766965,
images\S6_M_H_01.png,images\S6_M_H_01_scrambled.png,6,happy,10,male,4,,211,on,2,0.5,0.75,0.5,0.877,3,210,4,1,1,2,2,32,128,164,,,,,,0,107,107,107,,,,,,,,,,,,,,,,,,,,,,,,,,,,,,,,,,,,,,,,,,,,,,,,,,,,,,,,,798.7572851000004,799.2625489000002,799.2625489000002,800.0122928000001,800.0122928000001,800.5177185000011,800.5177185000011,801.4008346999999,801.4008346999999,None,num_4,0.3419887000000017,801.4008346999999,798.7572851000004,happy,1,Happy,801.7731815000012,None,None,801.7731815000012,None,,,,,,,,,,,,,,,,,,,,,,,,,,,,,,,,,,,,,,,,,,,,,,,,,,,,,35,001,0,25,450,320,2022_Oct_31_1346,Experiment,2021.1.4,359.90771966766965,
images\S7_F_S_01.png,images\S7_F_S_01_scrambled.png,7,sad,-10,female,3,,520,off,1,0.5,0.75,0.5,0.923,3,519,1,1,1,0,0,0,0,3,,,,,,0,108,108,108,,,,,,,,,,,,,,,,,,,,,,,,,,,,,,,,,,,,,,,,,,,,,,,,,,,,,,,,,801.8256277,802.3282500000005,802.3282500000005,803.0780066999996,803.0780066999996,803.5807755999995,803.5807755999995,804.508151,804.508151,None,num_6,0.26634159999957774,804.508151,None,sad,1,Sad,804.8024658000013,None,None,804.8024658000013,None,,,,,,,,,,,,,,,,,,,,,,,,,,,,,,,,,,,,,,,,,,,,,,,,,,,,,35,001,0,25,450,320,2022_Oct_31_1346,Experiment,2021.1.4,359.90771966766965,
images\S5_F_H_02.png,images\S5_F_H_02_scrambled.png,5,happy,20,female,5,,446,on,2,0.5,0.75,0.5,0.843,3,445,1,1,1,2,2,32,128,165,,,,,,0,109,109,109,,,,,,,,,,,,,,,,,,,,,,,,,,,,,,,,,,,,,,,,,,,,,,,,,,,,,,,,,804.8552442,805.3607425999999,805.3607425999999,806.1131877999997,806.1131877999997,806.6159206000011,806.6159206000011,807.4599871999999,807.4599871999999,None,num_4,0.39517479999994976,807.4599871999999,None,happy,1,Happy,807.8849860000001,None,None,807.8849860000001,None,,,,,,,,,,,,,,,,,,,,,,,,,,,,,,,,,,,,,,,,,,,,,,,,,,,,,35,001,0,25,450,320,2022_Oct_31_1346,Experiment,2021.1.4,359.90771966766965,
images\S3_F_S_03.png,images\S3_F_S_03_scrambled.png,3,sad,-30,female,1,,138,off,1,0.5,0.75,0.5,0.855,3,137,1,1,1,0,0,0,0,1,,,,,,0,110,110,110,,,,,,,,,,,,,,,,,,,,,,,,,,,,,,,,,,,,,,,,,,,,,,,,,,,,,,,,,807.9376186999998,808.4403825999998,808.4403825999998,809.1957039000008,809.1957039000008,809.6982413999995,809.6982413999995,810.5562697999994,810.5562697999994,None,num_6,0.46637490000102844,810.5562697999994,None,sad,1,Sad,811.0366702999996,None,None,811.0366702999996,None,,,,,,,,,,,,,,,,,,,,,,,,,,,,,,,,,,,,,,,,,,,,,,,,,,,,,35,001,0,25,450,320,2022_Oct_31_1346,Experiment,2021.1.4,359.90771966766965,
images\S4_M_H_03.png,images\S4_M_H_03_scrambled.png,4,happy,30,male,6,,141,off,1,0.5,0.75,0.5,0.905,3,140,2,1,1,0,0,0,0,6,,,,,,0,111,111,111,,,,,,,,,,,,,,,,,,,,,,,,,,,,,,,,,,,,,,,,,,,,,,,,,,,,,,,,,811.0838798999994,811.5865372000007,811.5865372000007,812.3390543999994,812.3390543999994,812.8416959999995,812.8416959999995,813.7525234000004,813.7525234000004,None,num_4,0.4227946000009979,813.7525234000004,None,happy,1,Happy,814.1996607000011,None,None,814.1996607000011,None,,,,,,,,,,,,,,,,,,,,,,,,,,,,,,,,,,,,,,,,,,,,,,,,,,,,,35,001,0,25,450,320,2022_Oct_31_1346,Experiment,2021.1.4,359.90771966766965,
images\blank.jpg,images\blank.jpg,none,none,none,none,0,,617,on,2,0.5,0.75,0.5,0.822,0,616,1,1,1,3,3,48,192,240,,,,,,0,112,112,112,,,,,,,,,,,,,,,,,,,,,,,,,,,,,,,,,,,,,,,,,,,,,,,,,,,,,,,,,814.2886798,814.7910578999999,814.7910578999999,815.5408368999997,815.5408368999997,816.0462915999997,816.0462915999997,816.8682757000006,816.8682757000006,816.8682757000006,None,,816.8682757000006,None,miss,1,,819.8672973999995,None,None,819.8672973999995,None,,,,,,,,,,,,,,,,,,,,,,,,,,,,,,,,,,,,,,,,,,,,,,,,,,,,,35,001,0,25,450,320,2022_Oct_31_1346,Experiment,2021.1.4,359.90771966766965,
images\blank.jpg,images\blank.jpg,none,none,none,none,0,,632,on,2,0.5,0.75,0.5,0.781,0,631,2,2,2,3,3,48,192,240,,,,,,0,113,113,113,,,,,,,,,,,,,,,,,,,,,,,,,,,,,,,,,,,,,,,,,,,,,,,,,,,,,,,,,819.8895310999997,820.3893446000002,820.3893446000002,821.1391187999998,821.1391187999998,821.6417824,821.6417824,822.4249708999996,822.4249708999996,822.4249708999996,None,,822.4249708999996,819.8895310999997,miss,1,,825.4322939000001,None,None,825.4322939000001,None,,,,,,,,,,,,,,,,,,,,,,,,,,,,,,,,,,,,,,,,,,,,,,,,,,,,,35,001,0,25,450,320,2022_Oct_31_1346,Experiment,2021.1.4,359.90771966766965,
images\S9_F_H_02.png,images\S9_F_H_02_scrambled.png,9,happy,20,female,5,,290,off,1,0.5,0.75,0.5,0.83,3,289,1,1,1,0,0,0,0,5,,,,,,0,114,114,114,,,,,,,,,,,,,,,,,,,,,,,,,,,,,,,,,,,,,,,,,,,,,,,,,,,,,,,,,825.5546546999994,826.0542862000002,826.0542862000002,826.8068089999997,826.8068089999997,827.3066502000001,827.3066502000001,828.1398707999997,828.1398707999997,None,num_4,0.3307191000003513,828.1398707999997,825.5546546999994,happy,1,Happy,828.4868663000001,None,None,828.4868663000001,None,,,,,,,,,,,,,,,,,,,,,,,,,,,,,,,,,,,,,,,,,,,,,,,,,,,,,35,001,0,25,450,320,2022_Oct_31_1346,Experiment,2021.1.4,359.90771966766965,
images\S6_M_S_03.png,images\S6_M_S_03_scrambled.png,6,sad,-30,male,1,,456,on,2,0.5,0.75,0.5,0.793,3,455,1,1,1,2,2,32,128,161,,,,,,0,115,115,115,,,,,,,,,,,,,,,,,,,,,,,,,,,,,,,,,,,,,,,,,,,,,,,,,,,,,,,,,828.5507178999997,829.0505809000006,829.0505809000006,829.8031057999997,829.8031057999997,830.3058228000009,830.3058228000009,831.1056196000009,831.1056196000009,None,num_6,0.4130378000008932,831.1056196000009,None,sad,1,Sad,831.5331351000001,None,None,831.5331351000001,None,,,,,,,,,,,,,,,,,,,,,,,,,,,,,,,,,,,,,,,,,,,,,,,,,,,,,35,001,0,25,450,320,2022_Oct_31_1346,Experiment,2021.1.4,359.90771966766965,
images\S2_M_H_02.png,images\S2_M_H_02_scrambled.png,2,happy,20,male,5,,368,off,1,0.5,0.75,0.5,0.775,3,367,1,1,1,0,0,0,0,5,,,,,,0,116,116,116,,,,,,,,,,,,,,,,,,,,,,,,,,,,,,,,,,,,,,,,,,,,,,,,,,,,,,,,,831.5803415999999,832.0858764000004,832.0858764000004,832.8411013000004,832.8411013000004,833.3436870999994,833.3436870999994,834.1212582000007,834.1212582000007,None,num_4,0.32576670000162267,834.1212582000007,None,happy,1,Happy,834.4684278000008,None,None,834.4684278000008,None,,,,,,,,,,,,,,,,,,,,,,,,,,,,,,,,,,,,,,,,,,,,,,,,,,,,,35,001,0,25,450,320,2022_Oct_31_1346,Experiment,2021.1.4,359.90771966766965,
images\S1_F_S_01.png,images\S1_F_S_01_scrambled.png,1,sad,-10,female,3,,484,off,1,0.5,0.75,0.5,0.846,3,483,2,1,1,0,0,0,0,3,,,,,,0,117,117,117,,,,,,,,,,,,,,,,,,,,,,,,,,,,,,,,,,,,,,,,,,,,,,,,,,,,,,,,,834.5265921999999,835.0320773000003,835.0320773000003,835.7847423000003,835.7847423000003,836.2872449999995,836.2872449999995,837.1398733000005,837.1398733000005,None,num_4,0.43456590000096185,837.1398733000005,None,happy,1,Sad,837.5840388000004,None,None,837.5840388000004,None,,,,,,,,,,,,,,,,,,,,,,,,,,,,,,,,,,,,,,,,,,,,,,,,,,,,,35,001,0,25,450,320,2022_Oct_31_1346,Experiment,2021.1.4,359.90771966766965,
images\S9_F_H_02.png,images\S9_F_H_02_scrambled.png,9,happy,20,female,5,,110,on,2,0.5,0.75,0.5,0.815,3,109,1,1,1,2,2,32,128,165,,,,,,0,118,118,118,,,,,,,,,,,,,,,,,,,,,,,,,,,,,,,,,,,,,,,,,,,,,,,,,,,,,,,,,837.6312651999997,838.1366882000002,838.1366882000002,838.8864245999994,838.8864245999994,839.3918439000008,839.3918439000008,840.2110551000005,840.2110551000005,None,num_4,0.4036204000003636,840.2110551000005,None,happy,1,Happy,840.641485700001,None,None,840.641485700001,None,,,,,,,,,,,,,,,,,,,,,,,,,,,,,,,,,,,,,,,,,,,,,,,,,,,,,35,001,0,25,450,320,2022_Oct_31_1346,Experiment,2021.1.4,359.90771966766965,
images\S8_M_H_02.png,images\S8_M_H_02_scrambled.png,8,happy,20,male,5,,284,off,1,0.5,0.75,0.5,0.887,3,283,1,1,2,0,0,0,0,5,,,,,,0,119,119,119,,,,,,,,,,,,,,,,,,,,,,,,,,,,,,,,,,,,,,,,,,,,,,,,,,,,,,,,,840.7053013999994,841.2051585000008,841.2051585000008,841.9549824999995,841.9549824999995,842.4575717999996,842.4575717999996,843.3517456999998,843.3517456999998,None,num_6,0.6389794000006077,843.3517456999998,None,sad,1,Happy,843.9987422000002,None,None,843.9987422000002,None,,,,,,,,,,,,,,,,,,,,,,,,,,,,,,,,,,,,,,,,,,,,,,,,,,,,,35,001,0,25,450,320,2022_Oct_31_1346,Experiment,2021.1.4,359.90771966766965,
images\S8_M_H_01.png,images\S8_M_H_01_scrambled.png,8,happy,10,male,4,,523,off,1,0.5,0.75,0.5,0.814,3,522,2,2,1,0,0,0,0,4,,,,,,0,120,120,120,,,,,,,,,,,,,,,,,,,,,,,,,,,,,,,,,,,,,,,,,,,,,,,,,,,,,,,,,844.0459448000001,844.5513775,844.5513775,845.3066964000009,845.3066964000009,845.8093184000008,845.8093184000008,846.6257213999997,846.6257213999997,None,num_4,0.3890031999999337,846.6257213999997,None,happy,1,Happy,847.0255537000008,None,None,847.0255537000008,None,,,,,,,,,,,,,,,,,,,,,,,,,,,,,,,,,,,,,,,,,,,,,,,,,,,,,35,001,0,25,450,320,2022_Oct_31_1346,Experiment,2021.1.4,359.90771966766965,
images\S3_F_S_01.png,images\S3_F_S_01_scrambled.png,3,sad,-10,female,3,,256,off,1,0.5,0.75,0.5,0.909,3,255,3,1,1,0,0,0,0,3,,,,,,0,121,121,121,,,,,,,,,,,,,,,,,,,,,,,,,,,,,,,,,,,,,,,,,,,,,,,,,,,,,,,,,847.0727850000003,847.5755258999998,847.5755258999998,848.3308219999999,848.3308219999999,848.836178900001,848.836178900001,849.7498675000006,849.7498675000006,None,num_6,0.3130763000008301,849.7498675000006,None,sad,1,Sad,850.0913807999997,None,None,850.0913807999997,None,,,,,,,,,,,,,,,,,,,,,,,,,,,,,,,,,,,,,,,,,,,,,,,,,,,,,35,001,0,25,450,320,2022_Oct_31_1346,Experiment,2021.1.4,359.90771966766965,
images\S2_M_S_03.png,images\S2_M_S_03_scrambled.png,2,sad,-30,male,1,,432,on,2,0.5,0.75,0.5,0.828,3,431,1,1,1,2,2,32,128,161,,,,,,0,122,122,122,,,,,,,,,,,,,,,,,,,,,,,,,,,,,,,,,,,,,,,,,,,,,,,,,,,,,,,,,850.1551688,850.6550163000011,850.6550163000011,851.4047756,851.4047756,851.9046488000004,851.9046488000004,852.7350666000002,852.7350666000002,None,num_6,0.35140639999917767,852.7350666000002,None,sad,1,Sad,853.101477400001,None,None,853.101477400001,None,,,,,,,,,,,,,,,,,,,,,,,,,,,,,,,,,,,,,,,,,,,,,,,,,,,,,35,001,0,25,450,320,2022_Oct_31_1346,Experiment,2021.1.4,359.90771966766965,
images\S4_M_S_01.png,images\S4_M_S_01_scrambled.png,4,sad,-10,male,3,,262,off,1,0.5,0.75,0.5,0.908,3,261,1,1,1,0,0,0,0,3,,,,,,0,123,123,123,,,,,,,,,,,,,,,,,,,,,,,,,,,,,,,,,,,,,,,,,,,,,,,,,,,,,,,,,853.1514631999999,853.6568941999994,853.6568941999994,854.409407000001,854.409407000001,854.9149479000007,854.9149479000007,855.8257217000009,855.8257217000009,None,num_6,0.365069699999367,855.8257217000009,None,sad,1,Sad,856.2116848999998,None,None,856.2116848999998,None,,,,,,,,,,,,,,,,,,,,,,,,,,,,,,,,,,,,,,,,,,,,,,,,,,,,,35,001,0,25,450,320,2022_Oct_31_1346,Experiment,2021.1.4,359.90771966766965,
images\S5_F_S_02.png,images\S5_F_S_02_scrambled.png,5,sad,-20,female,2,,509,off,1,0.5,0.75,0.5,0.841,3,508,2,1,1,0,0,0,0,2,,,,,,0,124,124,124,,,,,,,,,,,,,,,,,,,,,,,,,,,,,,,,,,,,,,,,,,,,,,,,,,,,,,,,,856.2755027000003,856.7753630999996,856.7753630999996,857.5251036000009,857.5251036000009,858.0306541000009,858.0306541000009,858.8774948999999,858.8774948999999,None,num_4,0.38514759999998205,858.8774948999999,None,happy,1,Sad,859.2718012000012,None,None,859.2718012000012,None,,,,,,,,,,,,,,,,,,,,,,,,,,,,,,,,,,,,,,,,,,,,,,,,,,,,,35,001,0,25,450,320,2022_Oct_31_1346,Experiment,2021.1.4,359.90771966766965,
images\S10_M_S_02.png,images\S10_M_S_02_scrambled.png,10,sad,-20,male,2,,179,off,1,0.5,0.75,0.5,0.904,3,178,3,1,2,0,0,0,0,2,,,,,,0,125,125,125,,,,,,,,,,,,,,,,,,,,,,,,,,,,,,,,,,,,,,,,,,,,,,,,,,,,,,,,,859.3190040999998,859.8216259000001,859.8216259000001,860.5769892000008,860.5769892000008,861.082370600001,861.082370600001,861.9905426000005,861.9905426000005,None,num_6,0.3199086000004172,861.9905426000005,None,sad,1,Sad,862.3375264000011,None,None,862.3375264000011,None,,,,,,,,,,,,,,,,,,,,,,,,,,,,,,,,,,,,,,,,,,,,,,,,,,,,,35,001,0,25,450,320,2022_Oct_31_1346,Experiment,2021.1.4,359.90771966766965,
images\S9_F_H_03.png,images\S9_F_H_03_scrambled.png,9,happy,30,female,6,,411,off,1,0.5,0.75,0.5,0.891,3,410,4,1,1,0,0,0,0,6,,,,,,0,126,126,126,,,,,,,,,,,,,,,,,,,,,,,,,,,,,,,,,,,,,,,,,,,,,,,,,,,,,,,,,862.393060800001,862.8957812000008,862.8957812000008,863.6510472000009,863.6510472000009,864.1536720000004,864.1536720000004,865.0506643000008,865.0506643000008,None,num_4,0.32392889999937324,865.0506643000008,None,happy,1,Happy,865.3893500999999,None,None,865.3893500999999,None,,,,,,,,,,,,,,,,,,,,,,,,,,,,,,,,,,,,,,,,,,,,,,,,,,,,,35,001,0,25,450,320,2022_Oct_31_1346,Experiment,2021.1.4,359.90771966766965,
images\blank.jpg,images\blank.jpg,none,none,none,none,0,,629,on,2,0.5,0.75,0.5,0.906,0,628,1,1,1,3,3,48,192,240,,,,,,0,127,127,127,,,,,,,,,,,,,,,,,,,,,,,,,,,,,,,,,,,,,,,,,,,,,,,,,,,,,,,,,865.4728962999998,865.9753199000006,865.9753199000006,866.7250822000005,866.7250822000005,867.2305766000009,867.2305766000009,868.1385535999998,868.1385535999998,868.1385535999998,None,,868.1385535999998,None,miss,1,,871.1403756999996,None,None,871.1403756999996,None,,,,,,,,,,,,,,,,,,,,,,,,,,,,,,,,,,,,,,,,,,,,,,,,,,,,,35,001,0,25,450,320,2022_Oct_31_1346,Experiment,2021.1.4,359.90771966766965,
images\S3_F_S_02.png,images\S3_F_S_02_scrambled.png,3,sad,-20,female,2,,437,on,2,0.5,0.75,0.5,0.816,3,436,2,1,1,2,2,32,128,162,,,,,,0,128,128,128,,,,,,,,,,,,,,,,,,,,,,,,,,,,,,,,,,,,,,,,,,,,,,,,,,,,,,,,,871.2517220000009,871.7568640999998,871.7568640999998,872.5121975000002,872.5121975000002,873.0149101000006,873.0149101000006,873.8367866999997,873.8367866999997,None,num_6,0.33782219999920926,873.8367866999997,871.2517220000009,sad,1,Sad,874.1866470000001,None,None,874.1866470000001,None,,,,,,,,,,,,,,,,,,,,,,,,,,,,,,,,,,,,,,,,,,,,,,,,,,,,,35,001,0,25,450,320,2022_Oct_31_1346,Experiment,2021.1.4,359.90771966766965,
images\S8_M_S_02.png,images\S8_M_S_02_scrambled.png,8,sad,-20,male,2,,347,on,2,0.5,0.75,0.5,0.884,3,346,3,1,2,2,2,32,128,162,,,,,,0,129,129,129,,,,,,,,,,,,,,,,,,,,,,,,,,,,,,,,,,,,,,,,,,,,,,,,,,,,,,,,,874.2338531000005,874.7336888999998,874.7336888999998,875.4890341000009,875.4890341000009,875.9916864999996,875.9916864999996,876.8775060999997,876.8775060999997,None,num_6,0.6091590000014548,876.8775060999997,None,sad,1,Sad,877.4995226000007,None,None,877.4995226000007,None,,,,,,,,,,,,,,,,,,,,,,,,,,,,,,,,,,,,,,,,,,,,,,,,,,,,,35,001,0,25,450,320,2022_Oct_31_1346,Experiment,2021.1.4,359.90771966766965,
images\S6_M_H_01.png,images\S6_M_H_01_scrambled.png,6,happy,10,male,4,,571,on,2,0.5,0.75,0.5,0.849,3,570,4,1,1,2,2,32,128,164,,,,,,0,130,130,130,,,,,,,,,,,,,,,,,,,,,,,,,,,,,,,,,,,,,,,,,,,,,,,,,,,,,,,,,877.5495026999997,878.0550402000008,878.0550402000008,878.8046945999995,878.8046945999995,879.3045526999995,879.3045526999995,880.1570568000006,880.1570568000006,None,num_6,0.3624633999988873,880.1570568000006,None,sad,1,Happy,880.5375447000006,None,space,880.5375447000006,None,64.36429440000029,,,,,,,,,,,,,,,,,,,,,,,,,,,,,,,,,,,,,,,,,,,,,,,,,,,,35,001,0,25,450,320,2022_Oct_31_1346,Experiment,2021.1.4,359.90771966766965,
images\S5_F_S_01.png,images\S5_F_S_01_scrambled.png,5,sad,-10,female,3,,388,off,1,0.5,0.75,0.5,0.917,3,387,1,1,1,0,0,0,0,3,,,,,,0,131,131,131,,,,,,,,,,,,,,,,,,,,,,,,,,,,,,,,,,,,,,,,,,,,,,,,,,,,,,,,,944.9592026000009,945.4620249,945.4620249,946.2116841000006,946.2116841000006,946.7143025999994,946.7143025999994,947.6306616000002,947.6306616000002,None,num_4,1.223912499999642,947.6306616000002,None,happy,1,Sad,948.8663990000001,None,None,948.8663990000001,None,,,,,,,,,,,,,,,,,,,,,,,,,,,,,,,,,,,,,,,,,,,,,,,,,,,,,35,001,0,25,450,320,2022_Oct_31_1346,Experiment,2021.1.4,359.90771966766965,
images\S7_F_S_02.png,images\S7_F_S_02_scrambled.png,7,sad,-20,female,2,,221,on,2,0.5,0.75,0.5,0.787,3,220,1,1,1,2,2,32,128,162,,,,,,0,132,132,132,,,,,,,,,,,,,,,,,,,,,,,,,,,,,,,,,,,,,,,,,,,,,,,,,,,,,,,,,948.913595,949.4163515,949.4163515,950.1659980000004,950.1659980000004,950.6658427000002,950.6658427000002,951.4601347000007,951.4601347000007,None,num_6,0.49880790000133857,951.4601347000007,None,sad,1,Sad,951.9822262000014,None,None,951.9822262000014,None,,,,,,,,,,,,,,,,,,,,,,,,,,,,,,,,,,,,,,,,,,,,,,,,,,,,,35,001,0,25,450,320,2022_Oct_31_1346,Experiment,2021.1.4,359.90771966766965,
images\S5_F_H_01.png,images\S5_F_H_01_scrambled.png,5,happy,10,female,4,,145,off,1,0.5,0.75,0.5,0.833,3,144,1,1,1,0,0,0,0,4,,,,,,0,133,133,133,,,,,,,,,,,,,,,,,,,,,,,,,,,,,,,,,,,,,,,,,,,,,,,,,,,,,,,,,952.0320824999999,952.5375586000009,952.5375586000009,953.2928663000002,953.2928663000002,953.7982413000009,953.7982413000009,954.6340853000002,954.6340853000002,None,num_4,0.2923888999994233,954.6340853000002,None,happy,1,Happy,954.9423038000001,None,None,954.9423038000001,None,,,,,,,,,,,,,,,,,,,,,,,,,,,,,,,,,,,,,,,,,,,,,,,,,,,,,35,001,0,25,450,320,2022_Oct_31_1346,Experiment,2021.1.4,359.90771966766965,
images\S6_M_S_02.png,images\S6_M_S_02_scrambled.png,6,sad,-20,male,2,,215,on,2,0.5,0.75,0.5,0.844,3,214,1,1,1,2,2,32,128,162,,,,,,0,134,134,134,,,,,,,,,,,,,,,,,,,,,,,,,,,,,,,,,,,,,,,,,,,,,,,,,,,,,,,,,954.9895128000007,955.4921441999995,955.4921441999995,956.2475832,956.2475832,956.7528940000011,956.7528940000011,957.6026593999995,957.6026593999995,None,num_6,0.33180390000052284,957.6026593999995,None,sad,1,Sad,957.9524976000002,None,None,957.9524976000002,None,,,,,,,,,,,,,,,,,,,,,,,,,,,,,,,,,,,,,,,,,,,,,,,,,,,,,35,001,0,25,450,320,2022_Oct_31_1346,Experiment,2021.1.4,359.90771966766965,
images\S9_F_H_03.png,images\S9_F_H_03_scrambled.png,9,happy,30,female,6,,591,on,2,0.5,0.75,0.5,0.814,3,590,2,1,1,2,2,32,128,166,,,,,,0,135,135,135,,,,,,,,,,,,,,,,,,,,,,,,,,,,,,,,,,,,,,,,,,,,,,,,,,,,,,,,,958.0024579000001,958.5079072000008,958.5079072000008,959.263228400001,959.263228400001,959.768628400001,959.768628400001,960.5850112999997,960.5850112999997,None,num_4,0.3738499999999476,960.5850112999997,None,happy,1,Happy,960.9737526999994,None,None,960.9737526999994,None,,,,,,,,,,,,,,,,,,,,,,,,,,,,,,,,,,,,,,,,,,,,,,,,,,,,,35,001,0,25,450,320,2022_Oct_31_1346,Experiment,2021.1.4,359.90771966766965,
images\S6_M_S_01.png,images\S6_M_S_01_scrambled.png,6,sad,-10,male,3,,334,on,2,0.5,0.75,0.5,0.922,3,333,3,1,1,2,2,32,128,163,,,,,,0,136,136,136,,,,,,,,,,,,,,,,,,,,,,,,,,,,,,,,,,,,,,,,,,,,,,,,,,,,,,,,,961.0376430000015,961.5430891999986,961.5430891999986,962.298367100002,962.298367100002,962.8009865000004,962.8009865000004,963.7285114999995,963.7285114999995,None,num_6,0.37394920000224374,963.7285114999995,None,sad,1,Sad,964.1172369000011,None,None,964.1172369000011,None,,,,,,,,,,,,,,,,,,,,,,,,,,,,,,,,,,,,,,,,,,,,,,,,,,,,,35,001,0,25,450,320,2022_Oct_31_1346,Experiment,2021.1.4,359.90771966766965,
images\S1_F_S_03.png,images\S1_F_S_03_scrambled.png,1,sad,-30,female,1,,186,on,2,0.5,0.75,0.5,0.882,3,185,4,1,1,2,2,32,128,161,,,,,,0,137,137,137,,,,,,,,,,,,,,,,,,,,,,,,,,,,,,,,,,,,,,,,,,,,,,,,,,,,,,,,,964.1644514000018,964.6698766999998,964.6698766999998,965.4224214000005,965.4224214000005,965.9278107000009,965.9278107000009,966.8136743999985,966.8136743999985,None,num_6,0.360767099999066,966.8136743999985,None,sad,1,Sad,967.1913023000012,None,None,967.1913023000012,None,,,,,,,,,,,,,,,,,,,,,,,,,,,,,,,,,,,,,,,,,,,,,,,,,,,,,35,001,0,25,450,320,2022_Oct_31_1346,Experiment,2021.1.4,359.90771966766965,
images\S2_M_H_01.png,images\S2_M_H_01_scrambled.png,2,happy,10,male,4,,187,on,2,0.5,0.75,0.5,0.927,3,186,5,1,1,2,2,32,128,164,,,,,,0,138,138,138,,,,,,,,,,,,,,,,,,,,,,,,,,,,,,,,,,,,,,,,,,,,,,,,,,,,,,,,,967.2385572000003,967.7411274999995,967.7411274999995,968.490902399999,968.490902399999,968.9935592999991,968.9935592999991,969.9267108000004,969.9267108000004,None,num_4,0.47162830000161193,969.9267108000004,None,happy,1,Happy,970.4236733000008,None,None,970.4236733000008,None,,,,,,,,,,,,,,,,,,,,,,,,,,,,,,,,,,,,,,,,,,,,,,,,,,,,,35,001,0,25,450,320,2022_Oct_31_1346,Experiment,2021.1.4,359.90771966766965,
images\S1_F_S_03.png,images\S1_F_S_03_scrambled.png,1,sad,-30,female,1,,126,off,1,0.5,0.75,0.5,0.766,3,125,1,1,1,0,0,0,0,1,,,,,,0,139,139,139,,,,,,,,,,,,,,,,,,,,,,,,,,,,,,,,,,,,,,,,,,,,,,,,,,,,,,,,,970.4875052000007,970.9901230000014,970.9901230000014,971.7427489999991,971.7427489999991,972.2481179000006,972.2481179000006,973.0200587999989,973.0200587999989,None,num_6,0.4667909000017971,973.0200587999989,None,sad,1,Sad,973.5060887999992,None,None,973.5060887999992,None,,,,,,,,,,,,,,,,,,,,,,,,,,,,,,,,,,,,,,,,,,,,,,,,,,,,,35,001,0,25,450,320,2022_Oct_31_1346,Experiment,2021.1.4,359.90771966766965,
