image_face,image_scram,avatar,emo,emotion,sex,trigeeg,dac,trial_no,NMES,stimtime,baseline,iti,face,scr_face,resp_time,index,count_NMES,count_avatar,count_emotion,dac1,dac2,dac1_output,dac2_output,trigs_out,nmes,practice_trials.thisRepN,practice_trials.thisTrialN,practice_trials.thisN,practice_trials.thisIndex,real_trials.thisRepN,real_trials.thisTrialN,real_trials.thisN,real_trials.thisIndex,trials.thisRepN,trials.thisTrialN,trials.thisN,trials.thisIndex,position,Welcome.started,Welcome.stopped,Welcome_resp.keys,Welcome_resp.rt,text_2.started,text_2.stopped,form_2.index,form_2.itemText,form_2.type,form_2.response,form_2.rt,key_resp_4.keys,key_resp_4.rt,key_resp_4.started,key_resp_4.stopped,instructions.started,instructions.stopped,end_instr.keys,end_instr.rt,instructions_2.started,instructions_2.stopped,end_instr_2.keys,end_instr_2.rt,end_instr_2.started,end_instr_2.stopped,instruct_keypress.started,instruct_keypress.stopped,end_instruct_keypress.keys,end_instruct_keypress.rt,start_practice.started,start_practice.stopped,start_practice_resp.keys,start_practice_resp.rt,prac_baseline.started,prac_baseline.stopped,prac_iti.started,prac_iti.stopped,prac_stimulus.started,prac_stimulus.stopped,prac_scram_stim.started,prac_scram_stim.stopped,prac_stimulus_resp.started,prac_stimulus_resp.stopped,prac_resp.keys,prac_resp.rt,prac_resp.started,prac_resp.stopped,transition_to_real.started,transition_to_real.stopped,end_transition_to_real.keys,end_transition_to_real.rt,fixation_cross.started,fixation_cross.stopped,tr_iti.started,tr_iti.stopped,stimulus.started,stimulus.stopped,scram_stim.started,scram_stim.stopped,response_txt.started,response_txt.stopped,response.keys,response.rt,response.started,response.stopped,participant_Resp,grouping,corAnswer,break_msg.started,break_msg.stopped,end_break.keys,end_break.started,end_break.stopped,end_break.rt,text.started,text.stopped,key_resp_3.keys,key_resp_3.rt,key_resp_3.started,key_resp_3.stopped,fix_cross_comf.started,fix_cross_comf.stopped,stimulation_comf.started,stimulation_comf.stopped,rate_instr.started,rate_instr.stopped,comfort_rating.response,comfort_rating.rt,comfort_rating.started,comfort_rating.stopped,resp_form.keys,resp_form.rt,resp_form.started,resp_form.stopped,survey_instructions.started,survey_instructions.stopped,key_resp_2.keys,key_resp_2.rt,key_resp_2.started,key_resp_2.stopped,form.index,form.itemText,form.type,form.response,form.rt,key_resp.keys,key_resp.rt,key_resp.started,key_resp.stopped,text_3.started,text_3.stopped,rate_smile.response,rate_smile.rt,rate_smile.started,rate_smile.stopped,key_resp_5.keys,key_resp_5.rt,key_resp_5.started,key_resp_5.stopped,end_msg.started,end_msg.stopped,end_resp.keys,end_resp.rt,end_resp.started,end_resp.stopped,participant,session,gender,age,LEFT,RIGHT,date,expName,psychopyVersion,frameRate,
,,,,,,,,,,,,,,,,,,,,,,,,,,,,,,,,,,,,,,S-H,108.67474419999962,None,num_add,4.9845719000004465,,,,,,,,,,,,,,,,,,,,,,,,,,,,,,,,,,,,,,,,,,,,,,,,,,,,,,,,,,,,,,,,,,,,,,,,,,,,,,,,,,,,,,,,,,,,,,,,,,,,,,,,,,,,,,,,,,,,,,,,,,36,001,1,20,450,400,2022_Nov_01_1315,Experiment,2021.1.4,359.90901499429964,
,,,,,,,,,,,,,,,,,,,,,,,,,,,,,,,,,,,,,,,,,,,113.68051610000111,115.72435840000071,1,"This scale consistes of a number of words that describe different feelings and emotion. Read each item and then list the number from the scale below each word. Indicate (by clicking) to what extend you feel this way RIGHT NOW, that is, AT THE PRESENT MOMENT.",description,,,,,,,,,,,,,,,,,,,,,,,,,,,,,,,,,,,,,,,,,,,,,,,,,,,,,,,,,,,,,,,,,,,,,,,,,,,,,,,,,,,,,,,,,,,,,,,,,,,,,,,,,,,,,,,,,,,,,36,001,1,20,450,400,2022_Nov_01_1315,Experiment,2021.1.4,359.90901499429964,
,,,,,,,,,,,,,,,,,,,,,,,,,,,,,,,,,,,,,,,,,,,,,2,Interested,rating,4.0,19.23955070000011,,,,,,,,,,,,,,,,,,,,,,,,,,,,,,,,,,,,,,,,,,,,,,,,,,,,,,,,,,,,,,,,,,,,,,,,,,,,,,,,,,,,,,,,,,,,,,,,,,,,,,,,,,,,,,,,,,,36,001,1,20,450,400,2022_Nov_01_1315,Experiment,2021.1.4,359.90901499429964,
,,,,,,,,,,,,,,,,,,,,,,,,,,,,,,,,,,,,,,,,,,,,,3,Distressed,rating,1.0,22.3945963999995,,,,,,,,,,,,,,,,,,,,,,,,,,,,,,,,,,,,,,,,,,,,,,,,,,,,,,,,,,,,,,,,,,,,,,,,,,,,,,,,,,,,,,,,,,,,,,,,,,,,,,,,,,,,,,,,,,,36,001,1,20,450,400,2022_Nov_01_1315,Experiment,2021.1.4,359.90901499429964,
,,,,,,,,,,,,,,,,,,,,,,,,,,,,,,,,,,,,,,,,,,,,,4,Excited,rating,2.0,27.162922100000287,,,,,,,,,,,,,,,,,,,,,,,,,,,,,,,,,,,,,,,,,,,,,,,,,,,,,,,,,,,,,,,,,,,,,,,,,,,,,,,,,,,,,,,,,,,,,,,,,,,,,,,,,,,,,,,,,,,36,001,1,20,450,400,2022_Nov_01_1315,Experiment,2021.1.4,359.90901499429964,
,,,,,,,,,,,,,,,,,,,,,,,,,,,,,,,,,,,,,,,,,,,,,5,Upset,rating,1.0,32.507771099999445,,,,,,,,,,,,,,,,,,,,,,,,,,,,,,,,,,,,,,,,,,,,,,,,,,,,,,,,,,,,,,,,,,,,,,,,,,,,,,,,,,,,,,,,,,,,,,,,,,,,,,,,,,,,,,,,,,,36,001,1,20,450,400,2022_Nov_01_1315,Experiment,2021.1.4,359.90901499429964,
,,,,,,,,,,,,,,,,,,,,,,,,,,,,,,,,,,,,,,,,,,,,,6,Strong,rating,3.0,35.329895199998646,,,,,,,,,,,,,,,,,,,,,,,,,,,,,,,,,,,,,,,,,,,,,,,,,,,,,,,,,,,,,,,,,,,,,,,,,,,,,,,,,,,,,,,,,,,,,,,,,,,,,,,,,,,,,,,,,,,36,001,1,20,450,400,2022_Nov_01_1315,Experiment,2021.1.4,359.90901499429964,
,,,,,,,,,,,,,,,,,,,,,,,,,,,,,,,,,,,,,,,,,,,,,7,Guilty,rating,1.0,7.704371800000445,,,,,,,,,,,,,,,,,,,,,,,,,,,,,,,,,,,,,,,,,,,,,,,,,,,,,,,,,,,,,,,,,,,,,,,,,,,,,,,,,,,,,,,,,,,,,,,,,,,,,,,,,,,,,,,,,,,36,001,1,20,450,400,2022_Nov_01_1315,Experiment,2021.1.4,359.90901499429964,
,,,,,,,,,,,,,,,,,,,,,,,,,,,,,,,,,,,,,,,,,,,,,8,Scared,rating,1.0,9.741996199998539,,,,,,,,,,,,,,,,,,,,,,,,,,,,,,,,,,,,,,,,,,,,,,,,,,,,,,,,,,,,,,,,,,,,,,,,,,,,,,,,,,,,,,,,,,,,,,,,,,,,,,,,,,,,,,,,,,,36,001,1,20,450,400,2022_Nov_01_1315,Experiment,2021.1.4,359.90901499429964,
,,,,,,,,,,,,,,,,,,,,,,,,,,,,,,,,,,,,,,,,,,,,,9,Hostile,rating,1.0,9.449944500000129,,,,,,,,,,,,,,,,,,,,,,,,,,,,,,,,,,,,,,,,,,,,,,,,,,,,,,,,,,,,,,,,,,,,,,,,,,,,,,,,,,,,,,,,,,,,,,,,,,,,,,,,,,,,,,,,,,,36,001,1,20,450,400,2022_Nov_01_1315,Experiment,2021.1.4,359.90901499429964,
,,,,,,,,,,,,,,,,,,,,,,,,,,,,,,,,,,,,,,,,,,,,,10,Enthusiastic,rating,2.0,6.460308300000179,,,,,,,,,,,,,,,,,,,,,,,,,,,,,,,,,,,,,,,,,,,,,,,,,,,,,,,,,,,,,,,,,,,,,,,,,,,,,,,,,,,,,,,,,,,,,,,,,,,,,,,,,,,,,,,,,,,36,001,1,20,450,400,2022_Nov_01_1315,Experiment,2021.1.4,359.90901499429964,
,,,,,,,,,,,,,,,,,,,,,,,,,,,,,,,,,,,,,,,,,,,,,11,Proud,rating,3.0,8.7768331999996,,,,,,,,,,,,,,,,,,,,,,,,,,,,,,,,,,,,,,,,,,,,,,,,,,,,,,,,,,,,,,,,,,,,,,,,,,,,,,,,,,,,,,,,,,,,,,,,,,,,,,,,,,,,,,,,,,,36,001,1,20,450,400,2022_Nov_01_1315,Experiment,2021.1.4,359.90901499429964,
,,,,,,,,,,,,,,,,,,,,,,,,,,,,,,,,,,,,,,,,,,,,,12,Irritable,rating,1.0,11.170999899999515,,,,,,,,,,,,,,,,,,,,,,,,,,,,,,,,,,,,,,,,,,,,,,,,,,,,,,,,,,,,,,,,,,,,,,,,,,,,,,,,,,,,,,,,,,,,,,,,,,,,,,,,,,,,,,,,,,,36,001,1,20,450,400,2022_Nov_01_1315,Experiment,2021.1.4,359.90901499429964,
,,,,,,,,,,,,,,,,,,,,,,,,,,,,,,,,,,,,,,,,,,,,,13,Alert,rating,4.0,9.810568500000954,,,,,,,,,,,,,,,,,,,,,,,,,,,,,,,,,,,,,,,,,,,,,,,,,,,,,,,,,,,,,,,,,,,,,,,,,,,,,,,,,,,,,,,,,,,,,,,,,,,,,,,,,,,,,,,,,,,36,001,1,20,450,400,2022_Nov_01_1315,Experiment,2021.1.4,359.90901499429964,
,,,,,,,,,,,,,,,,,,,,,,,,,,,,,,,,,,,,,,,,,,,,,14,Ashamed,rating,1.0,11.942631900001288,,,,,,,,,,,,,,,,,,,,,,,,,,,,,,,,,,,,,,,,,,,,,,,,,,,,,,,,,,,,,,,,,,,,,,,,,,,,,,,,,,,,,,,,,,,,,,,,,,,,,,,,,,,,,,,,,,,36,001,1,20,450,400,2022_Nov_01_1315,Experiment,2021.1.4,359.90901499429964,
,,,,,,,,,,,,,,,,,,,,,,,,,,,,,,,,,,,,,,,,,,,,,15,Inspired,rating,2.0,9.670646700000361,,,,,,,,,,,,,,,,,,,,,,,,,,,,,,,,,,,,,,,,,,,,,,,,,,,,,,,,,,,,,,,,,,,,,,,,,,,,,,,,,,,,,,,,,,,,,,,,,,,,,,,,,,,,,,,,,,,36,001,1,20,450,400,2022_Nov_01_1315,Experiment,2021.1.4,359.90901499429964,
,,,,,,,,,,,,,,,,,,,,,,,,,,,,,,,,,,,,,,,,,,,,,16,Nervous,rating,2.0,9.507100900000296,,,,,,,,,,,,,,,,,,,,,,,,,,,,,,,,,,,,,,,,,,,,,,,,,,,,,,,,,,,,,,,,,,,,,,,,,,,,,,,,,,,,,,,,,,,,,,,,,,,,,,,,,,,,,,,,,,,36,001,1,20,450,400,2022_Nov_01_1315,Experiment,2021.1.4,359.90901499429964,
,,,,,,,,,,,,,,,,,,,,,,,,,,,,,,,,,,,,,,,,,,,,,17,Determined,rating,4.0,9.153456399999413,,,,,,,,,,,,,,,,,,,,,,,,,,,,,,,,,,,,,,,,,,,,,,,,,,,,,,,,,,,,,,,,,,,,,,,,,,,,,,,,,,,,,,,,,,,,,,,,,,,,,,,,,,,,,,,,,,,36,001,1,20,450,400,2022_Nov_01_1315,Experiment,2021.1.4,359.90901499429964,
,,,,,,,,,,,,,,,,,,,,,,,,,,,,,,,,,,,,,,,,,,,,,18,Attentive,rating,4.0,9.540001000001212,,,,,,,,,,,,,,,,,,,,,,,,,,,,,,,,,,,,,,,,,,,,,,,,,,,,,,,,,,,,,,,,,,,,,,,,,,,,,,,,,,,,,,,,,,,,,,,,,,,,,,,,,,,,,,,,,,,36,001,1,20,450,400,2022_Nov_01_1315,Experiment,2021.1.4,359.90901499429964,
,,,,,,,,,,,,,,,,,,,,,,,,,,,,,,,,,,,,,,,,,,,,,19,Jittery,rating,3.0,11.805180200000905,,,,,,,,,,,,,,,,,,,,,,,,,,,,,,,,,,,,,,,,,,,,,,,,,,,,,,,,,,,,,,,,,,,,,,,,,,,,,,,,,,,,,,,,,,,,,,,,,,,,,,,,,,,,,,,,,,,36,001,1,20,450,400,2022_Nov_01_1315,Experiment,2021.1.4,359.90901499429964,
,,,,,,,,,,,,,,,,,,,,,,,,,,,,,,,,,,,,,,,,,,,,,20,Active,rating,3.0,10.937721700000111,,,,,,,,,,,,,,,,,,,,,,,,,,,,,,,,,,,,,,,,,,,,,,,,,,,,,,,,,,,,,,,,,,,,,,,,,,,,,,,,,,,,,,,,,,,,,,,,,,,,,,,,,,,,,,,,,,,36,001,1,20,450,400,2022_Nov_01_1315,Experiment,2021.1.4,359.90901499429964,
,,,,,,,,,,,,,,,,,,,,,,,,,,,,,,,,,,,,,,,,,,,,,21,Afraid,rating,1.0,9.552316100000098,,,,,,,,,,,,,,,,,,,,,,,,,,,,,,,,,,,,,,,,,,,,,,,,,,,,,,,,,,,,,,,,,,,,,,,,,,,,,,,,,,,,,,,,,,,,,,,,,,,,,,,,,,,,,,,,,,,36,001,1,20,450,400,2022_Nov_01_1315,Experiment,2021.1.4,359.90901499429964,
,,,,,,,,,,,,,,,,,,,,,,,,,,,,,,,,,,,,,,,,,,,,,22,Press the + button to submit your answers,description,,,,,,,,,,,,,,,,,,,,,,,,,,,,,,,,,,,,,,,,,,,,,,,,,,,,,,,,,,,,,,,,,,,,,,,,,,,,,,,,,,,,,,,,,,,,,,,,,,,,,,,,,,,,,,,,,,,,,36,001,1,20,450,400,2022_Nov_01_1315,Experiment,2021.1.4,359.90901499429964,
,,,,,,,,,,,,,,,,,,,,,,,,,,,,,,,,,,,,,,,,,,,,,,,,,,num_add,73.21005610000066,123.70522340000025,None,,,,,,,,,,,,,,,,,,,,,,,,,,,,,,,,,,,,,,,,,,,,,,,,,,,,,,,,,,,,,,,,,,,,,,,,,,,,,,,,,,,,,,,,,,,,,,,,,,,,,,,,,,,,,,,36,001,1,20,450,400,2022_Nov_01_1315,Experiment,2021.1.4,359.90901499429964,
,,,,,,,,,,,,,,,,,,,,,,,,,,,,,,,,,,,,,,,,,,,,,,,,,,,,,,196.93829650000043,None,num_add,15.136824899998828,,,,,,,,,,,,,,,,,,,,,,,,,,,,,,,,,,,,,,,,,,,,,,,,,,,,,,,,,,,,,,,,,,,,,,,,,,,,,,,,,,,,,,,,,,,,,,,,,,,,,,,,,,,36,001,1,20,450,400,2022_Nov_01_1315,Experiment,2021.1.4,359.90901499429964,
,,,,,,,,,,,,,,,,,,,,,,,,,,,,,,,,,,,,,,,,,,,,,,,,,,,,,,,,,,212.08351840000068,None,num_add,15.015646100000595,212.08351840000068,None,,,,,,,,,,,,,,,,,,,,,,,,,,,,,,,,,,,,,,,,,,,,,,,,,,,,,,,,,,,,,,,,,,,,,,,,,,,,,,,,,,,,,,,,,,,,,,,,,,,,,36,001,1,20,450,400,2022_Nov_01_1315,Experiment,2021.1.4,359.90901499429964,
,,,,,,,,,,,,,,,,,,,,,,,,,,,,,,,,,,,,,,,,,,,,,,,,,,,,,,,,,,,,,,,,227.12054820000048,None,num_add,12.442612400000144,,,,,,,,,,,,,,,,,,,,,,,,,,,,,,,,,,,,,,,,,,,,,,,,,,,,,,,,,,,,,,,,,,,,,,,,,,,,,,,,,,,,,,,,,,,,,,,,,36,001,1,20,450,400,2022_Nov_01_1315,Experiment,2021.1.4,359.90901499429964,
,,,,,,,,,,,,,,,,,,,,,,,,,,,,,,,,,,,,,,,,,,,,,,,,,,,,,,,,,,,,,,,,,,,,239.57503739999993,None,space,52.53229739999915,,,,,,,,,,,,,,,,,,,,,,,,,,,,,,,,,,,,,,,,,,,,,,,,,,,,,,,,,,,,,,,,,,,,,,,,,,,,,,,,,,,,,,,,,,,,,36,001,1,20,450,400,2022_Nov_01_1315,Experiment,2021.1.4,359.90901499429964,
images\S22_M_S_03.png,images\S22_M_S_03_scrambled.png,22,Sad,0.3,M,0,0,practice,on,2,0.5,0.75,0.5,0.794,3,,,,,,,,,,,0,0,0,7,,,,,,,,,,,,,,,,,,,,,,,,,,,,,,,,,,,,,,,,,,,292.2892565000002,292.7947578000003,292.7947578000003,293.5500690000008,293.5500690000008,294.05270159999964,294.05270159999964,294.8496885000004,294.8496885000004,None,num_4,1.3218127000000095,294.8496885000004,None,,,,,,,,,,,,,,,,,,,,,,,,,,,,,,,,,,,,,,,,,,,,,,,,,,,,,,,,,,,,,,,,,,,,,,,,,,,,,,,36,001,1,20,450,400,2022_Nov_01_1315,Experiment,2021.1.4,359.90901499429964,
images\S21_F_H_02.png,images\S21_F_H_02_scrambled.png,21,Happy,-0.2,F,0,0,practice,off,1,0.5,0.75,0.5,0.91,3,,,,,,,,,,,0,1,1,1,,,,,,,,,,,,,,,,,,,,,,,,,,,,,,,,,,,,,,,,,,,296.2603168000005,296.7658487000008,296.7658487000008,297.51829010000074,297.51829010000074,298.02368190000016,298.02368190000016,298.93730959999994,298.93730959999994,None,num_4,1.0343069999998988,298.93730959999994,None,,,,,,,,,,,,,,,,,,,,,,,,,,,,,,,,,,,,,,,,,,,,,,,,,,,,,,,,,,,,,,,,,,,,,,,,,,,,,,,36,001,1,20,450,400,2022_Nov_01_1315,Experiment,2021.1.4,359.90901499429964,
images\S22_M_H_02.png,images\S22_M_H_02_scrambled.png,22,Happy,-0.2,M,0,0,practice,off,1,0.5,0.75,0.5,0.883,3,,,,,,,,,,,0,2,2,2,,,,,,,,,,,,,,,,,,,,,,,,,,,,,,,,,,,,,,,,,,,300.06470420000005,300.57011749999947,300.57011749999947,301.32264100000066,301.32264100000066,301.82818210000005,301.82818210000005,302.71402040000066,302.71402040000066,None,num_6,0.609529699999257,302.71402040000066,None,,,,,,,,,,,,,,,,,,,,,,,,,,,,,,,,,,,,,,,,,,,,,,,,,,,,,,,,,,,,,,,,,,,,,,,,,,,,,,,36,001,1,20,450,400,2022_Nov_01_1315,Experiment,2021.1.4,359.90901499429964,
images\S22_M_S_02.png,images\S22_M_S_02_scrambled.png,22,Sad,0.2,M,0,0,practice,on,2,0.5,0.75,0.5,0.783,3,,,,,,,,,,,0,3,3,6,,,,,,,,,,,,,,,,,,,,,,,,,,,,,,,,,,,,,,,,,,,303.41367139999966,303.9190802000012,303.9190802000012,304.67173300000104,304.67173300000104,305.1771473000008,305.1771473000008,305.9629619999996,305.9629619999996,None,num_4,0.5926675999999134,305.9629619999996,None,,,,,,,,,,,,,,,,,,,,,,,,,,,,,,,,,,,,,,,,,,,,,,,,,,,,,,,,,,,,,,,,,,,,,,,,,,,,,,,36,001,1,20,450,400,2022_Nov_01_1315,Experiment,2021.1.4,359.90901499429964,
images\S22_M_S_01.png,images\S22_M_S_01_scrambled.png,22,Sad,0.1,M,0,0,practice,on,2,0.5,0.75,0.5,0.867,3,,,,,,,,,,,0,4,4,5,,,,,,,,,,,,,,,,,,,,,,,,,,,,,,,,,,,,,,,,,,,306.6460048000008,307.15141030000086,307.15141030000086,307.90413760000047,307.90413760000047,308.40939100000105,308.40939100000105,309.28128860000106,309.28128860000106,None,num_4,2.6262333000013314,309.28128860000106,None,,,,,,,,,,,,,,,,,,,,,,,,,,,,,,,,,,,,,,,,,,,,,,,,,,,,,,,,,,,,,,,,,,,,,,,,,,,,,,,36,001,1,20,450,400,2022_Nov_01_1315,Experiment,2021.1.4,359.90901499429964,
images\S21_F_H_01.png,images\S21_F_H_01_scrambled.png,21,Happy,-0.1,F,0,0,practice,off,1,0.5,0.75,0.5,0.853,3,,,,,,,,,,,0,5,5,0,,,,,,,,,,,,,,,,,,,,,,,,,,,,,,,,,,,,,,,,,,,311.9971306999996,312.4998718000006,312.4998718000006,313.24952029999986,313.24952029999986,313.7550628000008,313.7550628000008,314.6130049000003,314.6130049000003,None,num_6,0.7906062000001839,314.6130049000003,None,,,,,,,,,,,,,,,,,,,,,,,,,,,,,,,,,,,,,,,,,,,,,,,,,,,,,,,,,,,,,,,,,,,,,,,,,,,,,,,36,001,1,20,450,400,2022_Nov_01_1315,Experiment,2021.1.4,359.90901499429964,
images\S22_M_S_02.png,images\S22_M_S_02_scrambled.png,22,Sad,0.2,M,0,0,practice,off,1,0.5,0.75,0.5,0.751,3,,,,,,,,,,,0,6,6,3,,,,,,,,,,,,,,,,,,,,,,,,,,,,,,,,,,,,,,,,,,,315.4710476,315.97649470000033,315.97649470000033,316.7318157000009,316.7318157000009,317.23720499999945,317.23720499999945,317.9925261999997,317.9925261999997,None,num_6,1.115190700000312,317.9925261999997,None,,,,,,,,,,,,,,,,,,,,,,,,,,,,,,,,,,,,,,,,,,,,,,,,,,,,,,,,,,,,,,,,,,,,,,,,,,,,,,,36,001,1,20,450,400,2022_Nov_01_1315,Experiment,2021.1.4,359.90901499429964,
images\S22_M_S_03.png,images\S22_M_S_03_scrambled.png,22,Sad,0.3,M,0,0,practice,on,2,0.5,0.75,0.5,0.87,3,,,,,,,,,,,0,7,7,4,,,,,,,,,,,,,,,,,,,,,,,,,,,,,,,,,,,,,,,,,,,319.16158859999996,319.66700110000056,319.66700110000056,320.41954240000086,320.41954240000086,320.9194000999996,320.9194000999996,321.7941883000003,321.7941883000003,None,num_4,0.41733620000013616,321.7941883000003,None,,,,,,,,,,,,,,,,,,,,,,,,,,,,,,,,,,,,,,,,,,,,,,,,,,,,,,,,,,,,,,,,,,,,,,,,,,,,,,,36,001,1,20,450,400,2022_Nov_01_1315,Experiment,2021.1.4,359.90901499429964,
,,,,,,,,,,,,,,,,,,,,,,,,,,,,,,,,,,,,,,,,,,,,,,,,,,,,,,,,,,,,,,,,,,,,,,,,,,,,,,,,,,,,,,322.2411900999996,None,space,63.98593240000082,,,,,,,,,,,,,,,,,,,,,,,,,,,,,,,,,,,,,,,,,,,,,,,,,,,,,,,,,,,,,,,,,,,,,,,,,,,36,001,1,20,450,400,2022_Nov_01_1315,Experiment,2021.1.4,359.90901499429964,
images\S7_F_H_01.png,images\S7_F_H_01_scrambled.png,7,happy,10,female,4,,277,off,1,0.5,0.75,0.5,0.868,3,276,1,1,1,0,0,0,0,4,,,,,,0,0,0,0,,,,,,,,,,,,,,,,,,,,,,,,,,,,,,,,,,,,,,,,,,,,,,,,,,,,,,,,,386.74081920000026,387.2461387000003,387.2461387000003,387.9986917999995,387.9986917999995,388.5040996000007,388.5040996000007,389.378894200001,389.378894200001,None,num_4,0.9047429000002012,389.378894200001,None,sad,0,Happy,390.3007330999999,None,None,390.3007330999999,None,,,,,,,,,,,,,,,,,,,,,,,,,,,,,,,,,,,,,,,,,,,,,,,,,,,,,36,001,1,20,450,400,2022_Nov_01_1315,Experiment,2021.1.4,359.90901499429964,
images\S3_F_H_02.png,images\S3_F_H_02_scrambled.png,3,happy,20,female,5,,494,off,1,0.5,0.75,0.5,0.936,3,493,2,1,1,0,0,0,0,5,,,,,,0,1,1,1,,,,,,,,,,,,,,,,,,,,,,,,,,,,,,,,,,,,,,,,,,,,,,,,,,,,,,,,,390.41180650000024,390.9144357999994,390.9144357999994,391.66980030000013,391.66980030000013,392.17242609999994,392.17242609999994,393.11383790000036,393.11383790000036,None,num_6,0.6415909999996074,393.11383790000036,None,happy,0,Happy,393.76914045999985,None,None,393.76914045999985,None,,,,,,,,,,,,,,,,,,,,,,,,,,,,,,,,,,,,,,,,,,,,,,,,,,,,,36,001,1,20,450,400,2022_Nov_01_1315,Experiment,2021.1.4,359.90901499429964,
images\blank.jpg,images\blank.jpg,none,none,none,none,0,,629,on,2,0.5,0.75,0.5,0.906,0,628,1,1,1,3,3,48,192,240,,,,,,0,2,2,2,,,,,,,,,,,,,,,,,,,,,,,,,,,,,,,,,,,,,,,,,,,,,,,,,,,,,,,,,393.9028631000001,394.40502730000117,394.40502730000117,395.15479530000084,395.15479530000084,395.6546618000011,395.6546618000011,396.5599607000004,396.5599607000004,396.5599607000004,None,,396.5599607000004,None,miss,0,,399.56184618000077,None,None,399.56184618000077,None,,,,,,,,,,,,,,,,,,,,,,,,,,,,,,,,,,,,,,,,,,,,,,,,,,,,,36,001,1,20,450,400,2022_Nov_01_1315,Experiment,2021.1.4,359.90901499429964,
images\S3_F_S_02.png,images\S3_F_S_02_scrambled.png,3,sad,-20,female,2,,497,off,1,0.5,0.75,0.5,0.803,3,496,1,1,1,0,0,0,0,2,,,,,,0,3,3,3,,,,,,,,,,,,,,,,,,,,,,,,,,,,,,,,,,,,,,,,,,,,,,,,,,,,,,,,,399.7256888000011,400.23103509999964,400.23103509999964,400.98636050000096,400.98636050000096,401.4890852999997,401.4890852999997,402.2970567000011,402.2970567000011,None,num_4,0.6506939999999304,402.2970567000011,399.7256888000011,sad,0,Sad,402.9636164600004,None,None,402.9636164600004,None,,,,,,,,,,,,,,,,,,,,,,,,,,,,,,,,,,,,,,,,,,,,,,,,,,,,,36,001,1,20,450,400,2022_Nov_01_1315,Experiment,2021.1.4,359.90901499429964,
images\S5_F_H_03.png,images\S5_F_H_03_scrambled.png,5,happy,30,female,6,,507,off,1,0.5,0.75,0.5,0.911,3,506,2,1,1,0,0,0,0,6,,,,,,0,4,4,4,,,,,,,,,,,,,,,,,,,,,,,,,,,,,,,,,,,,,,,,,,,,,,,,,,,,,,,,,403.0440307000008,403.54956160000074,403.54956160000074,404.3019798999994,404.3019798999994,404.8074041,404.8074041,405.7209772999995,405.7209772999995,None,num_6,0.6424829999996291,405.7209772999995,None,happy,0,Happy,406.39039748000084,None,None,406.39039748000084,None,,,,,,,,,,,,,,,,,,,,,,,,,,,,,,,,,,,,,,,,,,,,,,,,,,,,,36,001,1,20,450,400,2022_Nov_01_1315,Experiment,2021.1.4,359.90901499429964,
images\blank.jpg,images\blank.jpg,none,none,none,none,0,,648,on,2,0.5,0.75,0.5,0.773,0,647,1,1,1,3,3,48,192,240,,,,,,0,5,5,5,,,,,,,,,,,,,,,,,,,,,,,,,,,,,,,,,,,,,,,,,,,,,,,,,,,,,,,,,406.4764914999996,406.9817404000005,406.9817404000005,407.7314813000012,407.7314813000012,408.23409150000043,408.23409150000043,409.0089026000005,409.0089026000005,409.0089026000005,None,,409.0089026000005,None,miss,0,,412.0135549800001,None,None,412.0135549800001,None,,,,,,,,,,,,,,,,,,,,,,,,,,,,,,,,,,,,,,,,,,,,,,,,,,,,,36,001,1,20,450,400,2022_Nov_01_1315,Experiment,2021.1.4,359.90901499429964,
images\S5_F_H_01.png,images\S5_F_H_01_scrambled.png,5,happy,10,female,4,,205,on,2,0.5,0.75,0.5,0.9,3,204,2,1,1,2,2,32,128,164,,,,,,0,6,6,6,,,,,,,,,,,,,,,,,,,,,,,,,,,,,,,,,,,,,,,,,,,,,,,,,,,,,,,,,412.1776479,412.6827625999995,412.6827625999995,413.4380732000009,413.4380732000009,413.9434706000011,413.9434706000011,414.8460821000008,414.8460821000008,None,num_6,0.6694853999997576,414.8460821000008,412.1776479,happy,0,Happy,415.52905536000145,None,None,415.52905536000145,None,,,,,,,,,,,,,,,,,,,,,,,,,,,,,,,,,,,,,,,,,,,,,,,,,,,,,36,001,1,20,450,400,2022_Nov_01_1315,Experiment,2021.1.4,359.90901499429964,
images\S6_M_S_03.png,images\S6_M_S_03_scrambled.png,6,sad,-30,male,1,,516,off,1,0.5,0.75,0.5,0.784,3,515,1,1,1,0,0,0,0,1,,,,,,0,7,7,7,,,,,,,,,,,,,,,,,,,,,,,,,,,,,,,,,,,,,,,,,,,,,,,,,,,,,,,,,415.6123779999998,416.11513829999967,416.11513829999967,416.8675581999996,416.8675581999996,417.37030159999995,417.37030159999995,418.15607199999977,418.15607199999977,None,num_4,0.607283199999074,418.15607199999977,None,sad,0,Sad,418.77805346000133,None,None,418.77805346000133,None,,,,,,,,,,,,,,,,,,,,,,,,,,,,,,,,,,,,,,,,,,,,,,,,,,,,,36,001,1,20,450,400,2022_Nov_01_1315,Experiment,2021.1.4,359.90901499429964,
images\S1_F_S_01.png,images\S1_F_S_01_scrambled.png,1,sad,-10,female,3,,4,off,1,0.5,0.75,0.5,0.853,3,3,2,1,1,0,0,0,0,3,,,,,,0,8,8,8,,,,,,,,,,,,,,,,,,,,,,,,,,,,,,,,,,,,,,,,,,,,,,,,,,,,,,,,,418.864151400001,419.36956250000003,419.36956250000003,420.1221043000005,420.1221043000005,420.62753630000043,420.62753630000043,421.4828252999996,421.4828252999996,None,num_6,0.7766787000000477,421.4828252999996,None,happy,0,Sad,422.2658614800006,None,None,422.2658614800006,None,,,,,,,,,,,,,,,,,,,,,,,,,,,,,,,,,,,,,,,,,,,,,,,,,,,,,36,001,1,20,450,400,2022_Nov_01_1315,Experiment,2021.1.4,359.90901499429964,
images\S3_F_H_03.png,images\S3_F_H_03_scrambled.png,3,happy,30,female,6,,315,on,2,0.5,0.75,0.5,0.752,3,314,1,1,1,2,2,32,128,166,,,,,,0,9,9,9,,,,,,,,,,,,,,,,,,,,,,,,,,,,,,,,,,,,,,,,,,,,,,,,,,,,,,,,,422.3491855000011,422.85468760000003,422.85468760000003,423.60436740000114,423.60436740000114,424.1098296,424.1098296,424.8651189000011,424.8651189000011,None,num_6,0.48241869999947085,424.8651189000011,None,happy,0,Happy,425.3704777200015,None,None,425.3704777200015,None,,,,,,,,,,,,,,,,,,,,,,,,,,,,,,,,,,,,,,,,,,,,,,,,,,,,,36,001,1,20,450,400,2022_Nov_01_1315,Experiment,2021.1.4,359.90901499429964,
images\S4_M_S_02.png,images\S4_M_S_02_scrambled.png,4,sad,-20,male,2,,23,off,1,0.5,0.75,0.5,0.753,3,22,1,1,1,0,0,0,0,2,,,,,,0,10,10,10,,,,,,,,,,,,,,,,,,,,,,,,,,,,,,,,,,,,,,,,,,,,,,,,,,,,,,,,,425.4815498000007,425.9869689999996,425.9869689999996,426.739614600001,426.739614600001,427.2421641000001,427.2421641000001,428.0002746000009,428.0002746000009,None,num_4,0.6589291999989655,428.0002746000009,None,sad,0,Sad,428.6750001999999,None,None,428.6750001999999,None,,,,,,,,,,,,,,,,,,,,,,,,,,,,,,,,,,,,,,,,,,,,,,,,,,,,,36,001,1,20,450,400,2022_Nov_01_1315,Experiment,2021.1.4,359.90901499429964,
images\S7_F_S_03.png,images\S7_F_S_03_scrambled.png,7,sad,-30,female,1,,102,on,2,0.5,0.75,0.5,0.813,3,101,1,1,1,2,2,32,128,161,,,,,,0,11,11,11,,,,,,,,,,,,,,,,,,,,,,,,,,,,,,,,,,,,,,,,,,,,,,,,,,,,,,,,,428.7805313000008,429.28595979999955,429.28595979999955,430.03852130000087,430.03852130000087,430.5440190999998,430.5440190999998,431.3603359000008,431.3603359000008,None,num_4,0.8510879999994359,431.3603359000008,None,sad,0,Sad,432.22391425999996,None,None,432.22391425999996,None,,,,,,,,,,,,,,,,,,,,,,,,,,,,,,,,,,,,,,,,,,,,,,,,,,,,,36,001,1,20,450,400,2022_Nov_01_1315,Experiment,2021.1.4,359.90901499429964,
images\S9_F_H_01.png,images\S9_F_H_01_scrambled.png,9,happy,10,female,4,,349,on,2,0.5,0.75,0.5,0.836,3,348,2,1,1,2,2,32,128,164,,,,,,0,12,12,12,,,,,,,,,,,,,,,,,,,,,,,,,,,,,,,,,,,,,,,,,,,,,,,,,,,,,,,,,432.30444499999976,432.8070848999996,432.8070848999996,433.55962890000046,433.55962890000046,434.0650526999998,434.0650526999998,434.90643790000104,434.90643790000104,None,num_6,0.4169144999996206,434.90643790000104,None,happy,0,Happy,435.33963876000126,None,None,435.33963876000126,None,,,,,,,,,,,,,,,,,,,,,,,,,,,,,,,,,,,,,,,,,,,,,,,,,,,,,36,001,1,20,450,400,2022_Nov_01_1315,Experiment,2021.1.4,359.90901499429964,
images\S7_F_H_02.png,images\S7_F_H_02_scrambled.png,7,happy,20,female,5,,218,on,2,0.5,0.75,0.5,0.947,3,217,3,1,1,2,2,32,128,165,,,,,,0,13,13,13,,,,,,,,,,,,,,,,,,,,,,,,,,,,,,,,,,,,,,,,,,,,,,,,,,,,,,,,,435.42292540000017,435.9255584000002,435.9255584000002,436.67813770000066,436.67813770000066,437.1807141999998,437.1807141999998,438.13326100000086,438.13326100000086,None,num_6,0.5422129999988101,438.13326100000086,None,happy,0,Happy,438.6914000000006,None,None,438.6914000000006,None,,,,,,,,,,,,,,,,,,,,,,,,,,,,,,,,,,,,,,,,,,,,,,,,,,,,,36,001,1,20,450,400,2022_Nov_01_1315,Experiment,2021.1.4,359.90901499429964,
images\S4_M_S_03.png,images\S4_M_S_03_scrambled.png,4,sad,-30,male,1,,24,off,1,0.5,0.75,0.5,0.872,3,23,1,1,1,0,0,0,0,1,,,,,,0,14,14,14,,,,,,,,,,,,,,,,,,,,,,,,,,,,,,,,,,,,,,,,,,,,,,,,,,,,,,,,,438.7718918999999,439.2773087000005,439.2773087000005,440.02709909999976,440.02709909999976,440.5297773000002,440.5297773000002,441.40453460000026,441.40453460000026,None,num_4,0.4549361000008503,441.40453460000026,None,sad,0,Sad,441.8709621599999,None,None,441.8709621599999,None,,,,,,,,,,,,,,,,,,,,,,,,,,,,,,,,,,,,,,,,,,,,,,,,,,,,,36,001,1,20,450,400,2022_Nov_01_1315,Experiment,2021.1.4,359.90901499429964,
images\S1_F_S_01.png,images\S1_F_S_01_scrambled.png,1,sad,-10,female,3,,304,on,2,0.5,0.75,0.5,0.782,3,303,1,1,1,2,2,32,128,163,,,,,,0,15,15,15,,,,,,,,,,,,,,,,,,,,,,,,,,,,,,,,,,,,,,,,,,,,,,,,,,,,,,,,,441.9264168999998,442.42923189999965,442.42923189999965,443.1816696999995,443.1816696999995,443.68439190000026,443.68439190000026,444.4701796999998,444.4701796999998,None,num_6,0.3733914000004006,444.4701796999998,None,happy,0,Sad,444.85618782000034,None,None,444.85618782000034,None,,,,,,,,,,,,,,,,,,,,,,,,,,,,,,,,,,,,,,,,,,,,,,,,,,,,,36,001,1,20,450,400,2022_Nov_01_1315,Experiment,2021.1.4,359.90901499429964,
images\S9_F_S_01.png,images\S9_F_S_01_scrambled.png,9,sad,-10,female,3,,292,off,1,0.5,0.75,0.5,0.821,3,291,1,1,2,0,0,0,0,3,,,,,,0,16,16,16,,,,,,,,,,,,,,,,,,,,,,,,,,,,,,,,,,,,,,,,,,,,,,,,,,,,,,,,,444.96719640000083,445.46988319999946,445.46988319999946,446.2251919999999,446.2251919999999,446.7305890000007,446.7305890000007,447.555337400001,447.555337400001,None,num_6,0.848047299999962,447.555337400001,None,happy,0,Sad,448.41056247999984,None,None,448.41056247999984,None,,,,,,,,,,,,,,,,,,,,,,,,,,,,,,,,,,,,,,,,,,,,,,,,,,,,,36,001,1,20,450,400,2022_Nov_01_1315,Experiment,2021.1.4,359.90901499429964,
images\S8_M_S_01.png,images\S8_M_S_01_scrambled.png,8,sad,-10,male,3,,346,on,2,0.5,0.75,0.5,0.773,3,345,1,1,3,2,2,32,128,163,,,,,,0,17,17,17,,,,,,,,,,,,,,,,,,,,,,,,,,,,,,,,,,,,,,,,,,,,,,,,,,,,,,,,,448.49666849999994,449.0020961000009,449.0020961000009,449.75741089999974,449.75741089999974,450.26015820000066,450.26015820000066,451.0375729999996,451.0375729999996,None,num_6,0.6936700999995082,451.0375729999996,None,happy,0,Sad,451.7373305799996,None,None,451.7373305799996,None,,,,,,,,,,,,,,,,,,,,,,,,,,,,,,,,,,,,,,,,,,,,,,,,,,,,,36,001,1,20,450,400,2022_Nov_01_1315,Experiment,2021.1.4,359.90901499429964,
images\S7_F_S_02.png,images\S7_F_S_02_scrambled.png,7,sad,-20,female,2,,581,on,2,0.5,0.75,0.5,0.908,3,580,2,1,1,2,2,32,128,162,,,,,,0,18,18,18,,,,,,,,,,,,,,,,,,,,,,,,,,,,,,,,,,,,,,,,,,,,,,,,,,,,,,,,,451.82063820000076,452.326045400001,452.326045400001,453.07862990000103,453.07862990000103,453.5812100000003,453.5812100000003,454.4948328999999,454.4948328999999,None,num_4,0.40446679999877233,454.4948328999999,None,sad,0,Sad,454.91412766000104,None,None,454.91412766000104,None,,,,,,,,,,,,,,,,,,,,,,,,,,,,,,,,,,,,,,,,,,,,,,,,,,,,,36,001,1,20,450,400,2022_Nov_01_1315,Experiment,2021.1.4,359.90901499429964,
images\S1_F_H_01.png,images\S1_F_H_01_scrambled.png,1,happy,10,female,4,,361,off,1,0.5,0.75,0.5,0.815,3,360,1,1,1,0,0,0,0,4,,,,,,0,19,19,19,,,,,,,,,,,,,,,,,,,,,,,,,,,,,,,,,,,,,,,,,,,,,,,,,,,,,,,,,455.02520730000106,455.52507069999956,455.52507069999956,456.27768470000046,456.27768470000046,456.78304539999954,456.78304539999954,457.60232220000034,457.60232220000034,None,num_6,0.5296278000005259,457.60232220000034,None,happy,0,Happy,458.1493987400001,None,None,458.1493987400001,None,,,,,,,,,,,,,,,,,,,,,,,,,,,,,,,,,,,,,,,,,,,,,,,,,,,,,36,001,1,20,450,400,2022_Nov_01_1315,Experiment,2021.1.4,359.90901499429964,
images\S1_F_H_01.png,images\S1_F_H_01_scrambled.png,1,happy,10,female,4,,481,off,1,0.5,0.75,0.5,0.855,3,480,2,2,2,0,0,0,0,4,,,,,,0,20,20,20,,,,,,,,,,,,,,,,,,,,,,,,,,,,,,,,,,,,,,,,,,,,,,,,,,,,,,,,,458.20200830000067,458.70188170000074,458.70188170000074,459.4516265000002,459.4516265000002,459.95427279999967,459.95427279999967,460.8123357000004,460.8123357000004,None,num_6,0.631172699999297,460.8123357000004,None,happy,0,Happy,461.4594983400013,None,None,461.4594983400013,None,,,,,,,,,,,,,,,,,,,,,,,,,,,,,,,,,,,,,,,,,,,,,,,,,,,,,36,001,1,20,450,400,2022_Nov_01_1315,Experiment,2021.1.4,359.90901499429964,
images\S2_M_S_02.png,images\S2_M_S_02_scrambled.png,2,sad,-20,male,2,,551,on,2,0.5,0.75,0.5,0.773,3,550,1,1,1,2,2,32,128,162,,,,,,0,21,21,21,,,,,,,,,,,,,,,,,,,,,,,,,,,,,,,,,,,,,,,,,,,,,,,,,,,,,,,,,461.56765000000087,462.07307969999965,462.07307969999965,462.8255872999998,462.8255872999998,463.32824450000044,463.32824450000044,464.1029799000007,464.1029799000007,None,num_4,0.3640968999989127,464.1029799000007,None,sad,0,Sad,464.49733800000104,None,None,464.49733800000104,None,,,,,,,,,,,,,,,,,,,,,,,,,,,,,,,,,,,,,,,,,,,,,,,,,,,,,36,001,1,20,450,400,2022_Nov_01_1315,Experiment,2021.1.4,359.90901499429964,
images\S9_F_H_01.png,images\S9_F_H_01_scrambled.png,9,happy,10,female,4,,289,off,1,0.5,0.75,0.5,0.875,3,288,1,1,1,0,0,0,0,4,,,,,,0,22,22,22,,,,,,,,,,,,,,,,,,,,,,,,,,,,,,,,,,,,,,,,,,,,,,,,,,,,,,,,,464.55282819999957,465.058264700001,465.058264700001,465.8079942000004,465.8079942000004,466.3106614999997,466.3106614999997,467.1881314000002,467.1881314000002,None,num_6,0.48729719999937515,467.1881314000002,None,happy,0,Happy,467.69357200000104,None,None,467.69357200000104,None,,,,,,,,,,,,,,,,,,,,,,,,,,,,,,,,,,,,,,,,,,,,,,,,,,,,,36,001,1,20,450,400,2022_Nov_01_1315,Experiment,2021.1.4,359.90901499429964,
images\S5_F_S_03.png,images\S5_F_S_03_scrambled.png,5,sad,-30,female,1,,150,off,1,0.5,0.75,0.5,0.826,3,149,2,1,1,0,0,0,0,1,,,,,,0,23,23,23,,,,,,,,,,,,,,,,,,,,,,,,,,,,,,,,,,,,,,,,,,,,,,,,,,,,,,,,,467.7768288999996,468.27668129999984,468.27668129999984,469.0264430999996,469.0264430999996,469.5291159999997,469.5291159999997,470.36218089999966,470.36218089999966,None,num_4,0.521239700001388,470.36218089999966,None,sad,0,Sad,470.9036747400016,None,None,470.9036747400016,None,,,,,,,,,,,,,,,,,,,,,,,,,,,,,,,,,,,,,,,,,,,,,,,,,,,,,36,001,1,20,450,400,2022_Nov_01_1315,Experiment,2021.1.4,359.90901499429964,
images\S3_F_H_02.png,images\S3_F_H_02_scrambled.png,3,happy,20,female,5,,434,on,2,0.5,0.75,0.5,0.897,3,433,1,1,1,2,2,32,128,165,,,,,,0,24,24,24,,,,,,,,,,,,,,,,,,,,,,,,,,,,,,,,,,,,,,,,,,,,,,,,,,,,,,,,,470.95085350000045,471.45629670000017,471.45629670000017,472.20602640000106,472.20602640000106,472.70868510000037,472.70868510000037,473.61118370000077,473.61118370000077,None,num_6,0.6483341000002838,473.61118370000077,None,happy,0,Happy,474.2693123600009,None,None,474.2693123600009,None,,,,,,,,,,,,,,,,,,,,,,,,,,,,,,,,,,,,,,,,,,,,,,,,,,,,,36,001,1,20,450,400,2022_Nov_01_1315,Experiment,2021.1.4,359.90901499429964,
images\S10_M_H_02.png,images\S10_M_H_02_scrambled.png,10,happy,20,male,5,,416,off,1,0.5,0.75,0.5,0.827,3,415,1,1,2,0,0,0,0,5,,,,,,0,25,25,25,,,,,,,,,,,,,,,,,,,,,,,,,,,,,,,,,,,,,,,,,,,,,,,,,,,,,,,,,474.352576700001,474.8552311000003,474.8552311000003,475.61061080000036,475.61061080000036,476.1159688000007,476.1159688000007,476.94626570000037,476.94626570000037,None,num_6,0.46504230000027746,476.94626570000037,None,happy,0,Happy,477.4266327600006,None,None,477.4266327600006,None,,,,,,,,,,,,,,,,,,,,,,,,,,,,,,,,,,,,,,,,,,,,,,,,,,,,,36,001,1,20,450,400,2022_Nov_01_1315,Experiment,2021.1.4,359.90901499429964,
images\S2_M_S_03.png,images\S2_M_S_03_scrambled.png,2,sad,-30,male,1,,552,on,2,0.5,0.75,0.5,0.782,3,551,1,1,1,2,2,32,128,161,,,,,,0,26,26,26,,,,,,,,,,,,,,,,,,,,,,,,,,,,,,,,,,,,,,,,,,,,,,,,,,,,,,,,,477.5155013000003,478.01822790000006,478.01822790000006,478.7735756000002,478.7735756000002,479.27890070000103,479.27890070000103,480.0647444999995,480.0647444999995,None,num_4,0.5151034999998956,480.0647444999995,None,sad,0,Sad,480.59809888000143,None,None,480.59809888000143,None,,,,,,,,,,,,,,,,,,,,,,,,,,,,,,,,,,,,,,,,,,,,,,,,,,,,,36,001,1,20,450,400,2022_Nov_01_1315,Experiment,2021.1.4,359.90901499429964,
images\S10_M_H_02.png,images\S10_M_H_02_scrambled.png,10,happy,20,male,5,,536,off,1,0.5,0.75,0.5,0.893,3,535,1,1,1,0,0,0,0,5,,,,,,0,27,27,27,,,,,,,,,,,,,,,,,,,,,,,,,,,,,,,,,,,,,,,,,,,,,,,,,,,,,,,,,480.66451770000094,481.1699174000005,481.1699174000005,481.91969190000054,481.91969190000054,482.4223511,482.4223511,483.32206640000004,483.32206640000004,None,num_6,0.5214398999996774,483.32206640000004,None,happy,0,Happy,483.8608441000006,None,None,483.8608441000006,None,,,,,,,,,,,,,,,,,,,,,,,,,,,,,,,,,,,,,,,,,,,,,,,,,,,,,36,001,1,20,450,400,2022_Nov_01_1315,Experiment,2021.1.4,359.90901499429964,
images\S8_M_S_02.png,images\S8_M_S_02_scrambled.png,8,sad,-20,male,2,,227,on,2,0.5,0.75,0.5,0.847,3,226,1,1,1,2,2,32,128,162,,,,,,0,28,28,28,,,,,,,,,,,,,,,,,,,,,,,,,,,,,,,,,,,,,,,,,,,,,,,,,,,,,,,,,483.96905979999974,484.47449270000106,484.47449270000106,485.2298043999999,485.2298043999999,485.73244030000023,485.73244030000023,486.5849452000002,486.5849452000002,None,num_4,0.30618370000047435,486.5849452000002,None,sad,0,Sad,486.9015222599999,None,None,486.9015222599999,None,,,,,,,,,,,,,,,,,,,,,,,,,,,,,,,,,,,,,,,,,,,,,,,,,,,,,36,001,1,20,450,400,2022_Nov_01_1315,Experiment,2021.1.4,359.90901499429964,
images\S2_M_H_03.png,images\S2_M_H_03_scrambled.png,2,happy,30,male,6,,129,off,1,0.5,0.75,0.5,0.934,3,128,1,1,1,0,0,0,0,6,,,,,,0,29,29,29,,,,,,,,,,,,,,,,,,,,,,,,,,,,,,,,,,,,,,,,,,,,,,,,,,,,,,,,,487.00977840000087,487.5096291000009,487.5096291000009,488.2593993999999,488.2593993999999,488.76484490000075,488.76484490000075,489.7006411000002,489.7006411000002,None,num_6,0.502732200000537,489.7006411000002,None,happy,0,Happy,490.21712026000097,None,None,490.21712026000097,None,,,,,,,,,,,,,,,,,,,,,,,,,,,,,,,,,,,,,,,,,,,,,,,,,,,,,36,001,1,20,450,400,2022_Nov_01_1315,Experiment,2021.1.4,359.90901499429964,
images\S5_F_H_01.png,images\S5_F_H_01_scrambled.png,5,happy,10,female,4,,505,off,1,0.5,0.75,0.5,0.815,3,504,2,1,1,0,0,0,0,4,,,,,,0,30,30,30,,,,,,,,,,,,,,,,,,,,,,,,,,,,,,,,,,,,,,,,,,,,,,,,,,,,,,,,,490.2643361999999,490.76981400000113,490.76981400000113,491.5251042,491.5251042,492.03050000000076,492.03050000000076,492.8497963000009,492.8497963000009,None,num_6,0.8257161000001361,492.8497963000009,None,happy,0,Happy,493.6940022800003,None,None,493.6940022800003,None,,,,,,,,,,,,,,,,,,,,,,,,,,,,,,,,,,,,,,,,,,,,,,,,,,,,,36,001,1,20,450,400,2022_Nov_01_1315,Experiment,2021.1.4,359.90901499429964,
images\S6_M_S_03.png,images\S6_M_S_03_scrambled.png,6,sad,-30,male,1,,396,off,1,0.5,0.75,0.5,0.866,3,395,3,1,1,0,0,0,0,1,,,,,,0,31,31,31,,,,,,,,,,,,,,,,,,,,,,,,,,,,,,,,,,,,,,,,,,,,,,,,,,,,,,,,,493.7438199999997,494.2436596999996,494.2436596999996,494.99347020000096,494.99347020000096,495.4933209999999,495.4933209999999,496.36527639999986,496.36527639999986,None,num_4,0.4782388000003266,496.36527639999986,None,sad,0,Sad,496.85676376000157,None,None,496.85676376000157,None,,,,,,,,,,,,,,,,,,,,,,,,,,,,,,,,,,,,,,,,,,,,,,,,,,,,,36,001,1,20,450,400,2022_Nov_01_1315,Experiment,2021.1.4,359.90901499429964,
images\S8_M_S_02.png,images\S8_M_S_02_scrambled.png,8,sad,-20,male,2,,467,on,2,0.5,0.75,0.5,0.86,3,466,1,1,1,2,2,32,128,162,,,,,,0,32,32,32,,,,,,,,,,,,,,,,,,,,,,,,,,,,,,,,,,,,,,,,,,,,,,,,,,,,,,,,,496.9039590000011,497.4065836000009,497.4065836000009,498.15635810000094,498.15635810000094,498.65902260000075,498.65902260000075,499.5253915000012,499.5253915000012,None,num_4,0.50996269999996,499.5253915000012,None,sad,0,Sad,500.06410756000133,None,None,500.06410756000133,None,,,,,,,,,,,,,,,,,,,,,,,,,,,,,,,,,,,,,,,,,,,,,,,,,,,,,36,001,1,20,450,400,2022_Nov_01_1315,Experiment,2021.1.4,359.90901499429964,
images\S7_F_S_03.png,images\S7_F_S_03_scrambled.png,7,sad,-30,female,1,,402,off,1,0.5,0.75,0.5,0.918,3,401,1,1,1,0,0,0,0,1,,,,,,0,33,33,33,,,,,,,,,,,,,,,,,,,,,,,,,,,,,,,,,,,,,,,,,,,,,,,,,,,,,,,,,500.11685489999945,500.6222797999999,500.6222797999999,501.37492790000033,501.37492790000033,501.87467670000115,501.87467670000115,502.79662140000073,502.79662140000073,None,num_4,0.406826500000534,502.79662140000073,None,sad,0,Sad,503.2242956800013,None,None,503.2242956800013,None,,,,,,,,,,,,,,,,,,,,,,,,,,,,,,,,,,,,,,,,,,,,,,,,,,,,,36,001,1,20,450,400,2022_Nov_01_1315,Experiment,2021.1.4,359.90901499429964,
images\S5_F_S_03.png,images\S5_F_S_03_scrambled.png,5,sad,-30,female,1,,90,on,2,0.5,0.75,0.5,0.929,3,89,1,1,2,2,2,32,128,161,,,,,,0,34,34,34,,,,,,,,,,,,,,,,,,,,,,,,,,,,,,,,,,,,,,,,,,,,,,,,,,,,,,,,,503.29087140000047,503.7962886000005,503.7962886000005,504.54881530000057,504.54881530000057,505.05148910000025,505.05148910000025,505.9872940000005,505.9872940000005,None,num_4,0.34411030000046594,505.9872940000005,None,sad,0,Sad,506.3454797600014,None,None,506.3454797600014,None,,,,,,,,,,,,,,,,,,,,,,,,,,,,,,,,,,,,,,,,,,,,,,,,,,,,,36,001,1,20,450,400,2022_Nov_01_1315,Experiment,2021.1.4,359.90901499429964,
images\S10_M_S_03.png,images\S10_M_S_03_scrambled.png,10,sad,-30,male,1,,180,off,1,0.5,0.75,0.5,0.904,3,179,1,1,3,0,0,0,0,1,,,,,,0,35,35,35,,,,,,,,,,,,,,,,,,,,,,,,,,,,,,,,,,,,,,,,,,,,,,,,,,,,,,,,,506.42879340000036,506.9314400000003,506.9314400000003,507.68410399999993,507.68410399999993,508.18949710000015,508.18949710000015,509.0974234999994,509.0974234999994,None,num_4,0.5458297000004677,509.0974234999994,None,sad,0,Sad,509.6611466600014,None,None,509.6611466600014,None,,,,,,,,,,,,,,,,,,,,,,,,,,,,,,,,,,,,,,,,,,,,,,,,,,,,,36,001,1,20,450,400,2022_Nov_01_1315,Experiment,2021.1.4,359.90901499429964,
images\S4_M_H_01.png,images\S4_M_H_01_scrambled.png,4,happy,10,male,4,,319,on,2,0.5,0.75,0.5,0.788,3,318,1,1,1,2,2,32,128,164,,,,,,0,36,36,36,,,,,,,,,,,,,,,,,,,,,,,,,,,,,,,,,,,,,,,,,,,,,,,,,,,,,,,,,509.74721320000026,510.2498763000003,510.2498763000003,511.0052186000012,511.0052186000012,511.50783430000047,511.50783430000047,512.2992164999996,512.2992164999996,None,num_4,0.9601744999999937,512.2992164999996,None,sad,0,Happy,513.2655640800008,None,None,513.2655640800008,None,,,,,,,,,,,,,,,,,,,,,,,,,,,,,,,,,,,,,,,,,,,,,,,,,,,,,36,001,1,20,450,400,2022_Nov_01_1315,Experiment,2021.1.4,359.90901499429964,
images\S3_F_H_03.png,images\S3_F_H_03_scrambled.png,3,happy,30,female,6,,75,on,2,0.5,0.75,0.5,0.865,3,74,2,1,1,2,2,32,128,166,,,,,,0,37,37,37,,,,,,,,,,,,,,,,,,,,,,,,,,,,,,,,,,,,,,,,,,,,,,,,,,,,,,,,,513.3127839999997,513.8182107000011,513.8182107000011,514.5707540000003,514.5707540000003,515.0733756000009,515.0733756000009,515.9425264000001,515.9425264000001,None,num_6,0.42880239999976766,515.9425264000001,None,happy,0,Happy,516.3840462600009,None,None,516.3840462600009,None,,,,,,,,,,,,,,,,,,,,,,,,,,,,,,,,,,,,,,,,,,,,,,,,,,,,,36,001,1,20,450,400,2022_Nov_01_1315,Experiment,2021.1.4,359.90901499429964,
images\S3_F_S_02.png,images\S3_F_S_02_scrambled.png,3,sad,-20,female,2,,197,on,2,0.5,0.75,0.5,0.913,3,196,3,2,1,2,2,32,128,162,,,,,,0,38,38,38,,,,,,,,,,,,,,,,,,,,,,,,,,,,,,,,,,,,,,,,,,,,,,,,,,,,,,,,,516.4340375000011,516.9338807000004,516.9338807000004,517.6836564999994,517.6836564999994,518.1890858000006,518.1890858000006,519.108256200001,519.108256200001,None,num_4,0.3914753999997629,519.108256200001,None,sad,0,Sad,519.5193529400015,None,None,519.5193529400015,None,,,,,,,,,,,,,,,,,,,,,,,,,,,,,,,,,,,,,,,,,,,,,,,,,,,,,36,001,1,20,450,400,2022_Nov_01_1315,Experiment,2021.1.4,359.90901499429964,
images\S5_F_S_01.png,images\S5_F_S_01_scrambled.png,5,sad,-10,female,3,,388,off,1,0.5,0.75,0.5,0.917,3,387,1,1,1,0,0,0,0,3,,,,,,0,39,39,39,,,,,,,,,,,,,,,,,,,,,,,,,,,,,,,,,,,,,,,,,,,,,,,,,,,,,,,,,519.6302818000004,520.1329555000011,520.1329555000011,520.8826793000007,520.8826793000007,521.3881204000008,521.3881204000008,522.3072221000002,522.3072221000002,None,num_4,0.7040829999987182,522.3072221000002,None,sad,0,Sad,523.0236756600015,None,None,523.0236756600015,None,,,,,,,,,,,,,,,,,,,,,,,,,,,,,,,,,,,,,,,,,,,,,,,,,,,,,36,001,1,20,450,400,2022_Nov_01_1315,Experiment,2021.1.4,359.90901499429964,
images\blank.jpg,images\blank.jpg,none,none,none,none,0,,644,on,2,0.5,0.75,0.5,0.8,0,643,1,1,1,3,3,48,192,240,,,,,,0,40,40,40,,,,,,,,,,,,,,,,,,,,,,,,,,,,,,,,,,,,,,,,,,,,,,,,,,,,,,,,,523.1238998000008,523.6290358000006,523.6290358000006,524.3843894000001,524.3843894000001,524.8871352999995,524.8871352999995,525.6924166000008,525.6924166000008,525.6924166000008,None,,525.6924166000008,None,miss,0,,528.6970042800008,None,None,528.6970042800008,None,,,,,,,,,,,,,,,,,,,,,,,,,,,,,,,,,,,,,,,,,,,,,,,,,,,,,36,001,1,20,450,400,2022_Nov_01_1315,Experiment,2021.1.4,359.90901499429964,
images\S2_M_S_03.png,images\S2_M_S_03_scrambled.png,2,sad,-30,male,1,,252,off,1,0.5,0.75,0.5,0.921,3,251,1,1,1,0,0,0,0,1,,,,,,0,41,41,41,,,,,,,,,,,,,,,,,,,,,,,,,,,,,,,,,,,,,,,,,,,,,,,,,,,,,,,,,528.8192823000009,529.3218494000012,529.3218494000012,530.0715218999994,530.0715218999994,530.5713687999996,530.5713687999996,531.496084800001,531.496084800001,None,num_4,0.32315749999906984,531.496084800001,528.8192823000009,sad,0,Sad,531.8348632599999,None,None,531.8348632599999,None,,,,,,,,,,,,,,,,,,,,,,,,,,,,,,,,,,,,,,,,,,,,,,,,,,,,,36,001,1,20,450,400,2022_Nov_01_1315,Experiment,2021.1.4,359.90901499429964,
images\S9_F_H_03.png,images\S9_F_H_03_scrambled.png,9,happy,30,female,6,,351,on,2,0.5,0.75,0.5,0.899,3,350,1,1,1,2,2,32,128,166,,,,,,0,42,42,42,,,,,,,,,,,,,,,,,,,,,,,,,,,,,,,,,,,,,,,,,,,,,,,,,,,,,,,,,531.9181576999999,532.4236324000012,532.4236324000012,533.1789250000002,533.1789250000002,533.6787425000002,533.6787425000002,534.5840313000008,534.5840313000008,None,num_6,0.4031006000004709,534.5840313000008,None,happy,0,Happy,534.9977669600001,None,None,534.9977669600001,None,,,,,,,,,,,,,,,,,,,,,,,,,,,,,,,,,,,,,,,,,,,,,,,,,,,,,36,001,1,20,450,400,2022_Nov_01_1315,Experiment,2021.1.4,359.90901499429964,
images\S1_F_H_02.png,images\S1_F_H_02_scrambled.png,1,happy,20,female,5,,182,on,2,0.5,0.75,0.5,0.929,3,181,2,1,1,2,2,32,128,165,,,,,,0,43,43,43,,,,,,,,,,,,,,,,,,,,,,,,,,,,,,,,,,,,,,,,,,,,,,,,,,,,,,,,,535.1088301,535.6142703999994,535.6142703999994,536.3695994999998,536.3695994999998,536.8694121999997,536.8694121999997,537.8025510000007,537.8025510000007,None,num_6,0.4324522999995679,537.8025510000007,None,happy,0,Happy,538.2495484600012,None,None,538.2495484600012,None,,,,,,,,,,,,,,,,,,,,,,,,,,,,,,,,,,,,,,,,,,,,,,,,,,,,,36,001,1,20,450,400,2022_Nov_01_1315,Experiment,2021.1.4,359.90901499429964,
images\S6_M_S_01.png,images\S6_M_S_01_scrambled.png,6,sad,-10,male,3,,394,off,1,0.5,0.75,0.5,0.767,3,393,1,1,1,0,0,0,0,3,,,,,,0,44,44,44,,,,,,,,,,,,,,,,,,,,,,,,,,,,,,,,,,,,,,,,,,,,,,,,,,,,,,,,,538.3606098,538.863246500001,538.863246500001,539.6157853000004,539.6157853000004,540.1185255,540.1185255,540.8877090000005,540.8877090000005,None,num_4,0.5959245000012743,540.8877090000005,None,sad,0,Sad,541.5070112800017,None,None,541.5070112800017,None,,,,,,,,,,,,,,,,,,,,,,,,,,,,,,,,,,,,,,,,,,,,,,,,,,,,,36,001,1,20,450,400,2022_Nov_01_1315,Experiment,2021.1.4,359.90901499429964,
images\S10_M_H_03.png,images\S10_M_H_03_scrambled.png,10,happy,30,male,6,,477,on,2,0.5,0.75,0.5,0.773,3,476,1,1,1,2,2,32,128,166,,,,,,0,45,45,45,,,,,,,,,,,,,,,,,,,,,,,,,,,,,,,,,,,,,,,,,,,,,,,,,,,,,,,,,541.6207038000011,542.1205547000009,542.1205547000009,542.8731384000002,542.8731384000002,543.3757229000003,543.3757229000003,544.1504863000009,544.1504863000009,None,num_6,0.4446755999997549,544.1504863000009,None,happy,0,Happy,544.6142980000013,None,None,544.6142980000013,None,,,,,,,,,,,,,,,,,,,,,,,,,,,,,,,,,,,,,,,,,,,,,,,,,,,,,36,001,1,20,450,400,2022_Nov_01_1315,Experiment,2021.1.4,359.90901499429964,
images\S9_F_H_01.png,images\S9_F_H_01_scrambled.png,9,happy,10,female,4,,589,on,2,0.5,0.75,0.5,0.833,3,588,2,1,1,2,2,32,128,164,,,,,,0,46,46,46,,,,,,,,,,,,,,,,,,,,,,,,,,,,,,,,,,,,,,,,,,,,,,,,,,,,,,,,,544.6642185000001,545.1668416000011,545.1668416000011,545.9195194000004,545.9195194000004,546.4248115999999,546.4248115999999,547.2606647000011,547.2606647000011,None,num_6,0.358787699999084,547.2606647000011,None,happy,0,Happy,547.6327338600012,None,None,547.6327338600012,None,,,,,,,,,,,,,,,,,,,,,,,,,,,,,,,,,,,,,,,,,,,,,,,,,,,,,36,001,1,20,450,400,2022_Nov_01_1315,Experiment,2021.1.4,359.90901499429964,
images\S9_F_H_03.png,images\S9_F_H_03_scrambled.png,9,happy,30,female,6,,171,off,1,0.5,0.75,0.5,0.853,3,170,1,2,1,0,0,0,0,6,,,,,,0,47,47,47,,,,,,,,,,,,,,,,,,,,,,,,,,,,,,,,,,,,,,,,,,,,,,,,,,,,,,,,,547.679952800001,548.1853666000006,548.1853666000006,548.9378959000005,548.9378959000005,549.4405643000009,549.4405643000009,550.2958405000008,550.2958405000008,None,num_6,0.6756279999990511,550.2958405000008,None,happy,0,Happy,551.0011662000015,None,None,551.0011662000015,None,,,,,,,,,,,,,,,,,,,,,,,,,,,,,,,,,,,,,,,,,,,,,,,,,,,,,36,001,1,20,450,400,2022_Nov_01_1315,Experiment,2021.1.4,359.90901499429964,
images\S8_M_S_02.png,images\S8_M_S_02_scrambled.png,8,sad,-20,male,2,,107,on,2,0.5,0.75,0.5,0.934,3,106,1,1,1,2,2,32,128,162,,,,,,0,48,48,48,,,,,,,,,,,,,,,,,,,,,,,,,,,,,,,,,,,,,,,,,,,,,,,,,,,,,,,,,551.0539151000012,551.5537294000005,551.5537294000005,552.3064279999999,552.3064279999999,552.8061646000006,552.8061646000006,553.7420156000007,553.7420156000007,None,num_4,0.37342160000116564,553.7420156000007,None,sad,0,Sad,554.1391608800018,None,None,554.1391608800018,None,,,,,,,,,,,,,,,,,,,,,,,,,,,,,,,,,,,,,,,,,,,,,,,,,,,,,36,001,1,20,450,400,2022_Nov_01_1315,Experiment,2021.1.4,359.90901499429964,
images\S5_F_H_03.png,images\S5_F_H_03_scrambled.png,5,happy,30,female,6,,327,on,2,0.5,0.75,0.5,0.789,3,326,2,1,1,2,2,32,128,166,,,,,,0,49,49,49,,,,,,,,,,,,,,,,,,,,,,,,,,,,,,,,,,,,,,,,,,,,,,,,,,,,,,,,,554.1918342000008,554.6916769,554.6916769,555.4442218000004,555.4442218000004,555.9468842000006,555.9468842000006,556.7382797000009,556.7382797000009,None,num_6,0.425145799999882,556.7382797000009,None,happy,0,Happy,557.1798220999999,None,None,557.1798220999999,None,,,,,,,,,,,,,,,,,,,,,,,,,,,,,,,,,,,,,,,,,,,,,,,,,,,,,36,001,1,20,450,400,2022_Nov_01_1315,Experiment,2021.1.4,359.90901499429964,
images\S5_F_H_02.png,images\S5_F_H_02_scrambled.png,5,happy,20,female,5,,506,off,1,0.5,0.75,0.5,0.899,3,505,1,2,1,0,0,0,0,5,,,,,,0,50,50,50,,,,,,,,,,,,,,,,,,,,,,,,,,,,,,,,,,,,,,,,,,,,,,,,,,,,,,,,,557.2603307999998,557.7658663000002,557.7658663000002,558.5182915999994,558.5182915999994,559.0208944000005,559.0208944000005,559.9234133999998,559.9234133999998,None,num_6,0.496090999999069,559.9234133999998,None,happy,0,Happy,560.4343653600016,None,None,560.4343653600016,None,,,,,,,,,,,,,,,,,,,,,,,,,,,,,,,,,,,,,,,,,,,,,,,,,,,,,36,001,1,20,450,400,2022_Nov_01_1315,Experiment,2021.1.4,359.90901499429964,
images\S8_M_S_03.png,images\S8_M_S_03_scrambled.png,8,sad,-30,male,1,,408,off,1,0.5,0.75,0.5,0.89,3,407,2,1,1,0,0,0,0,1,,,,,,0,51,51,51,,,,,,,,,,,,,,,,,,,,,,,,,,,,,,,,,,,,,,,,,,,,,,,,,,,,,,,,,560.5482033000008,561.0535989,561.0535989,561.8062970999999,561.8062970999999,562.3116422000003,562.3116422000003,563.2058698000001,563.2058698000001,None,num_4,0.5011680999996315,563.2058698000001,None,sad,0,Sad,563.7445022800007,None,None,563.7445022800007,None,,,,,,,,,,,,,,,,,,,,,,,,,,,,,,,,,,,,,,,,,,,,,,,,,,,,,36,001,1,20,450,400,2022_Nov_01_1315,Experiment,2021.1.4,359.90901499429964,
images\S8_M_H_03.png,images\S8_M_H_03_scrambled.png,8,happy,30,male,6,,405,off,1,0.5,0.75,0.5,0.788,3,404,3,2,1,0,0,0,0,6,,,,,,0,52,52,52,,,,,,,,,,,,,,,,,,,,,,,,,,,,,,,,,,,,,,,,,,,,,,,,,,,,,,,,,563.8444135999998,564.3442723999997,564.3442723999997,565.0996675999995,565.0996675999995,565.6050233000005,565.6050233000005,566.3936169000008,566.3936169000008,None,num_6,0.3614889000000403,566.3936169000008,None,happy,0,Happy,566.7684912600006,None,None,566.7684912600006,None,,,,,,,,,,,,,,,,,,,,,,,,,,,,,,,,,,,,,,,,,,,,,,,,,,,,,36,001,1,20,450,400,2022_Nov_01_1315,Experiment,2021.1.4,359.90901499429964,
images\S10_M_S_01.png,images\S10_M_S_01_scrambled.png,10,sad,-10,male,3,,538,off,1,0.5,0.75,0.5,0.823,3,537,4,1,1,0,0,0,0,3,,,,,,0,53,53,53,,,,,,,,,,,,,,,,,,,,,,,,,,,,,,,,,,,,,,,,,,,,,,,,,,,,,,,,,566.8628609999996,567.3683512999996,567.3683512999996,568.120982800001,568.120982800001,568.6263701000007,568.6263701000007,569.4566348999997,569.4566348999997,None,num_6,0.5065299000016239,569.4566348999997,None,happy,0,Sad,569.9730788800011,None,None,569.9730788800011,None,,,,,,,,,,,,,,,,,,,,,,,,,,,,,,,,,,,,,,,,,,,,,,,,,,,,,36,001,1,20,450,400,2022_Nov_01_1315,Experiment,2021.1.4,359.90901499429964,
images\S10_M_S_01.png,images\S10_M_S_01_scrambled.png,10,sad,-10,male,3,,358,on,2,0.5,0.75,0.5,0.796,3,357,1,2,2,2,2,32,128,163,,,,,,0,54,54,54,,,,,,,,,,,,,,,,,,,,,,,,,,,,,,,,,,,,,,,,,,,,,,,,,,,,,,,,,570.0231483000007,570.5229123999998,570.5229123999998,571.2726899999998,571.2726899999998,571.7781242000001,571.7781242000001,572.5778853000011,572.5778853000011,None,num_6,0.5294529000002512,572.5778853000011,None,happy,0,Sad,573.1137663800005,None,None,573.1137663800005,None,,,,,,,,,,,,,,,,,,,,,,,,,,,,,,,,,,,,,,,,,,,,,,,,,,,,,36,001,1,20,450,400,2022_Nov_01_1315,Experiment,2021.1.4,359.90901499429964,
images\S10_M_S_01.png,images\S10_M_S_01_scrambled.png,10,sad,-10,male,3,,118,on,2,0.5,0.75,0.5,0.832,3,117,2,3,3,2,2,32,128,163,,,,,,0,55,55,55,,,,,,,,,,,,,,,,,,,,,,,,,,,,,,,,,,,,,,,,,,,,,,,,,,,,,,,,,573.160973600001,573.6663896000009,573.6663896000009,574.4161584000012,574.4161584000012,574.9188155000011,574.9188155000011,575.7546502000005,575.7546502000005,None,num_6,0.5606723000000784,575.7546502000005,None,happy,0,Sad,576.3238700799998,None,None,576.3238700799998,None,,,,,,,,,,,,,,,,,,,,,,,,,,,,,,,,,,,,,,,,,,,,,,,,,,,,,36,001,1,20,450,400,2022_Nov_01_1315,Experiment,2021.1.4,359.90901499429964,
images\S4_M_S_02.png,images\S4_M_S_02_scrambled.png,4,sad,-20,male,2,,83,on,2,0.5,0.75,0.5,0.842,3,82,3,1,1,2,2,32,128,162,,,,,,0,56,56,56,,,,,,,,,,,,,,,,,,,,,,,,,,,,,,,,,,,,,,,,,,,,,,,,,,,,,,,,,576.371102000001,576.8737543000007,576.8737543000007,577.623501,577.623501,578.1261242,578.1261242,578.9731960000008,578.9731960000008,None,num_4,0.4540209999995568,578.9731960000008,None,sad,0,Sad,579.4423995000006,None,None,579.4423995000006,None,,,,,,,,,,,,,,,,,,,,,,,,,,,,,,,,,,,,,,,,,,,,,,,,,,,,,36,001,1,20,450,400,2022_Nov_01_1315,Experiment,2021.1.4,359.90901499429964,
images\S1_F_H_02.png,images\S1_F_H_02_scrambled.png,1,happy,20,female,5,,482,off,1,0.5,0.75,0.5,0.886,3,481,1,1,1,0,0,0,0,5,,,,,,0,57,57,57,,,,,,,,,,,,,,,,,,,,,,,,,,,,,,,,,,,,,,,,,,,,,,,,,,,,,,,,,579.4923520000011,579.9950062999997,579.9950062999997,580.7447456999998,580.7447456999998,581.2474101999996,581.2474101999996,582.1359826000007,582.1359826000007,None,num_6,0.3551298999991559,582.1359826000007,None,happy,0,Happy,582.519293100002,None,None,582.519293100002,None,,,,,,,,,,,,,,,,,,,,,,,,,,,,,,,,,,,,,,,,,,,,,,,,,,,,,36,001,1,20,450,400,2022_Nov_01_1315,Experiment,2021.1.4,359.90901499429964,
images\S10_M_S_03.png,images\S10_M_S_03_scrambled.png,10,sad,-30,male,1,,240,on,2,0.5,0.75,0.5,0.772,3,239,1,1,1,2,2,32,128,161,,,,,,0,58,58,58,,,,,,,,,,,,,,,,,,,,,,,,,,,,,,,,,,,,,,,,,,,,,,,,,,,,,,,,,582.5830710999999,583.0829167000011,583.0829167000011,583.8354808000004,583.8354808000004,584.3380811999996,584.3380811999996,585.1156355000003,585.1156355000003,None,num_4,0.3036269000003813,585.1156355000003,None,sad,0,Sad,585.4321841600002,None,None,585.4321841600002,None,,,,,,,,,,,,,,,,,,,,,,,,,,,,,,,,,,,,,,,,,,,,,,,,,,,,,36,001,1,20,450,400,2022_Nov_01_1315,Experiment,2021.1.4,359.90901499429964,
images\blank.jpg,images\blank.jpg,none,none,none,none,0,,605,on,2,0.5,0.75,0.5,0.94,0,604,2,1,1,3,3,48,192,240,,,,,,0,59,59,59,,,,,,,,,,,,,,,,,,,,,,,,,,,,,,,,,,,,,,,,,,,,,,,,,,,,,,,,,585.5157227,586.0181171000004,586.0181171000004,586.7706856000004,586.7706856000004,587.2734304999994,587.2734304999994,588.2175982999997,588.2175982999997,588.2175982999997,None,,588.2175982999997,None,miss,0,,591.2221370800003,None,None,591.2221370800003,None,,,,,,,,,,,,,,,,,,,,,,,,,,,,,,,,,,,,,,,,,,,,,,,,,,,,,36,001,1,20,450,400,2022_Nov_01_1315,Experiment,2021.1.4,359.90901499429964,
images\S10_M_S_01.png,images\S10_M_S_01_scrambled.png,10,sad,-10,male,3,,298,off,1,0.5,0.75,0.5,0.903,3,297,1,1,1,0,0,0,0,3,,,,,,0,60,60,60,,,,,,,,,,,,,,,,,,,,,,,,,,,,,,,,,,,,,,,,,,,,,,,,,,,,,,,,,591.3417360000003,591.8441131,591.8441131,592.5967730000011,592.5967730000011,593.0992879999994,593.0992879999994,594.0074015000009,594.0074015000009,None,num_6,0.5155732999992324,594.0074015000009,591.3417360000003,happy,0,Sad,594.53213258,None,None,594.53213258,None,,,,,,,,,,,,,,,,,,,,,,,,,,,,,,,,,,,,,,,,,,,,,,,,,,,,,36,001,1,20,450,400,2022_Nov_01_1315,Experiment,2021.1.4,359.90901499429964,
images\S3_F_S_01.png,images\S3_F_S_01_scrambled.png,3,sad,-10,female,3,,436,on,2,0.5,0.75,0.5,0.845,3,435,1,1,2,2,2,32,128,163,,,,,,0,61,61,61,,,,,,,,,,,,,,,,,,,,,,,,,,,,,,,,,,,,,,,,,,,,,,,,,,,,,,,,,594.6154766,595.1180953000003,595.1180953000003,595.8734533999996,595.8734533999996,596.3760774000002,596.3760774000002,597.2230545000002,597.2230545000002,None,num_4,1.0447198000001663,597.2230545000002,None,sad,0,Sad,598.2810201600013,None,None,598.2810201600013,None,,,,,,,,,,,,,,,,,,,,,,,,,,,,,,,,,,,,,,,,,,,,,,,,,,,,,36,001,1,20,450,400,2022_Nov_01_1315,Experiment,2021.1.4,359.90901499429964,
images\S10_M_S_03.png,images\S10_M_S_03_scrambled.png,10,sad,-30,male,1,,540,off,1,0.5,0.75,0.5,0.867,3,539,1,1,1,0,0,0,0,1,,,,,,0,62,62,62,,,,,,,,,,,,,,,,,,,,,,,,,,,,,,,,,,,,,,,,,,,,,,,,,,,,,,,,,598.3282185000007,598.8336403000012,598.8336403000012,599.5861607000006,599.5861607000006,600.0888140000006,600.0888140000006,600.957981900001,600.957981900001,None,num_4,0.35712170000078913,600.957981900001,None,sad,0,Sad,601.3300820600006,None,None,601.3300820600006,None,,,,,,,,,,,,,,,,,,,,,,,,,,,,,,,,,,,,,,,,,,,,,,,,,,,,,36,001,1,20,450,400,2022_Nov_01_1315,Experiment,2021.1.4,359.90901499429964,
images\S2_M_S_02.png,images\S2_M_S_02_scrambled.png,2,sad,-20,male,2,,191,on,2,0.5,0.75,0.5,0.831,3,190,1,1,1,2,2,32,128,162,,,,,,0,63,63,63,,,,,,,,,,,,,,,,,,,,,,,,,,,,,,,,,,,,,,,,,,,,,,,,,,,,,,,,,601.377274800001,601.8798889999998,601.8798889999998,602.6325145999999,602.6325145999999,603.1378825000011,603.1378825000011,603.9737223000011,603.9737223000011,None,num_4,0.2855282000000443,603.9737223000011,None,sad,0,Sad,604.2736205600003,None,None,604.2736205600003,None,,,,,,,,,,,,,,,,,,,,,,,,,,,,,,,,,,,,,,,,,,,,,,,,,,,,,36,001,1,20,450,400,2022_Nov_01_1315,Experiment,2021.1.4,359.90901499429964,
images\S2_M_S_01.png,images\S2_M_S_01_scrambled.png,2,sad,-10,male,3,,130,off,1,0.5,0.75,0.5,0.825,3,129,1,2,1,0,0,0,0,3,,,,,,0,64,64,64,,,,,,,,,,,,,,,,,,,,,,,,,,,,,,,,,,,,,,,,,,,,,,,,,,,,,,,,,604.3541337999995,604.8567889000005,604.8567889000005,605.6094365000008,605.6094365000008,606.1091716999999,606.1091716999999,606.9366901000012,606.9366901000012,None,num_4,0.4905170000001817,606.9366901000012,None,sad,0,Sad,607.4420432600008,None,None,607.4420432600008,None,,,,,,,,,,,,,,,,,,,,,,,,,,,,,,,,,,,,,,,,,,,,,,,,,,,,,36,001,1,20,450,400,2022_Nov_01_1315,Experiment,2021.1.4,359.90901499429964,
images\S10_M_H_02.png,images\S10_M_H_02_scrambled.png,10,happy,20,male,5,,116,on,2,0.5,0.75,0.5,0.778,3,115,1,1,1,2,2,32,128,165,,,,,,0,65,65,65,,,,,,,,,,,,,,,,,,,,,,,,,,,,,,,,,,,,,,,,,,,,,,,,,,,,,,,,,607.4892663999999,607.9891234000006,607.9891234000006,608.7445734000012,608.7445734000012,609.2442953000009,609.2442953000009,610.0247526000003,610.0247526000003,None,num_6,0.5304834000016854,610.0247526000003,None,happy,0,Happy,610.568875060001,None,None,610.568875060001,None,,,,,,,,,,,,,,,,,,,,,,,,,,,,,,,,,,,,,,,,,,,,,,,,,,,,,36,001,1,20,450,400,2022_Nov_01_1315,Experiment,2021.1.4,359.90901499429964,
images\S7_F_S_01.png,images\S7_F_S_01_scrambled.png,7,sad,-10,female,3,,40,off,1,0.5,0.75,0.5,0.802,3,39,1,1,1,0,0,0,0,3,,,,,,0,66,66,66,,,,,,,,,,,,,,,,,,,,,,,,,,,,,,,,,,,,,,,,,,,,,,,,,,,,,,,,,610.649409900001,611.1520289,611.1520289,611.9073840000001,611.9073840000001,612.4099778,612.4099778,613.2180957,613.2180957,None,num_6,0.5211516999988817,613.2180957,None,happy,0,Sad,613.7512466200011,None,None,613.7512466200011,None,,,,,,,,,,,,,,,,,,,,,,,,,,,,,,,,,,,,,,,,,,,,,,,,,,,,,36,001,1,20,450,400,2022_Nov_01_1315,Experiment,2021.1.4,359.90901499429964,
images\S5_F_H_03.png,images\S5_F_H_03_scrambled.png,5,happy,30,female,6,,27,off,1,0.5,0.75,0.5,0.825,3,26,2,1,1,0,0,0,0,6,,,,,,0,67,67,67,,,,,,,,,,,,,,,,,,,,,,,,,,,,,,,,,,,,,,,,,,,,,,,,,,,,,,,,,613.8178755999998,614.320539100001,614.320539100001,615.0702699000012,615.0702699000012,615.5757044000002,615.5757044000002,616.4060026000006,616.4060026000006,None,num_6,0.35725860000093235,616.4060026000006,None,happy,0,Happy,616.7780679600008,None,None,616.7780679600008,None,,,,,,,,,,,,,,,,,,,,,,,,,,,,,,,,,,,,,,,,,,,,,,,,,,,,,36,001,1,20,450,400,2022_Nov_01_1315,Experiment,2021.1.4,359.90901499429964,
images\S7_F_H_01.png,images\S7_F_H_01_scrambled.png,7,happy,10,female,4,,37,off,1,0.5,0.75,0.5,0.851,3,36,3,1,1,0,0,0,0,4,,,,,,0,68,68,68,,,,,,,,,,,,,,,,,,,,,,,,,,,,,,,,,,,,,,,,,,,,,,,,,,,,,,,,,616.8252940000002,617.3307280999998,617.3307280999998,618.0860443000001,618.0860443000001,618.5886334000006,618.5886334000006,619.4439628,619.4439628,None,num_6,0.35117580000041926,619.4439628,None,happy,0,Happy,619.8105715400009,None,None,619.8105715400009,None,,,,,,,,,,,,,,,,,,,,,,,,,,,,,,,,,,,,,,,,,,,,,,,,,,,,,36,001,1,20,450,400,2022_Nov_01_1315,Experiment,2021.1.4,359.90901499429964,
images\S3_F_H_02.png,images\S3_F_H_02_scrambled.png,3,happy,20,female,5,,254,off,1,0.5,0.75,0.5,0.772,3,253,4,1,1,0,0,0,0,5,,,,,,0,69,69,69,,,,,,,,,,,,,,,,,,,,,,,,,,,,,,,,,,,,,,,,,,,,,,,,,,,,,,,,,619.860453700001,620.3603273999997,620.3603273999997,621.1100965999995,621.1100965999995,621.6099429999995,621.6099429999995,622.3846720000001,622.3846720000001,None,num_6,0.37032410000028904,622.3846720000001,None,happy,0,Happy,622.7706854600009,None,None,622.7706854600009,None,,,,,,,,,,,,,,,,,,,,,,,,,,,,,,,,,,,,,,,,,,,,,,,,,,,,,36,001,1,20,450,400,2022_Nov_01_1315,Experiment,2021.1.4,359.90901499429964,
images\S1_F_S_02.png,images\S1_F_S_02_scrambled.png,1,sad,-20,female,2,,65,on,2,0.5,0.75,0.5,0.922,3,64,1,1,1,2,2,32,128,162,,,,,,0,70,70,70,,,,,,,,,,,,,,,,,,,,,,,,,,,,,,,,,,,,,,,,,,,,,,,,,,,,,,,,,622.8595292000009,623.365034800001,623.365034800001,624.1203801000011,624.1203801000011,624.6257105000004,624.6257105000004,625.550473700001,625.550473700001,None,num_6,0.5567064000006212,625.550473700001,None,happy,0,Sad,626.1113240800009,None,None,626.1113240800009,None,,,,,,,,,,,,,,,,,,,,,,,,,,,,,,,,,,,,,,,,,,,,,,,,,,,,,36,001,1,20,450,400,2022_Nov_01_1315,Experiment,2021.1.4,359.90901499429964,
images\S9_F_H_03.png,images\S9_F_H_03_scrambled.png,9,happy,30,female,6,,111,on,2,0.5,0.75,0.5,0.864,3,110,2,1,1,2,2,32,128,166,,,,,,0,71,71,71,,,,,,,,,,,,,,,,,,,,,,,,,,,,,,,,,,,,,,,,,,,,,,,,,,,,,,,,,626.1585101000001,626.6639383000002,626.6639383000002,627.4192655999996,627.4192655999996,627.9218524999997,627.9218524999997,628.7854798999997,628.7854798999997,None,num_6,0.4896269000000757,628.7854798999997,None,happy,0,Happy,629.296563720001,None,None,629.296563720001,None,,,,,,,,,,,,,,,,,,,,,,,,,,,,,,,,,,,,,,,,,,,,,,,,,,,,,36,001,1,20,450,400,2022_Nov_01_1315,Experiment,2021.1.4,359.90901499429964,
images\S8_M_S_02.png,images\S8_M_S_02_scrambled.png,8,sad,-20,male,2,,347,on,2,0.5,0.75,0.5,0.884,3,346,3,1,1,2,2,32,128,162,,,,,,0,72,72,72,,,,,,,,,,,,,,,,,,,,,,,,,,,,,,,,,,,,,,,,,,,,,,,,,,,,,,,,,629.3491950999996,629.8546141999996,629.8546141999996,630.6072947000011,630.6072947000011,631.1098215000002,631.1098215000002,631.9984076000001,631.9984076000001,None,num_4,0.42905620000055933,631.9984076000001,None,sad,0,Sad,632.451206180001,None,None,632.451206180001,None,,,,,,,,,,,,,,,,,,,,,,,,,,,,,,,,,,,,,,,,,,,,,,,,,,,,,36,001,1,20,450,400,2022_Nov_01_1315,Experiment,2021.1.4,359.90901499429964,
images\S9_F_S_02.png,images\S9_F_S_02_scrambled.png,9,sad,-20,female,2,,233,on,2,0.5,0.75,0.5,0.853,3,232,4,1,2,2,2,32,128,162,,,,,,0,73,73,73,,,,,,,,,,,,,,,,,,,,,,,,,,,,,,,,,,,,,,,,,,,,,,,,,,,,,,,,,632.5593251999999,633.0620717000002,633.0620717000002,633.8144996999999,633.8144996999999,634.3172297000001,634.3172297000001,635.1751863999998,635.1751863999998,None,num_6,0.3558699000004708,635.1751863999998,None,happy,0,Sad,635.5361807800004,None,None,635.5361807800004,None,,,,,,,,,,,,,,,,,,,,,,,,,,,,,,,,,,,,,,,,,,,,,,,,,,,,,36,001,1,20,450,400,2022_Nov_01_1315,Experiment,2021.1.4,359.90901499429964,
images\S2_M_S_02.png,images\S2_M_S_02_scrambled.png,2,sad,-20,male,2,,251,off,1,0.5,0.75,0.5,0.839,3,250,1,1,3,0,0,0,0,2,,,,,,0,74,74,74,,,,,,,,,,,,,,,,,,,,,,,,,,,,,,,,,,,,,,,,,,,,,,,,,,,,,,,,,635.58338,636.0832283,636.0832283,636.8329967999998,636.8329967999998,637.3356273000009,637.3356273000009,638.1771681999999,638.1771681999999,None,num_4,0.2979405999994924,638.1771681999999,None,sad,0,Sad,638.4908384600011,None,None,638.4908384600011,None,,,,,,,,,,,,,,,,,,,,,,,,,,,,,,,,,,,,,,,,,,,,,,,,,,,,,36,001,1,20,450,400,2022_Nov_01_1315,Experiment,2021.1.4,359.90901499429964,
images\S8_M_S_01.png,images\S8_M_S_01_scrambled.png,8,sad,-10,male,3,,526,off,1,0.5,0.75,0.5,0.844,3,525,2,1,1,0,0,0,0,3,,,,,,0,75,75,75,,,,,,,,,,,,,,,,,,,,,,,,,,,,,,,,,,,,,,,,,,,,,,,,,,,,,,,,,638.5380254000011,639.0434669000006,639.0434669000006,639.7987776000009,639.7987776000009,640.2986123999999,640.2986123999999,641.1455528000006,641.1455528000006,None,num_4,0.5615386999998009,641.1455528000006,None,sad,0,Sad,641.7204298599999,None,None,641.7204298599999,None,,,,,,,,,,,,,,,,,,,,,,,,,,,,,,,,,,,,,,,,,,,,,,,,,,,,,36,001,1,20,450,400,2022_Nov_01_1315,Experiment,2021.1.4,359.90901499429964,
images\S6_M_H_02.png,images\S6_M_H_02_scrambled.png,6,happy,20,male,5,,572,on,2,0.5,0.75,0.5,0.794,3,571,1,1,1,2,2,32,128,165,,,,,,0,76,76,76,,,,,,,,,,,,,,,,,,,,,,,,,,,,,,,,,,,,,,,,,,,,,,,,,,,,,,,,,641.8036830000001,642.3063464999996,642.3063464999996,643.0589,643.0589,643.5615042999998,643.5615042999998,644.3612689000001,644.3612689000001,None,num_6,1.2258301000001666,644.3612689000001,None,happy,0,Happy,645.5997292600013,None,None,645.5997292600013,None,,,,,,,,,,,,,,,,,,,,,,,,,,,,,,,,,,,,,,,,,,,,,,,,,,,,,36,001,1,20,450,400,2022_Nov_01_1315,Experiment,2021.1.4,359.90901499429964,
images\S10_M_S_01.png,images\S10_M_S_01_scrambled.png,10,sad,-10,male,3,,478,on,2,0.5,0.75,0.5,0.925,3,477,2,1,1,2,2,32,128,163,,,,,,0,77,77,77,,,,,,,,,,,,,,,,,,,,,,,,,,,,,,,,,,,,,,,,,,,,,,,,,,,,,,,,,645.6469508000009,646.1467941999999,646.1467941999999,646.9022519000009,646.9022519000009,647.4076535000004,647.4076535000004,648.3350030000001,648.3350030000001,None,num_6,0.3801013000011153,648.3350030000001,None,happy,0,Sad,648.7237519800005,None,None,648.7237519800005,None,,,,,,,,,,,,,,,,,,,,,,,,,,,,,,,,,,,,,,,,,,,,,,,,,,,,,36,001,1,20,450,400,2022_Nov_01_1315,Experiment,2021.1.4,359.90901499429964,
images\blank.jpg,images\blank.jpg,none,none,none,none,0,,611,on,2,0.5,0.75,0.5,0.847,0,610,3,1,1,3,3,48,192,240,,,,,,0,78,78,78,,,,,,,,,,,,,,,,,,,,,,,,,,,,,,,,,,,,,,,,,,,,,,,,,,,,,,,,,648.8102971999997,649.3152750999998,649.3152750999998,650.067920200001,650.067920200001,650.5733137000007,650.5733137000007,651.4201579,651.4201579,651.4201579,None,,651.4201579,None,miss,0,,654.4248625800014,None,None,654.4248625800014,None,,,,,,,,,,,,,,,,,,,,,,,,,,,,,,,,,,,,,,,,,,,,,,,,,,,,,36,001,1,20,450,400,2022_Nov_01_1315,Experiment,2021.1.4,359.90901499429964,
images\S4_M_H_03.png,images\S4_M_H_03_scrambled.png,4,happy,30,male,6,,21,off,1,0.5,0.75,0.5,0.832,3,20,1,1,1,0,0,0,0,6,,,,,,0,79,79,79,,,,,,,,,,,,,,,,,,,,,,,,,,,,,,,,,,,,,,,,,,,,,,,,,,,,,,,,,654.5803785000007,655.0829157999997,655.0829157999997,655.8326850000012,655.8326850000012,656.332532800001,656.332532800001,657.1685314000006,657.1685314000006,None,num_6,0.4584617000000435,657.1685314000006,654.5803785000007,happy,0,Happy,657.6488669200004,None,None,657.6488669200004,None,,,,,,,,,,,,,,,,,,,,,,,,,,,,,,,,,,,,,,,,,,,,,,,,,,,,,36,001,1,20,450,400,2022_Nov_01_1315,Experiment,2021.1.4,359.90901499429964,
images\S9_F_H_03.png,images\S9_F_H_03_scrambled.png,9,happy,30,female,6,,591,on,2,0.5,0.75,0.5,0.814,3,590,1,1,2,2,2,32,128,166,,,,,,0,80,80,80,,,,,,,,,,,,,,,,,,,,,,,,,,,,,,,,,,,,,,,,,,,,,,,,,,,,,,,,,657.6987882000012,658.2042144999996,658.2042144999996,658.9567222000005,658.9567222000005,659.4593894999998,659.4593894999998,660.2786300000007,660.2786300000007,None,num_6,0.3889407000006031,660.2786300000007,None,happy,0,Happy,660.6924274200006,None,None,660.6924274200006,None,,,,,,,,,,,,,,,,,,,,,,,,,,,,,,,,,,,,,,,,,,,,,,,,,,,,,36,001,1,20,450,400,2022_Nov_01_1315,Experiment,2021.1.4,359.90901499429964,
images\S6_M_H_02.png,images\S6_M_H_02_scrambled.png,6,happy,20,male,5,,272,off,1,0.5,0.75,0.5,0.894,3,271,1,1,1,0,0,0,0,5,,,,,,0,81,81,81,,,,,,,,,,,,,,,,,,,,,,,,,,,,,,,,,,,,,,,,,,,,,,,,,,,,,,,,,660.7450637000002,661.2476783000002,661.2476783000002,661.9974672000008,661.9974672000008,662.5001092000002,662.5001092000002,663.3970167000007,663.3970167000007,None,num_6,0.4385149999998248,663.3970167000007,None,happy,0,Happy,663.8553169400013,None,None,663.8553169400013,None,,,,,,,,,,,,,,,,,,,,,,,,,,,,,,,,,,,,,,,,,,,,,,,,,,,,,36,001,1,20,450,400,2022_Nov_01_1315,Experiment,2021.1.4,359.90901499429964,
images\S6_M_S_03.png,images\S6_M_S_03_scrambled.png,6,sad,-30,male,1,,216,on,2,0.5,0.75,0.5,0.934,3,215,1,2,1,2,2,32,128,161,,,,,,0,82,82,82,,,,,,,,,,,,,,,,,,,,,,,,,,,,,,,,,,,,,,,,,,,,,,,,,,,,,,,,,663.9079784999994,664.4105877000002,664.4105877000002,665.1603637999997,665.1603637999997,665.6631075000005,665.6631075000005,666.5988670999996,666.5988670999996,None,num_4,0.3882177000014053,666.5988670999996,None,sad,0,Sad,667.0014563600006,None,None,667.0014563600006,None,,,,,,,,,,,,,,,,,,,,,,,,,,,,,,,,,,,,,,,,,,,,,,,,,,,,,36,001,1,20,450,400,2022_Nov_01_1315,Experiment,2021.1.4,359.90901499429964,
images\S4_M_S_01.png,images\S4_M_S_01_scrambled.png,4,sad,-10,male,3,,502,off,1,0.5,0.75,0.5,0.854,3,501,1,1,1,0,0,0,0,3,,,,,,0,83,83,83,,,,,,,,,,,,,,,,,,,,,,,,,,,,,,,,,,,,,,,,,,,,,,,,,,,,,,,,,667.0847764999999,667.5846117000001,667.5846117000001,668.3372008999995,668.3372008999995,668.8398352000004,668.8398352000004,669.6978854000008,669.6978854000008,None,num_4,0.35305330000119284,669.6978854000008,None,sad,0,Sad,670.0644043600013,None,None,670.0644043600013,None,,,,,,,,,,,,,,,,,,,,,,,,,,,,,,,,,,,,,,,,,,,,,,,,,,,,,36,001,1,20,450,400,2022_Nov_01_1315,Experiment,2021.1.4,359.90901499429964,
images\S1_F_H_03.png,images\S1_F_H_03_scrambled.png,1,happy,30,female,6,,543,on,2,0.5,0.75,0.5,0.848,3,542,1,1,1,2,2,32,128,166,,,,,,0,84,84,84,,,,,,,,,,,,,,,,,,,,,,,,,,,,,,,,,,,,,,,,,,,,,,,,,,,,,,,,,670.1477219999997,670.6475874000007,670.6475874000007,671.4001358000005,671.4001358000005,671.9027435000007,671.9027435000007,672.7552424999994,672.7552424999994,None,num_6,0.5677233999995224,672.7552424999994,None,happy,0,Happy,673.3356637599999,None,None,673.3356637599999,None,,,,,,,,,,,,,,,,,,,,,,,,,,,,,,,,,,,,,,,,,,,,,,,,,,,,,36,001,1,20,450,400,2022_Nov_01_1315,Experiment,2021.1.4,359.90901499429964,
images\S10_M_H_03.png,images\S10_M_H_03_scrambled.png,10,happy,30,male,6,,117,on,2,0.5,0.75,0.5,0.792,3,116,2,1,2,2,2,32,128,166,,,,,,0,85,85,85,,,,,,,,,,,,,,,,,,,,,,,,,,,,,,,,,,,,,,,,,,,,,,,,,,,,,,,,,673.3828283000003,673.8826781999996,673.8826781999996,674.6324389000001,674.6324389000001,675.1322923999996,675.1322923999996,675.9237209000003,675.9237209000003,None,num_6,0.3674007999998139,675.9237209000003,None,happy,0,Happy,676.3097837000014,None,None,676.3097837000014,None,,,,,,,,,,,,,,,,,,,,,,,,,,,,,,,,,,,,,,,,,,,,,,,,,,,,,36,001,1,20,450,400,2022_Nov_01_1315,Experiment,2021.1.4,359.90901499429964,
images\S9_F_S_02.png,images\S9_F_S_02_scrambled.png,9,sad,-20,female,2,,413,off,1,0.5,0.75,0.5,0.791,3,412,1,1,1,0,0,0,0,2,,,,,,0,86,86,86,,,,,,,,,,,,,,,,,,,,,,,,,,,,,,,,,,,,,,,,,,,,,,,,,,,,,,,,,676.3846782,676.8873053000007,676.8873053000007,677.6399036000003,677.6399036000003,678.1425106000006,678.1425106000006,678.9367175999996,678.9367175999996,None,num_6,0.33840779999991355,678.9367175999996,None,happy,0,Sad,679.2866903800009,None,None,679.2866903800009,None,,,,,,,,,,,,,,,,,,,,,,,,,,,,,,,,,,,,,,,,,,,,,,,,,,,,,36,001,1,20,450,400,2022_Nov_01_1315,Experiment,2021.1.4,359.90901499429964,
images\S3_F_H_03.png,images\S3_F_H_03_scrambled.png,3,happy,30,female,6,,15,off,1,0.5,0.75,0.5,0.829,3,14,2,1,1,0,0,0,0,6,,,,,,0,87,87,87,,,,,,,,,,,,,,,,,,,,,,,,,,,,,,,,,,,,,,,,,,,,,,,,,,,,,,,,,679.3477536999999,679.8530817999999,679.8530817999999,680.6083988999999,680.6083988999999,681.1110268000011,681.1110268000011,681.9469005999999,681.9469005999999,None,num_6,0.36817279999922903,681.9469005999999,None,happy,0,Happy,682.3300583600002,None,None,682.3300583600002,None,,,,,,,,,,,,,,,,,,,,,,,,,,,,,,,,,,,,,,,,,,,,,,,,,,,,,36,001,1,20,450,400,2022_Nov_01_1315,Experiment,2021.1.4,359.90901499429964,
images\S10_M_S_03.png,images\S10_M_S_03_scrambled.png,10,sad,-30,male,1,,360,on,2,0.5,0.75,0.5,0.907,3,359,1,1,1,2,2,32,128,161,,,,,,0,88,88,88,,,,,,,,,,,,,,,,,,,,,,,,,,,,,,,,,,,,,,,,,,,,,,,,,,,,,,,,,682.3772776999995,682.8827357999999,682.8827357999999,683.6352279000002,683.6352279000002,684.1378440999997,684.1378440999997,685.0487014000009,685.0487014000009,None,num_4,0.3145034000008309,685.0487014000009,None,sad,0,Sad,685.3736886600008,None,None,685.3736886600008,None,,,,,,,,,,,,,,,,,,,,,,,,,,,,,,,,,,,,,,,,,,,,,,,,,,,,,36,001,1,20,450,400,2022_Nov_01_1315,Experiment,2021.1.4,359.90901499429964,
images\S9_F_H_01.png,images\S9_F_H_01_scrambled.png,9,happy,10,female,4,,109,on,2,0.5,0.75,0.5,0.916,3,108,2,1,1,2,2,32,128,164,,,,,,0,89,89,89,,,,,,,,,,,,,,,,,,,,,,,,,,,,,,,,,,,,,,,,,,,,,,,,,,,,,,,,,685.4207805999995,685.923441500001,685.923441500001,686.6759923000009,686.6759923000009,687.178568700001,687.178568700001,688.0977885000011,688.0977885000011,None,num_6,1.009900999999445,688.0977885000011,None,happy,0,Happy,689.1364353200003,None,None,689.1364353200003,None,,,,,,,,,,,,,,,,,,,,,,,,,,,,,,,,,,,,,,,,,,,,,,,,,,,,,36,001,1,20,450,400,2022_Nov_01_1315,Experiment,2021.1.4,359.90901499429964,
images\S9_F_S_01.png,images\S9_F_S_01_scrambled.png,9,sad,-10,female,3,,532,off,1,0.5,0.75,0.5,0.852,3,531,1,2,1,0,0,0,0,3,,,,,,0,90,90,90,,,,,,,,,,,,,,,,,,,,,,,,,,,,,,,,,,,,,,,,,,,,,,,,,,,,,,,,,689.1890648000008,689.6944822999994,689.6944822999994,690.4471145999996,690.4471145999996,690.952505700001,690.952505700001,691.807753000001,691.807753000001,None,num_6,0.283285600000454,691.807753000001,None,happy,0,Sad,692.1020612200015,None,None,692.1020612200015,None,,,,,,,,,,,,,,,,,,,,,,,,,,,,,,,,,,,,,,,,,,,,,,,,,,,,,36,001,1,20,450,400,2022_Nov_01_1315,Experiment,2021.1.4,359.90901499429964,
images\S8_M_H_02.png,images\S8_M_H_02_scrambled.png,8,happy,20,male,5,,224,on,2,0.5,0.75,0.5,0.765,3,223,1,1,1,2,2,32,128,165,,,,,,0,91,91,91,,,,,,,,,,,,,,,,,,,,,,,,,,,,,,,,,,,,,,,,,,,,,,,,,,,,,,,,,692.1909223000002,692.6936755000006,692.6936755000006,693.4433018,693.4433018,693.9459260000003,693.9459260000003,694.7151309000001,694.7151309000001,None,num_6,0.3600951999997051,694.7151309000001,None,happy,0,Happy,695.0984290200009,None,None,695.0984290200009,None,,,,,,,,,,,,,,,,,,,,,,,,,,,,,,,,,,,,,,,,,,,,,,,,,,,,,36,001,1,20,450,400,2022_Nov_01_1315,Experiment,2021.1.4,359.90901499429964,
images\blank.jpg,images\blank.jpg,none,none,none,none,0,,603,on,2,0.5,0.75,0.5,0.94,0,602,2,1,1,3,3,48,192,240,,,,,,0,92,92,92,,,,,,,,,,,,,,,,,,,,,,,,,,,,,,,,,,,,,,,,,,,,,,,,,,,,,,,,,695.1874183,695.6926093000002,695.6926093000002,696.4451964,696.4451964,696.9505847,696.9505847,697.8920159999998,697.8920159999998,697.8920159999998,None,,697.8920159999998,None,miss,0,,700.8938559800013,None,None,700.8938559800013,None,,,,,,,,,,,,,,,,,,,,,,,,,,,,,,,,,,,,,,,,,,,,,,,,,,,,,36,001,1,20,450,400,2022_Nov_01_1315,Experiment,2021.1.4,359.90901499429964,
images\S2_M_S_02.png,images\S2_M_S_02_scrambled.png,2,sad,-20,male,2,,311,on,2,0.5,0.75,0.5,0.863,3,310,3,1,1,2,2,32,128,162,,,,,,0,93,93,93,,,,,,,,,,,,,,,,,,,,,,,,,,,,,,,,,,,,,,,,,,,,,,,,,,,,,,,,,701.0162120000005,701.5213732000011,701.5213732000011,702.271138600001,702.271138600001,702.7737599000011,702.7737599000011,703.6402649000011,703.6402649000011,None,num_4,0.32318239999949583,703.6402649000011,701.0162120000005,sad,0,Sad,703.9901847200014,None,None,703.9901847200014,None,,,,,,,,,,,,,,,,,,,,,,,,,,,,,,,,,,,,,,,,,,,,,,,,,,,,,36,001,1,20,450,400,2022_Nov_01_1315,Experiment,2021.1.4,359.90901499429964,
images\S3_F_S_03.png,images\S3_F_S_03_scrambled.png,3,sad,-30,female,1,,318,on,2,0.5,0.75,0.5,0.911,3,317,4,1,1,2,2,32,128,161,,,,,,0,94,94,94,,,,,,,,,,,,,,,,,,,,,,,,,,,,,,,,,,,,,,,,,,,,,,,,,,,,,,,,,704.0955758,704.6010117000005,704.6010117000005,705.3563382000011,705.3563382000011,705.8589659999998,705.8589659999998,706.7725425999997,706.7725425999997,None,num_4,0.2544842000006611,706.7725425999997,None,sad,0,Sad,707.0419121600015,None,None,707.0419121600015,None,,,,,,,,,,,,,,,,,,,,,,,,,,,,,,,,,,,,,,,,,,,,,,,,,,,,,36,001,1,20,450,400,2022_Nov_01_1315,Experiment,2021.1.4,359.90901499429964,
images\S2_M_H_02.png,images\S2_M_H_02_scrambled.png,2,happy,20,male,5,,68,on,2,0.5,0.75,0.5,0.816,3,67,5,1,1,2,2,32,128,165,,,,,,0,95,95,95,,,,,,,,,,,,,,,,,,,,,,,,,,,,,,,,,,,,,,,,,,,,,,,,,,,,,,,,,707.127970900001,707.6334723,707.6334723,708.3831599999994,708.3831599999994,708.8830075999995,708.8830075999995,709.7049808000011,709.7049808000011,None,num_6,0.330109700000321,709.7049808000011,None,happy,0,Happy,710.0492841600015,None,None,710.0492841600015,None,,,,,,,,,,,,,,,,,,,,,,,,,,,,,,,,,,,,,,,,,,,,,,,,,,,,,36,001,1,20,450,400,2022_Nov_01_1315,Experiment,2021.1.4,359.90901499429964,
images\S8_M_H_02.png,images\S8_M_H_02_scrambled.png,8,happy,20,male,5,,44,off,1,0.5,0.75,0.5,0.949,3,43,1,1,2,0,0,0,0,5,,,,,,0,96,96,96,,,,,,,,,,,,,,,,,,,,,,,,,,,,,,,,,,,,,,,,,,,,,,,,,,,,,,,,,710.0965059999999,710.6019125000003,710.6019125000003,711.3516856000006,711.3516856000006,711.8543755999999,711.8543755999999,712.809626100001,712.809626100001,None,num_6,0.4495050000004994,712.809626100001,None,happy,0,Happy,713.2732904600006,None,None,713.2732904600006,None,,,,,,,,,,,,,,,,,,,,,,,,,,,,,,,,,,,,,,,,,,,,,,,,,,,,,36,001,1,20,450,400,2022_Nov_01_1315,Experiment,2021.1.4,359.90901499429964,
images\S5_F_H_01.png,images\S5_F_H_01_scrambled.png,5,happy,10,female,4,,145,off,1,0.5,0.75,0.5,0.833,3,144,2,1,1,0,0,0,0,4,,,,,,0,97,97,97,,,,,,,,,,,,,,,,,,,,,,,,,,,,,,,,,,,,,,,,,,,,,,,,,,,,,,,,,713.3205237000002,713.8231438000003,713.8231438000003,714.5758237999999,714.5758237999999,715.0812053000009,715.0812053000009,715.9169216999999,715.9169216999999,None,num_6,0.38990129999911005,715.9169216999999,None,happy,0,Happy,716.3223766600012,None,None,716.3223766600012,None,,,,,,,,,,,,,,,,,,,,,,,,,,,,,,,,,,,,,,,,,,,,,,,,,,,,,36,001,1,20,450,400,2022_Nov_01_1315,Experiment,2021.1.4,359.90901499429964,
images\S2_M_H_03.png,images\S2_M_H_03_scrambled.png,2,happy,30,male,6,,429,on,2,0.5,0.75,0.5,0.763,3,428,1,1,1,2,2,32,128,166,,,,,,0,98,98,98,,,,,,,,,,,,,,,,,,,,,,,,,,,,,,,,,,,,,,,,,,,,,,,,,,,,,,,,,716.369565500001,716.8722266000004,716.8722266000004,717.6275368000006,717.6275368000006,718.1301710000007,718.1301710000007,718.8965693000009,718.8965693000009,None,num_6,0.35462989999905403,718.8965693000009,None,happy,0,Happy,719.2797842600011,None,None,719.2797842600011,None,,,,,,,,,,,,,,,,,,,,,,,,,,,,,,,,,,,,,,,,,,,,,,,,,,,,,36,001,1,20,450,400,2022_Nov_01_1315,Experiment,2021.1.4,359.90901499429964,
images\S1_F_H_02.png,images\S1_F_H_02_scrambled.png,1,happy,20,female,5,,542,on,2,0.5,0.75,0.5,0.808,3,541,2,1,1,2,2,32,128,165,,,,,,0,99,99,99,,,,,,,,,,,,,,,,,,,,,,,,,,,,,,,,,,,,,,,,,,,,,,,,,,,,,,,,,719.332540200001,719.8379638000006,719.8379638000006,720.5906326000004,720.5906326000004,721.0959411000003,721.0959411000003,721.9068024999997,721.9068024999997,None,num_6,0.3522188000006281,721.9068024999997,None,happy,0,Happy,722.2733171600001,None,None,722.2733171600001,None,,,,,,,,,,,,,,,,,,,,,,,,,,,,,,,,,,,,,,,,,,,,,,,,,,,,,36,001,1,20,450,400,2022_Nov_01_1315,Experiment,2021.1.4,359.90901499429964,
images\S9_F_S_03.png,images\S9_F_S_03_scrambled.png,9,sad,-30,female,1,,234,on,2,0.5,0.75,0.5,0.822,3,233,3,1,1,2,2,32,128,161,,,,,,0,100,100,100,,,,,,,,,,,,,,,,,,,,,,,,,,,,,,,,,,,,,,,,,,,,,,,,,,,,,,,,,722.3511173999996,722.8509018000004,722.8509018000004,723.6006732000005,723.6006732000005,724.1033284000005,724.1033284000005,724.9280725999997,724.9280725999997,None,num_4,0.31585509999968053,724.9280725999997,None,sad,0,Sad,725.267018080001,None,None,725.267018080001,None,,,,,,,,,,,,,,,,,,,,,,,,,,,,,,,,,,,,,,,,,,,,,,,,,,,,,36,001,1,20,450,400,2022_Nov_01_1315,Experiment,2021.1.4,359.90901499429964,
images\S7_F_H_03.png,images\S7_F_H_03_scrambled.png,7,happy,30,female,6,,459,on,2,0.5,0.75,0.5,0.77,3,458,4,1,1,2,2,32,128,166,,,,,,0,101,101,101,,,,,,,,,,,,,,,,,,,,,,,,,,,,,,,,,,,,,,,,,,,,,,,,,,,,,,,,,725.3556774000008,725.8583166000008,725.8583166000008,726.610970400001,726.610970400001,727.1163452000001,727.1163452000001,727.8854558000003,727.8854558000003,None,num_6,0.46185719999994035,727.8854558000003,None,happy,0,Happy,728.3632205400002,None,None,728.3632205400002,None,,,,,,,,,,,,,,,,,,,,,,,,,,,,,,,,,,,,,,,,,,,,,,,,,,,,,36,001,1,20,450,400,2022_Nov_01_1315,Experiment,2021.1.4,359.90901499429964,
images\S1_F_H_02.png,images\S1_F_H_02_scrambled.png,1,happy,20,female,5,,302,on,2,0.5,0.75,0.5,0.946,3,301,5,1,1,2,2,32,128,165,,,,,,0,102,102,102,,,,,,,,,,,,,,,,,,,,,,,,,,,,,,,,,,,,,,,,,,,,,,,,,,,,,,,,,728.4158454999997,728.918462900001,728.918462900001,729.6711173000003,729.6711173000003,730.1708772000002,730.1708772000002,731.1206906999996,731.1206906999996,None,num_6,0.4181752000004053,731.1206906999996,None,happy,0,Happy,731.5537571600006,None,None,731.5537571600006,None,,,,,,,,,,,,,,,,,,,,,,,,,,,,,,,,,,,,,,,,,,,,,,,,,,,,,36,001,1,20,450,400,2022_Nov_01_1315,Experiment,2021.1.4,359.90901499429964,
images\S1_F_H_01.png,images\S1_F_H_01_scrambled.png,1,happy,10,female,4,,301,on,2,0.5,0.75,0.5,0.925,3,300,6,2,1,2,2,32,128,164,,,,,,0,103,103,103,,,,,,,,,,,,,,,,,,,,,,,,,,,,,,,,,,,,,,,,,,,,,,,,,,,,,,,,,731.6009783999998,732.1037408000011,732.1037408000011,732.8590471000007,732.8590471000007,733.3587742,733.3587742,734.2891688,734.2891688,None,num_6,0.3782649999993737,734.2891688,None,happy,0,Happy,734.6945065200013,None,None,734.6945065200013,None,,,,,,,,,,,,,,,,,,,,,,,,,,,,,,,,,,,,,,,,,,,,,,,,,,,,,36,001,1,20,450,400,2022_Nov_01_1315,Experiment,2021.1.4,359.90901499429964,
images\S1_F_H_03.png,images\S1_F_H_03_scrambled.png,1,happy,30,female,6,,363,off,1,0.5,0.75,0.5,0.766,3,362,1,3,1,0,0,0,0,6,,,,,,0,104,104,104,,,,,,,,,,,,,,,,,,,,,,,,,,,,,,,,,,,,,,,,,,,,,,,,,,,,,,,,,734.7444520999998,735.2470854000003,735.2470854000003,735.9968613000001,735.9968613000001,736.4995266999995,736.4995266999995,737.2686709999998,737.2686709999998,None,num_6,0.5264053000009881,737.2686709999998,None,happy,0,Happy,737.810153360001,None,None,737.810153360001,None,,,,,,,,,,,,,,,,,,,,,,,,,,,,,,,,,,,,,,,,,,,,,,,,,,,,,36,001,1,20,450,400,2022_Nov_01_1315,Experiment,2021.1.4,359.90901499429964,
images\S10_M_H_02.png,images\S10_M_H_02_scrambled.png,10,happy,20,male,5,,296,off,1,0.5,0.75,0.5,0.758,3,295,2,1,1,0,0,0,0,5,,,,,,0,105,105,105,,,,,,,,,,,,,,,,,,,,,,,,,,,,,,,,,,,,,,,,,,,,,,,,,,,,,,,,,737.8656513000005,738.3711297000009,738.3711297000009,739.1237488000006,739.1237488000006,739.6262946999996,739.6262946999996,740.3899856999997,740.3899856999997,None,num_6,0.493871599999693,740.3899856999997,None,happy,0,Happy,740.9094486200007,None,None,740.9094486200007,None,,,,,,,,,,,,,,,,,,,,,,,,,,,,,,,,,,,,,,,,,,,,,,,,,,,,,36,001,1,20,450,400,2022_Nov_01_1315,Experiment,2021.1.4,359.90901499429964,
images\S3_F_S_02.png,images\S3_F_S_02_scrambled.png,3,sad,-20,female,2,,137,off,1,0.5,0.75,0.5,0.917,3,136,3,1,1,0,0,0,0,2,,,,,,0,106,106,106,,,,,,,,,,,,,,,,,,,,,,,,,,,,,,,,,,,,,,,,,,,,,,,,,,,,,,,,,740.9619808000007,741.4618339999997,741.4618339999997,742.2115849000002,742.2115849000002,742.7143460999996,742.7143460999996,743.6361677000004,743.6361677000004,None,num_4,0.3109031000003597,743.6361677000004,None,sad,0,Sad,743.9694801400012,None,None,743.9694801400012,None,,,,,,,,,,,,,,,,,,,,,,,,,,,,,,,,,,,,,,,,,,,,,,,,,,,,,36,001,1,20,450,400,2022_Nov_01_1315,Experiment,2021.1.4,359.90901499429964,
images\S5_F_H_02.png,images\S5_F_H_02_scrambled.png,5,happy,20,female,5,,386,off,1,0.5,0.75,0.5,0.895,3,385,4,1,1,0,0,0,0,5,,,,,,0,107,107,107,,,,,,,,,,,,,,,,,,,,,,,,,,,,,,,,,,,,,,,,,,,,,,,,,,,,,,,,,744.0194736000012,744.5219955000011,744.5219955000011,745.2717702999998,745.2717702999998,745.7744756000011,745.7744756000011,746.6685443000006,746.6685443000006,None,num_6,0.3825520000009419,746.6685443000006,None,happy,0,Happy,747.0656713600009,None,None,747.0656713600009,None,,,,,,,,,,,,,,,,,,,,,,,,,,,,,,,,,,,,,,,,,,,,,,,,,,,,,36,001,1,20,450,400,2022_Nov_01_1315,Experiment,2021.1.4,359.90901499429964,
images\blank.jpg,images\blank.jpg,none,none,none,none,0,,645,on,2,0.5,0.75,0.5,0.861,0,644,1,1,1,3,3,48,192,240,,,,,,0,108,108,108,,,,,,,,,,,,,,,,,,,,,,,,,,,,,,,,,,,,,,,,,,,,,,,,,,,,,,,,,747.1492183000009,747.6543736000003,747.6543736000003,748.4096884999999,748.4096884999999,748.9123935000007,748.9123935000007,749.7787241999995,749.7787241999995,749.7787241999995,None,,749.7787241999995,None,miss,0,,752.7806880800003,None,None,752.7806880800003,None,,,,,,,,,,,,,,,,,,,,,,,,,,,,,,,,,,,,,,,,,,,,,,,,,,,,,36,001,1,20,450,400,2022_Nov_01_1315,Experiment,2021.1.4,359.90901499429964,
images\S2_M_H_02.png,images\S2_M_H_02_scrambled.png,2,happy,20,male,5,,488,off,1,0.5,0.75,0.5,0.94,3,487,1,1,1,0,0,0,0,5,,,,,,0,109,109,109,,,,,,,,,,,,,,,,,,,,,,,,,,,,,,,,,,,,,,,,,,,,,,,,,,,,,,,,,752.9057453000005,753.4053615000012,753.4053615000012,754.1551283000008,754.1551283000008,754.6577474999995,754.6577474999995,755.604728100001,755.604728100001,None,num_6,0.4952568999997311,755.604728100001,752.9057453000005,happy,0,Happy,756.1186057800019,None,None,756.1186057800019,None,,,,,,,,,,,,,,,,,,,,,,,,,,,,,,,,,,,,,,,,,,,,,,,,,,,,,36,001,1,20,450,400,2022_Nov_01_1315,Experiment,2021.1.4,359.90901499429964,
images\S6_M_S_03.png,images\S6_M_S_03_scrambled.png,6,sad,-30,male,1,,156,off,1,0.5,0.75,0.5,0.924,3,155,2,1,1,0,0,0,0,1,,,,,,0,110,110,110,,,,,,,,,,,,,,,,,,,,,,,,,,,,,,,,,,,,,,,,,,,,,,,,,,,,,,,,,756.1850532000008,756.6904830000003,756.6904830000003,757.4431148000003,757.4431148000003,757.9485234000003,757.9485234000003,758.8759209,758.8759209,None,num_4,0.37506719999873894,758.8759209,None,sad,0,Sad,759.2619171600007,None,None,759.2619171600007,None,,,,,,,,,,,,,,,,,,,,,,,,,,,,,,,,,,,,,,,,,,,,,,,,,,,,,36,001,1,20,450,400,2022_Nov_01_1315,Experiment,2021.1.4,359.90901499429964,
images\S6_M_H_02.png,images\S6_M_H_02_scrambled.png,6,happy,20,male,5,,32,off,1,0.5,0.75,0.5,0.941,3,31,3,2,1,0,0,0,0,5,,,,,,0,111,111,111,,,,,,,,,,,,,,,,,,,,,,,,,,,,,,,,,,,,,,,,,,,,,,,,,,,,,,,,,759.3090914000004,759.8145196999994,759.8145196999994,760.5642605000012,760.5642605000012,761.0669242000004,761.0669242000004,762.0138471999999,762.0138471999999,None,num_6,0.38910699999905773,762.0138471999999,None,happy,0,Happy,762.4221058000012,None,None,762.4221058000012,None,,,,,,,,,,,,,,,,,,,,,,,,,,,,,,,,,,,,,,,,,,,,,,,,,,,,,36,001,1,20,450,400,2022_Nov_01_1315,Experiment,2021.1.4,359.90901499429964,
images\S2_M_S_03.png,images\S2_M_S_03_scrambled.png,2,sad,-30,male,1,,312,on,2,0.5,0.75,0.5,0.95,3,311,1,1,1,2,2,32,128,161,,,,,,0,112,112,112,,,,,,,,,,,,,,,,,,,,,,,,,,,,,,,,,,,,,,,,,,,,,,,,,,,,,,,,,762.4692253000012,762.9746510000004,762.9746510000004,763.7243923000005,763.7243923000005,764.2298269000003,764.2298269000003,765.1850752000009,765.1850752000009,None,num_4,0.2982134000012593,765.1850752000009,None,sad,0,Sad,765.5073124800015,None,None,765.5073124800015,None,,,,,,,,,,,,,,,,,,,,,,,,,,,,,,,,,,,,,,,,,,,,,,,,,,,,,36,001,1,20,450,400,2022_Nov_01_1315,Experiment,2021.1.4,359.90901499429964,
images\S3_F_H_01.png,images\S3_F_H_01_scrambled.png,3,happy,10,female,4,,373,off,1,0.5,0.75,0.5,0.759,3,372,1,1,1,0,0,0,0,4,,,,,,0,113,113,113,,,,,,,,,,,,,,,,,,,,,,,,,,,,,,,,,,,,,,,,,,,,,,,,,,,,,,,,,765.6182532000003,766.1208853000007,766.1208853000007,766.8706462000009,766.8706462000009,767.3733592999997,767.3733592999997,768.1313743999999,768.1313743999999,None,num_4,1.711997499998688,768.1313743999999,None,sad,0,Happy,769.8559381199999,None,None,769.8559381199999,None,,,,,,,,,,,,,,,,,,,,,,,,,,,,,,,,,,,,,,,,,,,,,,,,,,,,,36,001,1,20,450,400,2022_Nov_01_1315,Experiment,2021.1.4,359.90901499429964,
images\S4_M_H_02.png,images\S4_M_H_02_scrambled.png,4,happy,20,male,5,,380,off,1,0.5,0.75,0.5,0.862,3,379,2,1,1,0,0,0,0,5,,,,,,0,114,114,114,,,,,,,,,,,,,,,,,,,,,,,,,,,,,,,,,,,,,,,,,,,,,,,,,,,,,,,,,769.9641161,770.4639850000003,770.4639850000003,771.2165710999998,771.2165710999998,771.7191985000009,771.7191985000009,772.5855709999996,772.5855709999996,None,num_6,0.3372546999999031,772.5855709999996,None,happy,0,Happy,772.9465785800016,None,None,772.9465785800016,None,,,,,,,,,,,,,,,,,,,,,,,,,,,,,,,,,,,,,,,,,,,,,,,,,,,,,36,001,1,20,450,400,2022_Nov_01_1315,Experiment,2021.1.4,359.90901499429964,
images\S7_F_S_03.png,images\S7_F_S_03_scrambled.png,7,sad,-30,female,1,,282,off,1,0.5,0.75,0.5,0.852,3,281,3,1,1,0,0,0,0,1,,,,,,0,115,115,115,,,,,,,,,,,,,,,,,,,,,,,,,,,,,,,,,,,,,,,,,,,,,,,,,,,,,,,,,772.9993505000002,773.5047422999996,773.5047422999996,774.2544779,774.2544779,774.7543330000008,774.7543330000008,775.6125222999999,775.6125222999999,None,num_4,0.2941899999987072,775.6125222999999,None,sad,0,Sad,775.9206205600011,None,None,775.9206205600011,None,,,,,,,,,,,,,,,,,,,,,,,,,,,,,,,,,,,,,,,,,,,,,,,,,,,,,36,001,1,20,450,400,2022_Nov_01_1315,Experiment,2021.1.4,359.90901499429964,
images\S6_M_S_03.png,images\S6_M_S_03_scrambled.png,6,sad,-30,male,1,,456,on,2,0.5,0.75,0.5,0.793,3,455,1,1,2,2,2,32,128,161,,,,,,0,116,116,116,,,,,,,,,,,,,,,,,,,,,,,,,,,,,,,,,,,,,,,,,,,,,,,,,,,,,,,,,775.9678416000006,776.4676823000009,776.4676823000009,777.2231341000006,777.2231341000006,777.7284899999995,777.7284899999995,778.5282488000012,778.5282488000012,None,num_4,0.38658630000099947,778.5282488000012,None,sad,0,Sad,778.9252925600002,None,None,778.9252925600002,None,,,,,,,,,,,,,,,,,,,,,,,,,,,,,,,,,,,,,,,,,,,,,,,,,,,,,36,001,1,20,450,400,2022_Nov_01_1315,Experiment,2021.1.4,359.90901499429964,
images\S1_F_H_03.png,images\S1_F_H_03_scrambled.png,1,happy,30,female,6,,303,on,2,0.5,0.75,0.5,0.883,3,302,2,1,1,2,2,32,128,166,,,,,,0,117,117,117,,,,,,,,,,,,,,,,,,,,,,,,,,,,,,,,,,,,,,,,,,,,,,,,,,,,,,,,,778.9724738000004,779.4780138000006,779.4780138000006,780.2276972,780.2276972,780.7302959000008,780.7302959000008,781.6133178,781.6133178,None,num_6,0.40542769999956363,781.6133178,None,happy,0,Happy,782.032623760001,None,None,782.032623760001,None,,,,,,,,,,,,,,,,,,,,,,,,,,,,,,,,,,,,,,,,,,,,,,,,,,,,,36,001,1,20,450,400,2022_Nov_01_1315,Experiment,2021.1.4,359.90901499429964,
images\S3_F_H_01.png,images\S3_F_H_01_scrambled.png,3,happy,10,female,4,,253,off,1,0.5,0.75,0.5,0.776,3,252,1,1,1,0,0,0,0,4,,,,,,0,118,118,118,,,,,,,,,,,,,,,,,,,,,,,,,,,,,,,,,,,,,,,,,,,,,,,,,,,,,,,,,782.0798441000006,782.585279500001,782.585279500001,783.3350119999996,783.3350119999996,783.8348954000012,783.8348954000012,784.6152149999998,784.6152149999998,None,num_6,0.3716261999998096,784.6152149999998,None,happy,0,Happy,785.0178561000012,None,None,785.0178561000012,None,,,,,,,,,,,,,,,,,,,,,,,,,,,,,,,,,,,,,,,,,,,,,,,,,,,,,36,001,1,20,450,400,2022_Nov_01_1315,Experiment,2021.1.4,359.90901499429964,
images\S8_M_H_03.png,images\S8_M_H_03_scrambled.png,8,happy,30,male,6,,285,off,1,0.5,0.75,0.5,0.905,3,284,2,1,1,0,0,0,0,6,,,,,,0,119,119,119,,,,,,,,,,,,,,,,,,,,,,,,,,,,,,,,,,,,,,,,,,,,,,,,,,,,,,,,,785.0705975000001,785.5732465000001,785.5732465000001,786.3285768000005,786.3285768000005,786.8312869000001,786.8312869000001,787.7392269000011,787.7392269000011,None,num_6,0.41563010000027134,787.7392269000011,None,happy,0,Happy,788.1696278600001,None,None,788.1696278600001,None,,,,,,,,,,,,,,,,,,,,,,,,,,,,,,,,,,,,,,,,,,,,,,,,,,,,,36,001,1,20,450,400,2022_Nov_01_1315,Experiment,2021.1.4,359.90901499429964,
images\S7_F_S_03.png,images\S7_F_S_03_scrambled.png,7,sad,-30,female,1,,342,on,2,0.5,0.75,0.5,0.867,3,341,1,1,1,2,2,32,128,161,,,,,,0,120,120,120,,,,,,,,,,,,,,,,,,,,,,,,,,,,,,,,,,,,,,,,,,,,,,,,,,,,,,,,,788.2168440999994,788.7194677999996,788.7194677999996,789.4692852000007,789.4692852000007,789.9690726000008,789.9690726000008,790.8411372999999,790.8411372999999,None,num_4,0.3217724999994971,790.8411372999999,None,sad,0,Sad,791.1770351600015,None,None,791.1770351600015,None,,,,,,,,,,,,,,,,,,,,,,,,,,,,,,,,,,,,,,,,,,,,,,,,,,,,,36,001,1,20,450,400,2022_Nov_01_1315,Experiment,2021.1.4,359.90901499429964,
images\S2_M_H_02.png,images\S2_M_H_02_scrambled.png,2,happy,20,male,5,,248,off,1,0.5,0.75,0.5,0.779,3,247,1,1,1,0,0,0,0,5,,,,,,0,121,121,121,,,,,,,,,,,,,,,,,,,,,,,,,,,,,,,,,,,,,,,,,,,,,,,,,,,,,,,,,791.2242473000006,791.7268691000008,791.7268691000008,792.4766316000005,792.4766316000005,792.9821725000002,792.9821725000002,793.7623684000009,793.7623684000009,None,num_6,0.5284989000010683,793.7623684000009,None,happy,0,Happy,794.3011240600016,None,None,794.3011240600016,None,,,,,,,,,,,,,,,,,,,,,,,,,,,,,,,,,,,,,,,,,,,,,,,,,,,,,36,001,1,20,450,400,2022_Nov_01_1315,Experiment,2021.1.4,359.90901499429964,
images\S4_M_H_02.png,images\S4_M_H_02_scrambled.png,4,happy,20,male,5,,320,on,2,0.5,0.75,0.5,0.811,3,319,1,1,2,2,2,32,128,165,,,,,,0,122,122,122,,,,,,,,,,,,,,,,,,,,,,,,,,,,,,,,,,,,,,,,,,,,,,,,,,,,,,,,,794.3482810999994,794.8481217000008,794.8481217000008,795.6034823000009,795.6034823000009,796.1061045999995,796.1061045999995,796.9225256999998,796.9225256999998,None,num_6,0.32835739999973157,796.9225256999998,None,happy,0,Happy,797.2752174800003,None,None,797.2752174800003,None,,,,,,,,,,,,,,,,,,,,,,,,,,,,,,,,,,,,,,,,,,,,,,,,,,,,,36,001,1,20,450,400,2022_Nov_01_1315,Experiment,2021.1.4,359.90901499429964,
images\S1_F_S_01.png,images\S1_F_S_01_scrambled.png,1,sad,-10,female,3,,544,on,2,0.5,0.75,0.5,0.916,3,543,2,1,1,2,2,32,128,163,,,,,,0,123,123,123,,,,,,,,,,,,,,,,,,,,,,,,,,,,,,,,,,,,,,,,,,,,,,,,,,,,,,,,,797.3279137000009,797.8333454000003,797.8333454000003,798.5859805,798.5859805,799.0884805000005,799.0884805000005,800.0076884000009,800.0076884000009,None,num_6,0.3557392999991862,800.0076884000009,None,happy,0,Sad,800.3715800200013,None,None,800.3715800200013,None,,,,,,,,,,,,,,,,,,,,,,,,,,,,,,,,,,,,,,,,,,,,,,,,,,,,,36,001,1,20,450,400,2022_Nov_01_1315,Experiment,2021.1.4,359.90901499429964,
images\S4_M_S_03.png,images\S4_M_S_03_scrambled.png,4,sad,-30,male,1,,84,on,2,0.5,0.75,0.5,0.9,3,83,3,1,1,2,2,32,128,161,,,,,,0,124,124,124,,,,,,,,,,,,,,,,,,,,,,,,,,,,,,,,,,,,,,,,,,,,,,,,,,,,,,,,,800.4352978000006,800.9379710000012,800.9379710000012,801.6876874000009,801.6876874000009,802.1931172000004,802.1931172000004,803.0956248000002,803.0956248000002,None,num_4,0.3954319000004034,803.0956248000002,None,sad,0,Sad,803.5177610200004,None,None,803.5177610200004,None,,,,,,,,,,,,,,,,,,,,,,,,,,,,,,,,,,,,,,,,,,,,,,,,,,,,,36,001,1,20,450,400,2022_Nov_01_1315,Experiment,2021.1.4,359.90901499429964,
images\S4_M_H_03.png,images\S4_M_H_03_scrambled.png,4,happy,30,male,6,,321,on,2,0.5,0.75,0.5,0.95,3,320,4,2,1,2,2,32,128,166,,,,,,0,125,125,125,,,,,,,,,,,,,,,,,,,,,,,,,,,,,,,,,,,,,,,,,,,,,,,,,,,,,,,,,803.5704446,804.0730834000005,804.0730834000005,804.8228319000009,804.8228319000009,805.3282543999994,805.3282543999994,806.2807582999994,806.2807582999994,None,num_6,0.39433939999980794,806.2807582999994,None,happy,0,Happy,806.702900320002,None,None,806.702900320002,None,,,,,,,,,,,,,,,,,,,,,,,,,,,,,,,,,,,,,,,,,,,,,,,,,,,,,36,001,1,20,450,400,2022_Nov_01_1315,Experiment,2021.1.4,359.90901499429964,
images\S1_F_H_01.png,images\S1_F_H_01_scrambled.png,1,happy,10,female,4,,241,off,1,0.5,0.75,0.5,0.882,3,240,1,1,1,0,0,0,0,4,,,,,,0,126,126,126,,,,,,,,,,,,,,,,,,,,,,,,,,,,,,,,,,,,,,,,,,,,,,,,,,,,,,,,,806.7527994000011,807.255414700001,807.255414700001,808.0079824000004,808.0079824000004,808.5106207999997,808.5106207999997,809.3964197000005,809.3964197000005,None,num_6,0.32676960000026156,809.3964197000005,None,happy,0,Happy,809.7379925600006,None,None,809.7379925600006,None,,,,,,,,,,,,,,,,,,,,,,,,,,,,,,,,,,,,,,,,,,,,,,,,,,,,,36,001,1,20,450,400,2022_Nov_01_1315,Experiment,2021.1.4,359.90901499429964,
images\S3_F_H_03.png,images\S3_F_H_03_scrambled.png,3,happy,30,female,6,,195,on,2,0.5,0.75,0.5,0.802,3,194,1,1,1,2,2,32,128,166,,,,,,0,127,127,127,,,,,,,,,,,,,,,,,,,,,,,,,,,,,,,,,,,,,,,,,,,,,,,,,,,,,,,,,809.7851852000003,810.2879577000003,810.2879577000003,811.0375998,811.0375998,811.5430983999995,811.5430983999995,812.3483376000004,812.3483376000004,None,num_6,0.43844050000006973,812.3483376000004,None,happy,0,Happy,812.8009269600014,None,None,812.8009269600014,None,,,,,,,,,,,,,,,,,,,,,,,,,,,,,,,,,,,,,,,,,,,,,,,,,,,,,36,001,1,20,450,400,2022_Nov_01_1315,Experiment,2021.1.4,359.90901499429964,
images\blank.jpg,images\blank.jpg,none,none,none,none,0,,613,on,2,0.5,0.75,0.5,0.916,0,612,2,1,1,3,3,48,192,240,,,,,,0,128,128,128,,,,,,,,,,,,,,,,,,,,,,,,,,,,,,,,,,,,,,,,,,,,,,,,,,,,,,,,,812.8844411000009,813.3896643000007,813.3896643000007,814.1449786000012,814.1449786000012,814.6476832999997,814.6476832999997,815.5639561000007,815.5639561000007,815.5639561000007,None,,815.5639561000007,None,miss,0,,818.5686514800004,None,None,818.5686514800004,None,,,,,,,,,,,,,,,,,,,,,,,,,,,,,,,,,,,,,,,,,,,,,,,,,,,,,36,001,1,20,450,400,2022_Nov_01_1315,Experiment,2021.1.4,359.90901499429964,
images\S8_M_S_01.png,images\S8_M_S_01_scrambled.png,8,sad,-10,male,3,,166,off,1,0.5,0.75,0.5,0.872,3,165,1,1,1,0,0,0,0,3,,,,,,0,129,129,129,,,,,,,,,,,,,,,,,,,,,,,,,,,,,,,,,,,,,,,,,,,,,,,,,,,,,,,,,818.6910382000005,819.1962105000002,819.1962105000002,819.9487530000006,819.9487530000006,820.4513678000003,820.4513678000003,821.3232864000001,821.3232864000001,None,num_6,0.431584699999803,821.3232864000001,818.6910382000005,happy,0,Sad,821.7592988800011,None,None,821.7592988800011,None,,,,,,,,,,,,,,,,,,,,,,,,,,,,,,,,,,,,,,,,,,,,,,,,,,,,,36,001,1,20,450,400,2022_Nov_01_1315,Experiment,2021.1.4,359.90901499429964,
images\S3_F_H_03.png,images\S3_F_H_03_scrambled.png,3,happy,30,female,6,,375,off,1,0.5,0.75,0.5,0.805,3,374,2,1,1,0,0,0,0,6,,,,,,0,130,130,130,,,,,,,,,,,,,,,,,,,,,,,,,,,,,,,,,,,,,,,,,,,,,,,,,,,,,,,,,821.8064790000008,822.3120016000012,822.3120016000012,823.0616599000004,823.0616599000004,823.5671254000008,823.5671254000008,824.3723508000003,824.3723508000003,None,num_6,0.3263812000004691,824.3723508000003,None,happy,0,Happy,824.7139091999998,None,space,824.7139091999998,None,34.68835920000129,,,,,,,,,,,,,,,,,,,,,,,,,,,,,,,,,,,,,,,,,,,,,,,,,,,,36,001,1,20,450,400,2022_Nov_01_1315,Experiment,2021.1.4,359.90901499429964,
images\S6_M_H_03.png,images\S6_M_H_03_scrambled.png,6,happy,30,male,6,,153,off,1,0.5,0.75,0.5,0.894,3,152,3,1,2,0,0,0,0,6,,,,,,0,131,131,131,,,,,,,,,,,,,,,,,,,,,,,,,,,,,,,,,,,,,,,,,,,,,,,,,,,,,,,,,859.4920075999999,859.9919183000002,859.9919183000002,860.7472328000003,860.7472328000003,861.2471182000008,861.2471182000008,862.1468428999997,862.1468428999997,None,num_6,0.32014820000040345,862.1468428999997,None,happy,0,Happy,862.4774266600006,None,None,862.4774266600006,None,,,,,,,,,,,,,,,,,,,,,,,,,,,,,,,,,,,,,,,,,,,,,,,,,,,,,36,001,1,20,450,400,2022_Nov_01_1315,Experiment,2021.1.4,359.90901499429964,
images\blank.jpg,images\blank.jpg,none,none,none,none,0,,640,on,2,0.5,0.75,0.5,0.841,0,639,1,1,1,3,3,48,192,240,,,,,,0,132,132,132,,,,,,,,,,,,,,,,,,,,,,,,,,,,,,,,,,,,,,,,,,,,,,,,,,,,,,,,,862.5607734000005,863.0604098000003,863.0604098000003,863.8129925000012,863.8129925000012,864.3156956000003,864.3156956000003,865.1597996,865.1597996,865.1597996,None,,865.1597996,None,miss,0,,868.1616888800004,None,None,868.1616888800004,None,,,,,,,,,,,,,,,,,,,,,,,,,,,,,,,,,,,,,,,,,,,,,,,,,,,,,36,001,1,20,450,400,2022_Nov_01_1315,Experiment,2021.1.4,359.90901499429964,
images\S5_F_H_02.png,images\S5_F_H_02_scrambled.png,5,happy,20,female,5,,146,off,1,0.5,0.75,0.5,0.84,3,145,1,1,1,0,0,0,0,5,,,,,,0,133,133,133,,,,,,,,,,,,,,,,,,,,,,,,,,,,,,,,,,,,,,,,,,,,,,,,,,,,,,,,,868.2868082000005,868.7892172000011,868.7892172000011,869.5417622000004,869.5417622000004,870.0472427000004,870.0472427000004,870.894121700001,870.894121700001,None,num_6,0.35671220000040194,870.894121700001,868.2868082000005,happy,0,Happy,871.2607030600001,None,None,871.2607030600001,None,,,,,,,,,,,,,,,,,,,,,,,,,,,,,,,,,,,,,,,,,,,,,,,,,,,,,36,001,1,20,450,400,2022_Nov_01_1315,Experiment,2021.1.4,359.90901499429964,
images\S7_F_S_02.png,images\S7_F_S_02_scrambled.png,7,sad,-20,female,2,,221,on,2,0.5,0.75,0.5,0.787,3,220,1,1,1,2,2,32,128,162,,,,,,0,134,134,134,,,,,,,,,,,,,,,,,,,,,,,,,,,,,,,,,,,,,,,,,,,,,,,,,,,,,,,,,871.3078739000011,871.8132944999998,871.8132944999998,872.5658481999999,872.5658481999999,873.0684309000007,873.0684309000007,873.8571757000009,873.8571757000009,None,num_4,0.3775499999992462,873.8571757000009,None,sad,0,Sad,874.2514732400007,None,None,874.2514732400007,None,,,,,,,,,,,,,,,,,,,,,,,,,,,,,,,,,,,,,,,,,,,,,,,,,,,,,36,001,1,20,450,400,2022_Nov_01_1315,Experiment,2021.1.4,359.90901499429964,
images\S7_F_S_02.png,images\S7_F_S_02_scrambled.png,7,sad,-20,female,2,,461,on,2,0.5,0.75,0.5,0.757,3,460,2,2,2,2,2,32,128,162,,,,,,0,135,135,135,,,,,,,,,,,,,,,,,,,,,,,,,,,,,,,,,,,,,,,,,,,,,,,,,,,,,,,,,874.3013857000005,874.8040326000009,874.8040326000009,875.5566959999996,875.5566959999996,876.0620397000002,876.0620397000002,876.8228720000006,876.8228720000006,None,num_4,0.2519161999989592,876.8228720000006,None,sad,0,Sad,877.0950309800005,None,None,877.0950309800005,None,,,,,,,,,,,,,,,,,,,,,,,,,,,,,,,,,,,,,,,,,,,,,,,,,,,,,36,001,1,20,450,400,2022_Nov_01_1315,Experiment,2021.1.4,359.90901499429964,
images\S7_F_H_02.png,images\S7_F_H_02_scrambled.png,7,happy,20,female,5,,518,off,1,0.5,0.75,0.5,0.906,3,517,1,3,1,0,0,0,0,5,,,,,,0,136,136,136,,,,,,,,,,,,,,,,,,,,,,,,,,,,,,,,,,,,,,,,,,,,,,,,,,,,,,,,,877.147732200001,877.6475771999994,877.6475771999994,878.4029355000002,878.4029355000002,878.9055626999998,878.9055626999998,879.8136008000001,879.8136008000001,None,num_6,0.3089847000010195,879.8136008000001,None,happy,0,Happy,880.1356867600015,None,None,880.1356867600015,None,,,,,,,,,,,,,,,,,,,,,,,,,,,,,,,,,,,,,,,,,,,,,,,,,,,,,36,001,1,20,450,400,2022_Nov_01_1315,Experiment,2021.1.4,359.90901499429964,
images\S9_F_S_02.png,images\S9_F_S_02_scrambled.png,9,sad,-20,female,2,,293,off,1,0.5,0.75,0.5,0.855,3,292,2,1,1,0,0,0,0,2,,,,,,0,137,137,137,,,,,,,,,,,,,,,,,,,,,,,,,,,,,,,,,,,,,,,,,,,,,,,,,,,,,,,,,880.1829103,880.6883037000007,880.6883037000007,881.4409797000008,881.4409797000008,881.9435016000007,881.9435016000007,882.8016176000001,882.8016176000001,None,num_6,0.2810427000003983,882.8016176000001,None,happy,0,Sad,883.0875859800003,None,None,883.0875859800003,None,,,,,,,,,,,,,,,,,,,,,,,,,,,,,,,,,,,,,,,,,,,,,,,,,,,,,36,001,1,20,450,400,2022_Nov_01_1315,Experiment,2021.1.4,359.90901499429964,
images\S4_M_H_01.png,images\S4_M_H_01_scrambled.png,4,happy,10,male,4,,379,off,1,0.5,0.75,0.5,0.844,3,378,3,1,1,0,0,0,0,4,,,,,,0,138,138,138,,,,,,,,,,,,,,,,,,,,,,,,,,,,,,,,,,,,,,,,,,,,,,,,,,,,,,,,,883.1347779999996,883.6374252999994,883.6374252999994,884.3899793,884.3899793,884.8925591000007,884.8925591000007,885.739520000001,885.739520000001,None,num_4,0.24732910000057018,885.739520000001,None,sad,0,Happy,885.9922549799999,None,None,885.9922549799999,None,,,,,,,,,,,,,,,,,,,,,,,,,,,,,,,,,,,,,,,,,,,,,,,,,,,,,36,001,1,20,450,400,2022_Nov_01_1315,Experiment,2021.1.4,359.90901499429964,
images\S8_M_H_03.png,images\S8_M_H_03_scrambled.png,8,happy,30,male,6,,525,off,1,0.5,0.75,0.5,0.786,3,524,4,1,1,0,0,0,0,6,,,,,,0,139,139,139,,,,,,,,,,,,,,,,,,,,,,,,,,,,,,,,,,,,,,,,,,,,,,,,,,,,,,,,,886.0394350999995,886.5392743000011,886.5392743000011,887.2890533000009,887.2890533000009,887.7917237000001,887.7917237000001,888.5803107000011,888.5803107000011,None,num_6,0.2864000000008673,888.5803107000011,None,happy,0,Happy,888.8774862600011,None,None,888.8774862600011,None,,,,,,,,,,,,,,,,,,,,,,,,,,,,,,,,,,,,,,,,,,,,,,,,,,,,,36,001,1,20,450,400,2022_Nov_01_1315,Experiment,2021.1.4,359.90901499429964,
