image_face,image_scram,avatar,emo,emotion,sex,trigeeg,dac,trial_no,NMES,stimtime,baseline,iti,face,scr_face,resp_time,index,count_NMES,count_avatar,count_emotion,dac1,dac2,dac1_output,dac2_output,trigs_out,nmes,practice_trials.thisRepN,practice_trials.thisTrialN,practice_trials.thisN,practice_trials.thisIndex,real_trials.thisRepN,real_trials.thisTrialN,real_trials.thisN,real_trials.thisIndex,trials.thisRepN,trials.thisTrialN,trials.thisN,trials.thisIndex,position,Welcome.started,Welcome.stopped,Welcome_resp.keys,Welcome_resp.rt,text_2.started,text_2.stopped,form_2.index,form_2.itemText,form_2.type,form_2.response,form_2.rt,key_resp_4.keys,key_resp_4.rt,key_resp_4.started,key_resp_4.stopped,instructions.started,instructions.stopped,end_instr.keys,end_instr.rt,instructions_2.started,instructions_2.stopped,end_instr_2.keys,end_instr_2.rt,end_instr_2.started,end_instr_2.stopped,instruct_keypress.started,instruct_keypress.stopped,end_instruct_keypress.keys,end_instruct_keypress.rt,start_practice.started,start_practice.stopped,start_practice_resp.keys,start_practice_resp.rt,prac_baseline.started,prac_baseline.stopped,prac_iti.started,prac_iti.stopped,prac_stimulus.started,prac_stimulus.stopped,prac_scram_stim.started,prac_scram_stim.stopped,prac_stimulus_resp.started,prac_stimulus_resp.stopped,prac_resp.keys,prac_resp.rt,prac_resp.started,prac_resp.stopped,transition_to_real.started,transition_to_real.stopped,end_transition_to_real.keys,end_transition_to_real.rt,fixation_cross.started,fixation_cross.stopped,tr_iti.started,tr_iti.stopped,stimulus.started,stimulus.stopped,scram_stim.started,scram_stim.stopped,response_txt.started,response_txt.stopped,response.keys,response.rt,response.started,response.stopped,participant_Resp,grouping,corAnswer,break_msg.started,break_msg.stopped,end_break.keys,end_break.started,end_break.stopped,end_break.rt,text.started,text.stopped,key_resp_3.keys,key_resp_3.rt,key_resp_3.started,key_resp_3.stopped,fix_cross_comf.started,fix_cross_comf.stopped,stimulation_comf.started,stimulation_comf.stopped,rate_instr.started,rate_instr.stopped,comfort_rating.response,comfort_rating.rt,comfort_rating.started,comfort_rating.stopped,resp_form.keys,resp_form.rt,resp_form.started,resp_form.stopped,survey_instructions.started,survey_instructions.stopped,key_resp_2.keys,key_resp_2.rt,key_resp_2.started,key_resp_2.stopped,form.index,form.itemText,form.type,form.response,form.rt,key_resp.keys,key_resp.rt,key_resp.started,key_resp.stopped,text_3.started,text_3.stopped,rate_smile.response,rate_smile.rt,rate_smile.started,rate_smile.stopped,key_resp_5.keys,key_resp_5.rt,key_resp_5.started,key_resp_5.stopped,end_msg.started,end_msg.stopped,end_resp.keys,end_resp.rt,end_resp.started,end_resp.stopped,participant,session,gender,age,LEFT,RIGHT,date,expName,psychopyVersion,frameRate,
,,,,,,,,,,,,,,,,,,,,,,,,,,,,,,,,,,,,,,H-S,42.46217820000311,None,num_add,25.547395300000062,,,,,,,,,,,,,,,,,,,,,,,,,,,,,,,,,,,,,,,,,,,,,,,,,,,,,,,,,,,,,,,,,,,,,,,,,,,,,,,,,,,,,,,,,,,,,,,,,,,,,,,,,,,,,,,,,,,,,,,,,,37,001,0,27,340,230,2022_Nov_01_1523,Experiment,2021.1.4,360.0230414876946,
,,,,,,,,,,,,,,,,,,,,,,,,,,,,,,,,,,,,,,,,,,,68.01864660000138,70.06799480000336,1,"This scale consistes of a number of words that describe different feelings and emotion. Read each item and then list the number from the scale below each word. Indicate (by clicking) to what extend you feel this way RIGHT NOW, that is, AT THE PRESENT MOMENT.",description,,,,,,,,,,,,,,,,,,,,,,,,,,,,,,,,,,,,,,,,,,,,,,,,,,,,,,,,,,,,,,,,,,,,,,,,,,,,,,,,,,,,,,,,,,,,,,,,,,,,,,,,,,,,,,,,,,,,,37,001,0,27,340,230,2022_Nov_01_1523,Experiment,2021.1.4,360.0230414876946,
,,,,,,,,,,,,,,,,,,,,,,,,,,,,,,,,,,,,,,,,,,,,,2,Interested,rating,3.0,80.51488729999983,,,,,,,,,,,,,,,,,,,,,,,,,,,,,,,,,,,,,,,,,,,,,,,,,,,,,,,,,,,,,,,,,,,,,,,,,,,,,,,,,,,,,,,,,,,,,,,,,,,,,,,,,,,,,,,,,,,37,001,0,27,340,230,2022_Nov_01_1523,Experiment,2021.1.4,360.0230414876946,
,,,,,,,,,,,,,,,,,,,,,,,,,,,,,,,,,,,,,,,,,,,,,3,Distressed,rating,2.0,98.45384980000017,,,,,,,,,,,,,,,,,,,,,,,,,,,,,,,,,,,,,,,,,,,,,,,,,,,,,,,,,,,,,,,,,,,,,,,,,,,,,,,,,,,,,,,,,,,,,,,,,,,,,,,,,,,,,,,,,,,37,001,0,27,340,230,2022_Nov_01_1523,Experiment,2021.1.4,360.0230414876946,
,,,,,,,,,,,,,,,,,,,,,,,,,,,,,,,,,,,,,,,,,,,,,4,Excited,rating,3.0,103.84649359999821,,,,,,,,,,,,,,,,,,,,,,,,,,,,,,,,,,,,,,,,,,,,,,,,,,,,,,,,,,,,,,,,,,,,,,,,,,,,,,,,,,,,,,,,,,,,,,,,,,,,,,,,,,,,,,,,,,,37,001,0,27,340,230,2022_Nov_01_1523,Experiment,2021.1.4,360.0230414876946,
,,,,,,,,,,,,,,,,,,,,,,,,,,,,,,,,,,,,,,,,,,,,,5,Upset,rating,1.0,116.19352710000021,,,,,,,,,,,,,,,,,,,,,,,,,,,,,,,,,,,,,,,,,,,,,,,,,,,,,,,,,,,,,,,,,,,,,,,,,,,,,,,,,,,,,,,,,,,,,,,,,,,,,,,,,,,,,,,,,,,37,001,0,27,340,230,2022_Nov_01_1523,Experiment,2021.1.4,360.0230414876946,
,,,,,,,,,,,,,,,,,,,,,,,,,,,,,,,,,,,,,,,,,,,,,6,Strong,rating,3.0,118.64886109999861,,,,,,,,,,,,,,,,,,,,,,,,,,,,,,,,,,,,,,,,,,,,,,,,,,,,,,,,,,,,,,,,,,,,,,,,,,,,,,,,,,,,,,,,,,,,,,,,,,,,,,,,,,,,,,,,,,,37,001,0,27,340,230,2022_Nov_01_1523,Experiment,2021.1.4,360.0230414876946,
,,,,,,,,,,,,,,,,,,,,,,,,,,,,,,,,,,,,,,,,,,,,,7,Guilty,rating,1.0,39.985187099999166,,,,,,,,,,,,,,,,,,,,,,,,,,,,,,,,,,,,,,,,,,,,,,,,,,,,,,,,,,,,,,,,,,,,,,,,,,,,,,,,,,,,,,,,,,,,,,,,,,,,,,,,,,,,,,,,,,,37,001,0,27,340,230,2022_Nov_01_1523,Experiment,2021.1.4,360.0230414876946,
,,,,,,,,,,,,,,,,,,,,,,,,,,,,,,,,,,,,,,,,,,,,,8,Scared,rating,2.0,43.9345667000016,,,,,,,,,,,,,,,,,,,,,,,,,,,,,,,,,,,,,,,,,,,,,,,,,,,,,,,,,,,,,,,,,,,,,,,,,,,,,,,,,,,,,,,,,,,,,,,,,,,,,,,,,,,,,,,,,,,37,001,0,27,340,230,2022_Nov_01_1523,Experiment,2021.1.4,360.0230414876946,
,,,,,,,,,,,,,,,,,,,,,,,,,,,,,,,,,,,,,,,,,,,,,9,Hostile,rating,1.0,30.531595099997503,,,,,,,,,,,,,,,,,,,,,,,,,,,,,,,,,,,,,,,,,,,,,,,,,,,,,,,,,,,,,,,,,,,,,,,,,,,,,,,,,,,,,,,,,,,,,,,,,,,,,,,,,,,,,,,,,,,37,001,0,27,340,230,2022_Nov_01_1523,Experiment,2021.1.4,360.0230414876946,
,,,,,,,,,,,,,,,,,,,,,,,,,,,,,,,,,,,,,,,,,,,,,10,Enthusiastic,rating,3.0,12.03999030000341,,,,,,,,,,,,,,,,,,,,,,,,,,,,,,,,,,,,,,,,,,,,,,,,,,,,,,,,,,,,,,,,,,,,,,,,,,,,,,,,,,,,,,,,,,,,,,,,,,,,,,,,,,,,,,,,,,,37,001,0,27,340,230,2022_Nov_01_1523,Experiment,2021.1.4,360.0230414876946,
,,,,,,,,,,,,,,,,,,,,,,,,,,,,,,,,,,,,,,,,,,,,,11,Proud,rating,2.0,14.75831339999786,,,,,,,,,,,,,,,,,,,,,,,,,,,,,,,,,,,,,,,,,,,,,,,,,,,,,,,,,,,,,,,,,,,,,,,,,,,,,,,,,,,,,,,,,,,,,,,,,,,,,,,,,,,,,,,,,,,37,001,0,27,340,230,2022_Nov_01_1523,Experiment,2021.1.4,360.0230414876946,
,,,,,,,,,,,,,,,,,,,,,,,,,,,,,,,,,,,,,,,,,,,,,12,Irritable,rating,1.0,18.955985700002202,,,,,,,,,,,,,,,,,,,,,,,,,,,,,,,,,,,,,,,,,,,,,,,,,,,,,,,,,,,,,,,,,,,,,,,,,,,,,,,,,,,,,,,,,,,,,,,,,,,,,,,,,,,,,,,,,,,37,001,0,27,340,230,2022_Nov_01_1523,Experiment,2021.1.4,360.0230414876946,
,,,,,,,,,,,,,,,,,,,,,,,,,,,,,,,,,,,,,,,,,,,,,13,Alert,rating,2.0,20.009807899998123,,,,,,,,,,,,,,,,,,,,,,,,,,,,,,,,,,,,,,,,,,,,,,,,,,,,,,,,,,,,,,,,,,,,,,,,,,,,,,,,,,,,,,,,,,,,,,,,,,,,,,,,,,,,,,,,,,,37,001,0,27,340,230,2022_Nov_01_1523,Experiment,2021.1.4,360.0230414876946,
,,,,,,,,,,,,,,,,,,,,,,,,,,,,,,,,,,,,,,,,,,,,,14,Ashamed,rating,1.0,18.096088400001463,,,,,,,,,,,,,,,,,,,,,,,,,,,,,,,,,,,,,,,,,,,,,,,,,,,,,,,,,,,,,,,,,,,,,,,,,,,,,,,,,,,,,,,,,,,,,,,,,,,,,,,,,,,,,,,,,,,37,001,0,27,340,230,2022_Nov_01_1523,Experiment,2021.1.4,360.0230414876946,
,,,,,,,,,,,,,,,,,,,,,,,,,,,,,,,,,,,,,,,,,,,,,15,Inspired,rating,3.0,16.8096000000005,,,,,,,,,,,,,,,,,,,,,,,,,,,,,,,,,,,,,,,,,,,,,,,,,,,,,,,,,,,,,,,,,,,,,,,,,,,,,,,,,,,,,,,,,,,,,,,,,,,,,,,,,,,,,,,,,,,37,001,0,27,340,230,2022_Nov_01_1523,Experiment,2021.1.4,360.0230414876946,
,,,,,,,,,,,,,,,,,,,,,,,,,,,,,,,,,,,,,,,,,,,,,16,Nervous,rating,3.0,13.48750839999775,,,,,,,,,,,,,,,,,,,,,,,,,,,,,,,,,,,,,,,,,,,,,,,,,,,,,,,,,,,,,,,,,,,,,,,,,,,,,,,,,,,,,,,,,,,,,,,,,,,,,,,,,,,,,,,,,,,37,001,0,27,340,230,2022_Nov_01_1523,Experiment,2021.1.4,360.0230414876946,
,,,,,,,,,,,,,,,,,,,,,,,,,,,,,,,,,,,,,,,,,,,,,17,Determined,rating,2.0,14.514172299997881,,,,,,,,,,,,,,,,,,,,,,,,,,,,,,,,,,,,,,,,,,,,,,,,,,,,,,,,,,,,,,,,,,,,,,,,,,,,,,,,,,,,,,,,,,,,,,,,,,,,,,,,,,,,,,,,,,,37,001,0,27,340,230,2022_Nov_01_1523,Experiment,2021.1.4,360.0230414876946,
,,,,,,,,,,,,,,,,,,,,,,,,,,,,,,,,,,,,,,,,,,,,,18,Attentive,rating,2.0,10.75766079999812,,,,,,,,,,,,,,,,,,,,,,,,,,,,,,,,,,,,,,,,,,,,,,,,,,,,,,,,,,,,,,,,,,,,,,,,,,,,,,,,,,,,,,,,,,,,,,,,,,,,,,,,,,,,,,,,,,,37,001,0,27,340,230,2022_Nov_01_1523,Experiment,2021.1.4,360.0230414876946,
,,,,,,,,,,,,,,,,,,,,,,,,,,,,,,,,,,,,,,,,,,,,,19,Jittery,rating,2.0,12.524974799998745,,,,,,,,,,,,,,,,,,,,,,,,,,,,,,,,,,,,,,,,,,,,,,,,,,,,,,,,,,,,,,,,,,,,,,,,,,,,,,,,,,,,,,,,,,,,,,,,,,,,,,,,,,,,,,,,,,,37,001,0,27,340,230,2022_Nov_01_1523,Experiment,2021.1.4,360.0230414876946,
,,,,,,,,,,,,,,,,,,,,,,,,,,,,,,,,,,,,,,,,,,,,,20,Active,rating,3.0,12.279691499999899,,,,,,,,,,,,,,,,,,,,,,,,,,,,,,,,,,,,,,,,,,,,,,,,,,,,,,,,,,,,,,,,,,,,,,,,,,,,,,,,,,,,,,,,,,,,,,,,,,,,,,,,,,,,,,,,,,,37,001,0,27,340,230,2022_Nov_01_1523,Experiment,2021.1.4,360.0230414876946,
,,,,,,,,,,,,,,,,,,,,,,,,,,,,,,,,,,,,,,,,,,,,,21,Afraid,rating,2.0,15.354265699999814,,,,,,,,,,,,,,,,,,,,,,,,,,,,,,,,,,,,,,,,,,,,,,,,,,,,,,,,,,,,,,,,,,,,,,,,,,,,,,,,,,,,,,,,,,,,,,,,,,,,,,,,,,,,,,,,,,,37,001,0,27,340,230,2022_Nov_01_1523,Experiment,2021.1.4,360.0230414876946,
,,,,,,,,,,,,,,,,,,,,,,,,,,,,,,,,,,,,,,,,,,,,,22,Press the + button to submit your answers,description,,,,,,,,,,,,,,,,,,,,,,,,,,,,,,,,,,,,,,,,,,,,,,,,,,,,,,,,,,,,,,,,,,,,,,,,,,,,,,,,,,,,,,,,,,,,,,,,,,,,,,,,,,,,,,,,,,,,,37,001,0,27,340,230,2022_Nov_01_1523,Experiment,2021.1.4,360.0230414876946,
,,,,,,,,,,,,,,,,,,,,,,,,,,,,,,,,,,,,,,,,,,,,,,,,,,num_add,176.29027919999862,78.07108240000161,None,,,,,,,,,,,,,,,,,,,,,,,,,,,,,,,,,,,,,,,,,,,,,,,,,,,,,,,,,,,,,,,,,,,,,,,,,,,,,,,,,,,,,,,,,,,,,,,,,,,,,,,,,,,,,,,37,001,0,27,340,230,2022_Nov_01_1523,Experiment,2021.1.4,360.0230414876946,
,,,,,,,,,,,,,,,,,,,,,,,,,,,,,,,,,,,,,,,,,,,,,,,,,,,,,,254.3916700000009,None,num_add,40.137707099998806,,,,,,,,,,,,,,,,,,,,,,,,,,,,,,,,,,,,,,,,,,,,,,,,,,,,,,,,,,,,,,,,,,,,,,,,,,,,,,,,,,,,,,,,,,,,,,,,,,,,,,,,,,,37,001,0,27,340,230,2022_Nov_01_1523,Experiment,2021.1.4,360.0230414876946,
,,,,,,,,,,,,,,,,,,,,,,,,,,,,,,,,,,,,,,,,,,,,,,,,,,,,,,,,,,294.5404112000033,None,num_add,25.63671450000038,294.5404112000033,None,,,,,,,,,,,,,,,,,,,,,,,,,,,,,,,,,,,,,,,,,,,,,,,,,,,,,,,,,,,,,,,,,,,,,,,,,,,,,,,,,,,,,,,,,,,,,,,,,,,,,37,001,0,27,340,230,2022_Nov_01_1523,Experiment,2021.1.4,360.0230414876946,
,,,,,,,,,,,,,,,,,,,,,,,,,,,,,,,,,,,,,,,,,,,,,,,,,,,,,,,,,,,,,,,,320.1963750000032,None,num_add,23.468920700001036,,,,,,,,,,,,,,,,,,,,,,,,,,,,,,,,,,,,,,,,,,,,,,,,,,,,,,,,,,,,,,,,,,,,,,,,,,,,,,,,,,,,,,,,,,,,,,,,,37,001,0,27,340,230,2022_Nov_01_1523,Experiment,2021.1.4,360.0230414876946,
,,,,,,,,,,,,,,,,,,,,,,,,,,,,,,,,,,,,,,,,,,,,,,,,,,,,,,,,,,,,,,,,,,,,343.67248050000126,None,space,71.24869899999976,,,,,,,,,,,,,,,,,,,,,,,,,,,,,,,,,,,,,,,,,,,,,,,,,,,,,,,,,,,,,,,,,,,,,,,,,,,,,,,,,,,,,,,,,,,,,37,001,0,27,340,230,2022_Nov_01_1523,Experiment,2021.1.4,360.0230414876946,
images\S21_F_H_01.png,images\S21_F_H_01_scrambled.png,21,Happy,-0.1,F,0,0,practice,off,1,0.5,0.75,0.5,0.853,3,,,,,,,,,,,0,0,0,0,,,,,,,,,,,,,,,,,,,,,,,,,,,,,,,,,,,,,,,,,,,415.0531596000001,415.5558606000013,415.5558606000013,416.3111764000023,416.3111764000023,416.8110211000021,416.8110211000021,417.6691106000035,417.6691106000035,None,num_4,1.964379100001679,417.6691106000035,None,,,,,,,,,,,,,,,,,,,,,,,,,,,,,,,,,,,,,,,,,,,,,,,,,,,,,,,,,,,,,,,,,,,,,,,,,,,,,,,37,001,0,27,340,230,2022_Nov_01_1523,Experiment,2021.1.4,360.0230414876946,
images\S21_F_H_02.png,images\S21_F_H_02_scrambled.png,21,Happy,-0.2,F,0,0,practice,off,1,0.5,0.75,0.5,0.91,3,,,,,,,,,,,0,1,1,1,,,,,,,,,,,,,,,,,,,,,,,,,,,,,,,,,,,,,,,,,,,419.687907800002,420.19056270000146,420.19056270000146,420.9402989000009,420.9402989000009,421.4457215000002,421.4457215000002,422.3594309,422.3594309,None,num_6,0.9701358999991498,422.3594309,None,,,,,,,,,,,,,,,,,,,,,,,,,,,,,,,,,,,,,,,,,,,,,,,,,,,,,,,,,,,,,,,,,,,,,,,,,,,,,,,37,001,0,27,340,230,2022_Nov_01_1523,Experiment,2021.1.4,360.0230414876946,
images\S22_M_S_02.png,images\S22_M_S_02_scrambled.png,22,Sad,0.2,M,0,0,practice,on,2,0.5,0.75,0.5,0.783,3,,,,,,,,,,,0,2,2,6,,,,,,,,,,,,,,,,,,,,,,,,,,,,,,,,,,,,,,,,,,,423.37844230000337,423.87829220000276,423.87829220000276,424.63361240000086,424.63361240000086,425.1362798000009,425.1362798000009,425.9221155000014,425.9221155000014,None,num_4,1.3753615999994508,425.9221155000014,None,,,,,,,,,,,,,,,,,,,,,,,,,,,,,,,,,,,,,,,,,,,,,,,,,,,,,,,,,,,,,,,,,,,,,,,,,,,,,,,37,001,0,27,340,230,2022_Nov_01_1523,Experiment,2021.1.4,360.0230414876946,
images\S22_M_H_02.png,images\S22_M_H_02_scrambled.png,22,Happy,-0.2,M,0,0,practice,off,1,0.5,0.75,0.5,0.883,3,,,,,,,,,,,0,3,3,2,,,,,,,,,,,,,,,,,,,,,,,,,,,,,,,,,,,,,,,,,,,427.34942570000203,427.8492699000017,427.8492699000017,428.6046062000023,428.6046062000023,429.1072711000015,429.1072711000015,429.9902769,429.9902769,None,num_6,0.8031291000006604,429.9902769,None,,,,,,,,,,,,,,,,,,,,,,,,,,,,,,,,,,,,,,,,,,,,,,,,,,,,,,,,,,,,,,,,,,,,,,,,,,,,,,,37,001,0,27,340,230,2022_Nov_01_1523,Experiment,2021.1.4,360.0230414876946,
images\S22_M_S_03.png,images\S22_M_S_03_scrambled.png,22,Sad,0.3,M,0,0,practice,on,2,0.5,0.75,0.5,0.794,3,,,,,,,,,,,0,4,4,7,,,,,,,,,,,,,,,,,,,,,,,,,,,,,,,,,,,,,,,,,,,430.84556820000216,431.34541549999994,431.34541549999994,432.0951883000016,432.0951883000016,432.59784440000294,432.59784440000294,433.3975962000004,433.3975962000004,None,num_6,1.3403813999975682,433.3975962000004,None,,,,,,,,,,,,,,,,,,,,,,,,,,,,,,,,,,,,,,,,,,,,,,,,,,,,,,,,,,,,,,,,,,,,,,,,,,,,,,,37,001,0,27,340,230,2022_Nov_01_1523,Experiment,2021.1.4,360.0230414876946,
images\S22_M_S_02.png,images\S22_M_S_02_scrambled.png,22,Sad,0.2,M,0,0,practice,off,1,0.5,0.75,0.5,0.751,3,,,,,,,,,,,0,5,5,3,,,,,,,,,,,,,,,,,,,,,,,,,,,,,,,,,,,,,,,,,,,434.80545970000094,435.3081090000014,435.3081090000014,436.063433000003,436.063433000003,436.5661596000027,436.5661596000027,437.3242100000025,437.3242100000025,None,num_6,0.6853684999987308,437.3242100000025,None,,,,,,,,,,,,,,,,,,,,,,,,,,,,,,,,,,,,,,,,,,,,,,,,,,,,,,,,,,,,,,,,,,,,,,,,,,,,,,,37,001,0,27,340,230,2022_Nov_01_1523,Experiment,2021.1.4,360.0230414876946,
images\S22_M_S_01.png,images\S22_M_S_01_scrambled.png,22,Sad,0.1,M,0,0,practice,on,2,0.5,0.75,0.5,0.867,3,,,,,,,,,,,0,6,6,5,,,,,,,,,,,,,,,,,,,,,,,,,,,,,,,,,,,,,,,,,,,438.0655697000002,438.5681906000027,438.5681906000027,439.32075729999997,439.32075729999997,439.8234345000019,439.8234345000019,440.6953336000006,440.6953336000006,None,num_4,0.7702714000006381,440.6953336000006,None,,,,,,,,,,,,,,,,,,,,,,,,,,,,,,,,,,,,,,,,,,,,,,,,,,,,,,,,,,,,,,,,,,,,,,,,,,,,,,,37,001,0,27,340,230,2022_Nov_01_1523,Experiment,2021.1.4,360.0230414876946,
images\S22_M_S_03.png,images\S22_M_S_03_scrambled.png,22,Sad,0.3,M,0,0,practice,on,2,0.5,0.75,0.5,0.87,3,,,,,,,,,,,0,7,7,4,,,,,,,,,,,,,,,,,,,,,,,,,,,,,,,,,,,,,,,,,,,441.54228480000165,442.0448875000002,442.0448875000002,442.79466590000084,442.79466590000084,443.2973204000009,443.2973204000009,444.1693002000029,444.1693002000029,None,num_6,0.8883724999977858,444.1693002000029,None,,,,,,,,,,,,,,,,,,,,,,,,,,,,,,,,,,,,,,,,,,,,,,,,,,,,,,,,,,,,,,,,,,,,,,,,,,,,,,,37,001,0,27,340,230,2022_Nov_01_1523,Experiment,2021.1.4,360.0230414876946,
,,,,,,,,,,,,,,,,,,,,,,,,,,,,,,,,,,,,,,,,,,,,,,,,,,,,,,,,,,,,,,,,,,,,,,,,,,,,,,,,,,,,,,445.09672500000306,None,space,76.52008389999901,,,,,,,,,,,,,,,,,,,,,,,,,,,,,,,,,,,,,,,,,,,,,,,,,,,,,,,,,,,,,,,,,,,,,,,,,,,37,001,0,27,340,230,2022_Nov_01_1523,Experiment,2021.1.4,360.0230414876946,
images\S7_F_S_02.png,images\S7_F_S_02_scrambled.png,7,sad,-20,female,2,,581,on,2,0.5,0.75,0.5,0.908,3,580,1,1,1,2,2,32,128,162,,,,,,0,0,0,0,,,,,,,,,,,,,,,,,,,,,,,,,,,,,,,,,,,,,,,,,,,,,,,,,,,,,,,,,522.1035224000007,522.6061310000005,522.6061310000005,523.3559024000024,523.3559024000024,523.8614534000008,523.8614534000008,524.7721994000021,524.7721994000021,None,num_4,0.9974089999996067,524.7721994000021,None,happy,1,Sad,525.7857431000011,None,None,525.7857431000011,None,,,,,,,,,,,,,,,,,,,,,,,,,,,,,,,,,,,,,,,,,,,,,,,,,,,,,37,001,0,27,340,230,2022_Nov_01_1523,Experiment,2021.1.4,360.0230414876946,
images\S3_F_S_01.png,images\S3_F_S_01_scrambled.png,3,sad,-10,female,3,,556,on,2,0.5,0.75,0.5,0.909,3,555,2,1,1,2,2,32,128,163,,,,,,0,1,1,1,,,,,,,,,,,,,,,,,,,,,,,,,,,,,,,,,,,,,,,,,,,,,,,,,,,,,,,,,525.8357031000014,526.3411197000023,526.3411197000023,527.0964353000018,527.0964353000018,527.5962810000019,527.5962810000019,528.5043211000011,528.5043211000011,None,num_4,0.5132204000001366,528.5043211000011,None,happy,1,Sad,529.0293006000022,None,None,529.0293006000022,None,,,,,,,,,,,,,,,,,,,,,,,,,,,,,,,,,,,,,,,,,,,,,,,,,,,,,37,001,0,27,340,230,2022_Nov_01_1523,Experiment,2021.1.4,360.0230414876946,
images\S2_M_S_02.png,images\S2_M_S_02_scrambled.png,2,sad,-20,male,2,,311,on,2,0.5,0.75,0.5,0.863,3,310,3,1,1,2,2,32,128,162,,,,,,0,2,2,2,,,,,,,,,,,,,,,,,,,,,,,,,,,,,,,,,,,,,,,,,,,,,,,,,,,,,,,,,529.0874765000008,529.5929514000018,529.5929514000018,530.3483155000031,530.3483155000031,530.8537338000024,530.8537338000024,531.7229205000003,531.7229205000003,None,num_6,0.4465028999984497,531.7229205000003,None,sad,1,Sad,532.1977229000012,None,None,532.1977229000012,None,,,,,,,,,,,,,,,,,,,,,,,,,,,,,,,,,,,,,,,,,,,,,,,,,,,,,37,001,0,27,340,230,2022_Nov_01_1523,Experiment,2021.1.4,360.0230414876946,
images\S4_M_H_03.png,images\S4_M_H_03_scrambled.png,4,happy,30,male,6,,381,off,1,0.5,0.75,0.5,0.757,3,380,1,1,1,0,0,0,0,6,,,,,,0,3,3,3,,,,,,,,,,,,,,,,,,,,,,,,,,,,,,,,,,,,,,,,,,,,,,,,,,,,,,,,,532.2503901000018,532.7558107000004,532.7558107000004,533.5084573000022,533.5084573000022,534.0138112000022,534.0138112000022,534.7746461000024,534.7746461000024,None,num_4,0.850719999998546,534.7746461000024,None,happy,1,Happy,535.6410780000006,None,None,535.6410780000006,None,,,,,,,,,,,,,,,,,,,,,,,,,,,,,,,,,,,,,,,,,,,,,,,,,,,,,37,001,0,27,340,230,2022_Nov_01_1523,Experiment,2021.1.4,360.0230414876946,
images\S8_M_H_01.png,images\S8_M_H_01_scrambled.png,8,happy,10,male,4,,103,on,2,0.5,0.75,0.5,0.78,3,102,1,1,1,2,2,32,128,164,,,,,,0,4,4,4,,,,,,,,,,,,,,,,,,,,,,,,,,,,,,,,,,,,,,,,,,,,,,,,,,,,,,,,,535.6909957000025,536.196408900003,536.196408900003,536.9461736000012,536.9461736000012,537.4489216000002,537.4489216000002,538.2346913000001,538.2346913000001,None,num_4,0.7427000000025146,538.2346913000001,None,happy,1,Happy,538.9872402000022,None,None,538.9872402000022,None,,,,,,,,,,,,,,,,,,,,,,,,,,,,,,,,,,,,,,,,,,,,,,,,,,,,,37,001,0,27,340,230,2022_Nov_01_1523,Experiment,2021.1.4,360.0230414876946,
images\S5_F_S_01.png,images\S5_F_S_01_scrambled.png,5,sad,-10,female,3,,88,on,2,0.5,0.75,0.5,0.859,3,87,2,1,1,2,2,32,128,163,,,,,,0,5,5,5,,,,,,,,,,,,,,,,,,,,,,,,,,,,,,,,,,,,,,,,,,,,,,,,,,,,,,,,,539.0343992000016,539.5398433000009,539.5398433000009,540.2951581000016,540.2951581000016,540.800558400002,540.800558400002,541.6642033000026,541.6642033000026,None,num_4,0.5771478999995452,541.6642033000026,None,happy,1,Sad,542.2500651000003,None,None,542.2500651000003,None,,,,,,,,,,,,,,,,,,,,,,,,,,,,,,,,,,,,,,,,,,,,,,,,,,,,,37,001,0,27,340,230,2022_Nov_01_1523,Experiment,2021.1.4,360.0230414876946,
images\S2_M_H_02.png,images\S2_M_H_02_scrambled.png,2,happy,20,male,5,,248,off,1,0.5,0.75,0.5,0.779,3,247,1,1,1,0,0,0,0,5,,,,,,0,6,6,6,,,,,,,,,,,,,,,,,,,,,,,,,,,,,,,,,,,,,,,,,,,,,,,,,,,,,,,,,542.2972874000006,542.7999295000009,542.7999295000009,543.5496769000019,543.5496769000019,544.0524157,544.0524157,544.8382277000019,544.8382277000019,None,num_6,0.6992562999985239,544.8382277000019,None,sad,1,Happy,545.5462650000002,None,None,545.5462650000002,None,,,,,,,,,,,,,,,,,,,,,,,,,,,,,,,,,,,,,,,,,,,,,,,,,,,,,37,001,0,27,340,230,2022_Nov_01_1523,Experiment,2021.1.4,360.0230414876946,
images\S10_M_H_03.png,images\S10_M_H_03_scrambled.png,10,happy,30,male,6,,597,on,2,0.5,0.75,0.5,0.855,3,596,1,1,1,2,2,32,128,166,,,,,,0,7,7,7,,,,,,,,,,,,,,,,,,,,,,,,,,,,,,,,,,,,,,,,,,,,,,,,,,,,,,,,,545.5934965000015,546.096135900003,546.096135900003,546.8458810000011,546.8458810000011,547.3486241000028,547.3486241000028,548.2094069000013,548.2094069000013,None,num_4,0.5118077999977686,548.2094069000013,None,happy,1,Happy,548.7369880999998,None,None,548.7369880999998,None,,,,,,,,,,,,,,,,,,,,,,,,,,,,,,,,,,,,,,,,,,,,,,,,,,,,,37,001,0,27,340,230,2022_Nov_01_1523,Experiment,2021.1.4,360.0230414876946,
images\S9_F_S_02.png,images\S9_F_S_02_scrambled.png,9,sad,-20,female,2,,593,on,2,0.5,0.75,0.5,0.773,3,592,2,1,1,2,2,32,128,162,,,,,,0,8,8,8,,,,,,,,,,,,,,,,,,,,,,,,,,,,,,,,,,,,,,,,,,,,,,,,,,,,,,,,,548.7841773,549.2896133000031,549.2896133000031,550.0449284000024,550.0449284000024,550.5476480000034,550.5476480000034,551.3250577000035,551.3250577000035,None,num_6,0.508302599999297,551.3250577000035,None,sad,1,Sad,551.8471737000021,None,None,551.8471737000021,None,,,,,,,,,,,,,,,,,,,,,,,,,,,,,,,,,,,,,,,,,,,,,,,,,,,,,37,001,0,27,340,230,2022_Nov_01_1523,Experiment,2021.1.4,360.0230414876946,
images\S4_M_H_03.png,images\S4_M_H_03_scrambled.png,4,happy,30,male,6,,21,off,1,0.5,0.75,0.5,0.832,3,20,1,1,1,0,0,0,0,6,,,,,,0,9,9,9,,,,,,,,,,,,,,,,,,,,,,,,,,,,,,,,,,,,,,,,,,,,,,,,,,,,,,,,,551.8943297000005,552.3969576000018,552.3969576000018,553.1523132000002,553.1523132000002,553.6577104000025,553.6577104000025,554.4991593000013,554.4991593000013,None,num_4,0.4383172000016202,554.4991593000013,None,happy,1,Happy,554.9517189999991,None,None,554.9517189999991,None,,,,,,,,,,,,,,,,,,,,,,,,,,,,,,,,,,,,,,,,,,,,,,,,,,,,,37,001,0,27,340,230,2022_Nov_01_1523,Experiment,2021.1.4,360.0230414876946,
images\S9_F_S_03.png,images\S9_F_S_03_scrambled.png,9,sad,-30,female,1,,414,off,1,0.5,0.75,0.5,0.81,3,413,2,1,1,0,0,0,0,1,,,,,,0,10,10,10,,,,,,,,,,,,,,,,,,,,,,,,,,,,,,,,,,,,,,,,,,,,,,,,,,,,,,,,,554.998926100001,555.5015734000008,555.5015734000008,556.2513344000035,556.2513344000035,556.7511877000034,556.7511877000034,557.5648398000012,557.5648398000012,None,num_6,0.3810596999974223,557.5648398000012,None,sad,1,Sad,557.9647998000015,None,None,557.9647998000015,None,,,,,,,,,,,,,,,,,,,,,,,,,,,,,,,,,,,,,,,,,,,,,,,,,,,,,37,001,0,27,340,230,2022_Nov_01_1523,Experiment,2021.1.4,360.0230414876946,
images\S3_F_S_01.png,images\S3_F_S_01_scrambled.png,3,sad,-10,female,3,,436,on,2,0.5,0.75,0.5,0.845,3,435,1,1,1,2,2,32,128,163,,,,,,0,11,11,11,,,,,,,,,,,,,,,,,,,,,,,,,,,,,,,,,,,,,,,,,,,,,,,,,,,,,,,,,558.0174376000032,558.5228583000026,558.5228583000026,559.2753810000031,559.2753810000031,559.7780031000002,559.7780031000002,560.627781500003,560.627781500003,None,num_6,0.565534999997908,560.627781500003,None,sad,1,Sad,561.2109318000024,None,None,561.2109318000024,None,,,,,,,,,,,,,,,,,,,,,,,,,,,,,,,,,,,,,,,,,,,,,,,,,,,,,37,001,0,27,340,230,2022_Nov_01_1523,Experiment,2021.1.4,360.0230414876946,
images\S1_F_H_01.png,images\S1_F_H_01_scrambled.png,1,happy,10,female,4,,421,on,2,0.5,0.75,0.5,0.85,3,420,2,1,1,2,2,32,128,164,,,,,,0,12,12,12,,,,,,,,,,,,,,,,,,,,,,,,,,,,,,,,,,,,,,,,,,,,,,,,,,,,,,,,,561.2581104000019,561.7636384000034,561.7636384000034,562.5188882000002,562.5188882000002,563.0242800000015,563.0242800000015,563.8795567000016,563.8795567000016,None,num_4,0.5697054999982356,563.8795567000016,None,happy,1,Happy,564.4627413999988,None,None,564.4627413999988,None,,,,,,,,,,,,,,,,,,,,,,,,,,,,,,,,,,,,,,,,,,,,,,,,,,,,,37,001,0,27,340,230,2022_Nov_01_1523,Experiment,2021.1.4,360.0230414876946,
images\S9_F_H_01.png,images\S9_F_H_01_scrambled.png,9,happy,10,female,4,,289,off,1,0.5,0.75,0.5,0.875,3,288,1,1,2,0,0,0,0,4,,,,,,0,13,13,13,,,,,,,,,,,,,,,,,,,,,,,,,,,,,,,,,,,,,,,,,,,,,,,,,,,,,,,,,564.5098785000009,565.0152721000013,565.0152721000013,565.770622400003,565.770622400003,566.2733105000007,566.2733105000007,567.1507197000028,567.1507197000028,None,num_4,0.6107479000020248,567.1507197000028,None,happy,1,Happy,567.7839916999991,None,None,567.7839916999991,None,,,,,,,,,,,,,,,,,,,,,,,,,,,,,,,,,,,,,,,,,,,,,,,,,,,,,37,001,0,27,340,230,2022_Nov_01_1523,Experiment,2021.1.4,360.0230414876946,
images\S6_M_S_01.png,images\S6_M_S_01_scrambled.png,6,sad,-10,male,3,,274,off,1,0.5,0.75,0.5,0.925,3,273,2,1,1,0,0,0,0,3,,,,,,0,14,14,14,,,,,,,,,,,,,,,,,,,,,,,,,,,,,,,,,,,,,,,,,,,,,,,,,,,,,,,,,567.8477428000006,568.3503894000023,568.3503894000023,569.1030015000033,569.1030015000033,569.6084541000018,569.6084541000018,570.5358159000025,570.5358159000025,None,num_6,0.6338740999999573,570.5358159000025,None,sad,1,Sad,571.1912852000002,None,None,571.1912852000002,None,,,,,,,,,,,,,,,,,,,,,,,,,,,,,,,,,,,,,,,,,,,,,,,,,,,,,37,001,0,27,340,230,2022_Nov_01_1523,Experiment,2021.1.4,360.0230414876946,
images\blank.jpg,images\blank.jpg,none,none,none,none,0,,611,on,2,0.5,0.75,0.5,0.847,0,610,1,1,1,3,3,48,192,240,,,,,,0,15,15,15,,,,,,,,,,,,,,,,,,,,,,,,,,,,,,,,,,,,,,,,,,,,,,,,,,,,,,,,,571.2746921000034,571.7743150000024,571.7743150000024,572.5296455000025,572.5296455000025,573.0322648000001,573.0322648000001,573.879251600003,573.879251600003,573.879251600003,None,,573.879251600003,None,miss,1,,576.8811458000011,None,None,576.8811458000011,None,,,,,,,,,,,,,,,,,,,,,,,,,,,,,,,,,,,,,,,,,,,,,,,,,,,,,37,001,0,27,340,230,2022_Nov_01_1523,Experiment,2021.1.4,360.0230414876946,
images\S8_M_S_02.png,images\S8_M_S_02_scrambled.png,8,sad,-20,male,2,,407,off,1,0.5,0.75,0.5,0.838,3,406,1,1,1,0,0,0,0,2,,,,,,0,16,16,16,,,,,,,,,,,,,,,,,,,,,,,,,,,,,,,,,,,,,,,,,,,,,,,,,,,,,,,,,577.0035075000014,577.5030815000027,577.5030815000027,578.252851600002,578.252851600002,578.7527575000022,578.7527575000022,579.5942456000012,579.5942456000012,None,num_6,0.7669905000002473,579.5942456000012,577.0035075000014,sad,1,Sad,580.3716903000008,None,None,580.3716903000008,None,,,,,,,,,,,,,,,,,,,,,,,,,,,,,,,,,,,,,,,,,,,,,,,,,,,,,37,001,0,27,340,230,2022_Nov_01_1523,Experiment,2021.1.4,360.0230414876946,
images\S7_F_H_03.png,images\S7_F_H_03_scrambled.png,7,happy,30,female,6,,579,on,2,0.5,0.75,0.5,0.814,3,578,1,1,1,2,2,32,128,166,,,,,,0,17,17,17,,,,,,,,,,,,,,,,,,,,,,,,,,,,,,,,,,,,,,,,,,,,,,,,,,,,,,,,,580.4188632000005,580.9186856000015,580.9186856000015,581.6684729000008,581.6684729000008,582.1740008000015,582.1740008000015,582.9903252000004,582.9903252000004,None,num_4,0.5631374000004143,582.9903252000004,None,happy,1,Happy,583.5678843000009,None,None,583.5678843000009,None,,,,,,,,,,,,,,,,,,,,,,,,,,,,,,,,,,,,,,,,,,,,,,,,,,,,,37,001,0,27,340,230,2022_Nov_01_1523,Experiment,2021.1.4,360.0230414876946,
images\S3_F_H_03.png,images\S3_F_H_03_scrambled.png,3,happy,30,female,6,,75,on,2,0.5,0.75,0.5,0.865,3,74,2,1,2,2,2,32,128,166,,,,,,0,18,18,18,,,,,,,,,,,,,,,,,,,,,,,,,,,,,,,,,,,,,,,,,,,,,,,,,,,,,,,,,583.6150955000012,584.1205259000017,584.1205259000017,584.8731836000006,584.8731836000006,585.3785333000014,585.3785333000014,586.2477189000019,586.2477189000019,None,num_4,0.5137950999996974,586.2477189000019,None,happy,1,Happy,586.7892288999982,None,None,586.7892288999982,None,,,,,,,,,,,,,,,,,,,,,,,,,,,,,,,,,,,,,,,,,,,,,,,,,,,,,37,001,0,27,340,230,2022_Nov_01_1523,Experiment,2021.1.4,360.0230414876946,
images\S10_M_H_03.png,images\S10_M_H_03_scrambled.png,10,happy,30,male,6,,417,off,1,0.5,0.75,0.5,0.88,3,416,1,1,3,0,0,0,0,6,,,,,,0,19,19,19,,,,,,,,,,,,,,,,,,,,,,,,,,,,,,,,,,,,,,,,,,,,,,,,,,,,,,,,,586.8446531000009,587.3500879000021,587.3500879000021,588.0998179000017,588.0998179000017,588.5996652000031,588.5996652000031,589.4828486000006,589.4828486000006,None,num_4,0.5665943999993033,589.4828486000006,None,happy,1,Happy,590.0630990000012,None,None,590.0630990000012,None,,,,,,,,,,,,,,,,,,,,,,,,,,,,,,,,,,,,,,,,,,,,,,,,,,,,,37,001,0,27,340,230,2022_Nov_01_1523,Experiment,2021.1.4,360.0230414876946,
images\S4_M_S_01.png,images\S4_M_S_01_scrambled.png,4,sad,-10,male,3,,82,on,2,0.5,0.75,0.5,0.856,3,81,1,1,1,2,2,32,128,163,,,,,,0,20,20,20,,,,,,,,,,,,,,,,,,,,,,,,,,,,,,,,,,,,,,,,,,,,,,,,,,,,,,,,,590.1130909000021,590.6157496000014,590.6157496000014,591.3710619000012,591.3710619000012,591.8737813000007,591.8737813000007,592.7346216000005,592.7346216000005,None,num_6,0.44259990000136895,592.7346216000005,None,sad,1,Sad,593.1927204000007,None,None,593.1927204000007,None,,,,,,,,,,,,,,,,,,,,,,,,,,,,,,,,,,,,,,,,,,,,,,,,,,,,,37,001,0,27,340,230,2022_Nov_01_1523,Experiment,2021.1.4,360.0230414876946,
images\S9_F_H_03.png,images\S9_F_H_03_scrambled.png,9,happy,30,female,6,,471,on,2,0.5,0.75,0.5,0.923,3,470,2,1,1,2,2,32,128,166,,,,,,0,21,21,21,,,,,,,,,,,,,,,,,,,,,,,,,,,,,,,,,,,,,,,,,,,,,,,,,,,,,,,,,593.2399172000005,593.7453363000022,593.7453363000022,594.4950788000024,594.4950788000024,595.0005125000025,595.0005125000025,595.9279923000031,595.9279923000031,None,num_4,0.44194810000044527,595.9279923000031,None,happy,1,Happy,596.3890595999998,None,None,596.3890595999998,None,,,,,,,,,,,,,,,,,,,,,,,,,,,,,,,,,,,,,,,,,,,,,,,,,,,,,37,001,0,27,340,230,2022_Nov_01_1523,Experiment,2021.1.4,360.0230414876946,
images\S8_M_H_01.png,images\S8_M_H_01_scrambled.png,8,happy,10,male,4,,523,off,1,0.5,0.75,0.5,0.814,3,522,1,1,1,0,0,0,0,4,,,,,,0,22,22,22,,,,,,,,,,,,,,,,,,,,,,,,,,,,,,,,,,,,,,,,,,,,,,,,,,,,,,,,,596.4389166000001,596.9443940000019,596.9443940000019,597.6997287000013,597.6997287000013,598.1995083000002,598.1995083000002,599.0159263000023,599.0159263000023,None,num_6,0.5619127999998454,599.0159263000023,None,sad,1,Happy,599.5880432000021,None,None,599.5880432000021,None,,,,,,,,,,,,,,,,,,,,,,,,,,,,,,,,,,,,,,,,,,,,,,,,,,,,,37,001,0,27,340,230,2022_Nov_01_1523,Experiment,2021.1.4,360.0230414876946,
images\S6_M_H_01.png,images\S6_M_H_01_scrambled.png,6,happy,10,male,4,,331,on,2,0.5,0.75,0.5,0.791,3,330,1,1,2,2,2,32,128,164,,,,,,0,23,23,23,,,,,,,,,,,,,,,,,,,,,,,,,,,,,,,,,,,,,,,,,,,,,,,,,,,,,,,,,599.643475300003,600.1461351000034,600.1461351000034,600.8958740000016,600.8958740000016,601.3986371999999,601.3986371999999,602.1955121999999,602.1955121999999,None,num_4,0.9817184999992605,602.1955121999999,None,happy,1,Happy,603.1923833999994,None,None,603.1923833999994,None,,,,,,,,,,,,,,,,,,,,,,,,,,,,,,,,,,,,,,,,,,,,,,,,,,,,,37,001,0,27,340,230,2022_Nov_01_1523,Experiment,2021.1.4,360.0230414876946,
images\S10_M_S_01.png,images\S10_M_S_01_scrambled.png,10,sad,-10,male,3,,298,off,1,0.5,0.75,0.5,0.903,3,297,1,1,1,0,0,0,0,3,,,,,,0,24,24,24,,,,,,,,,,,,,,,,,,,,,,,,,,,,,,,,,,,,,,,,,,,,,,,,,,,,,,,,,603.2395985000003,603.7422124000004,603.7422124000004,604.4919825000034,604.4919825000034,604.9947509000012,604.9947509000012,605.9000194,605.9000194,None,num_6,0.6053031999981613,605.9000194,None,sad,1,Sad,606.5191567999995,None,None,606.5191567999995,None,,,,,,,,,,,,,,,,,,,,,,,,,,,,,,,,,,,,,,,,,,,,,,,,,,,,,37,001,0,27,340,230,2022_Nov_01_1523,Experiment,2021.1.4,360.0230414876946,
images\S1_F_S_02.png,images\S1_F_S_02_scrambled.png,1,sad,-20,female,2,,305,on,2,0.5,0.75,0.5,0.855,3,304,1,1,1,2,2,32,128,162,,,,,,0,25,25,25,,,,,,,,,,,,,,,,,,,,,,,,,,,,,,,,,,,,,,,,,,,,,,,,,,,,,,,,,606.566345700001,607.071783000003,607.071783000003,607.8270931000006,607.8270931000006,608.3298181000027,608.3298181000027,609.1877876000035,609.1877876000035,None,num_4,0.6134936999987985,609.1877876000035,None,happy,1,Sad,609.809792700001,None,None,609.809792700001,None,,,,,,,,,,,,,,,,,,,,,,,,,,,,,,,,,,,,,,,,,,,,,,,,,,,,,37,001,0,27,340,230,2022_Nov_01_1523,Experiment,2021.1.4,360.0230414876946,
images\S3_F_H_03.png,images\S3_F_H_03_scrambled.png,3,happy,30,female,6,,375,off,1,0.5,0.75,0.5,0.805,3,374,1,1,1,0,0,0,0,6,,,,,,0,26,26,26,,,,,,,,,,,,,,,,,,,,,,,,,,,,,,,,,,,,,,,,,,,,,,,,,,,,,,,,,609.8569880000032,610.3568481000002,610.3568481000002,611.1122054000007,611.1122054000007,611.6176035000026,611.6176035000026,612.4284439000003,612.4284439000003,None,num_4,0.6208703000011155,612.4284439000003,None,happy,1,Happy,613.0643380999994,None,None,613.0643380999994,None,,,,,,,,,,,,,,,,,,,,,,,,,,,,,,,,,,,,,,,,,,,,,,,,,,,,,37,001,0,27,340,230,2022_Nov_01_1523,Experiment,2021.1.4,360.0230414876946,
images\S7_F_H_01.png,images\S7_F_H_01_scrambled.png,7,happy,10,female,4,,277,off,1,0.5,0.75,0.5,0.868,3,276,2,1,1,0,0,0,0,4,,,,,,0,27,27,27,,,,,,,,,,,,,,,,,,,,,,,,,,,,,,,,,,,,,,,,,,,,,,,,,,,,,,,,,613.1143197000019,613.6169438000034,613.6169438000034,614.3695477000001,614.3695477000001,614.8721597000003,614.8721597000003,615.7468913000012,615.7468913000012,None,num_4,0.5511946000005992,615.7468913000012,None,happy,1,Happy,616.3219141000017,None,None,616.3219141000017,None,,,,,,,,,,,,,,,,,,,,,,,,,,,,,,,,,,,,,,,,,,,,,,,,,,,,,37,001,0,27,340,230,2022_Nov_01_1523,Experiment,2021.1.4,360.0230414876946,
images\S1_F_H_01.png,images\S1_F_H_01_scrambled.png,1,happy,10,female,4,,481,off,1,0.5,0.75,0.5,0.855,3,480,3,1,2,0,0,0,0,4,,,,,,0,28,28,28,,,,,,,,,,,,,,,,,,,,,,,,,,,,,,,,,,,,,,,,,,,,,,,,,,,,,,,,,616.374429800002,616.8770803000007,616.8770803000007,617.6296081,617.6296081,618.1350309000009,618.1350309000009,618.9930627000031,618.9930627000031,None,num_4,0.4560926999984076,618.9930627000031,None,happy,1,Happy,619.4623696000002,None,None,619.4623696000002,None,,,,,,,,,,,,,,,,,,,,,,,,,,,,,,,,,,,,,,,,,,,,,,,,,,,,,37,001,0,27,340,230,2022_Nov_01_1523,Experiment,2021.1.4,360.0230414876946,
images\S5_F_H_02.png,images\S5_F_H_02_scrambled.png,5,happy,20,female,5,,206,on,2,0.5,0.75,0.5,0.786,3,205,1,1,1,2,2,32,128,165,,,,,,0,29,29,29,,,,,,,,,,,,,,,,,,,,,,,,,,,,,,,,,,,,,,,,,,,,,,,,,,,,,,,,,619.5095711000031,620.0122140000021,620.0122140000021,620.764834200003,620.764834200003,621.2701858,621.2701858,622.0588586000013,622.0588586000013,None,num_4,0.6145061000024725,622.0588586000013,None,happy,1,Happy,622.6975759000009,None,None,622.6975759000009,None,,,,,,,,,,,,,,,,,,,,,,,,,,,,,,,,,,,,,,,,,,,,,,,,,,,,,37,001,0,27,340,230,2022_Nov_01_1523,Experiment,2021.1.4,360.0230414876946,
images\S4_M_S_03.png,images\S4_M_S_03_scrambled.png,4,sad,-30,male,1,,204,on,2,0.5,0.75,0.5,0.846,3,203,2,1,1,2,2,32,128,161,,,,,,0,30,30,30,,,,,,,,,,,,,,,,,,,,,,,,,,,,,,,,,,,,,,,,,,,,,,,,,,,,,,,,,622.750239500001,623.2528642000034,623.2528642000034,624.0054387000018,624.0054387000018,624.5108362999999,624.5108362999999,625.3577800000021,625.3577800000021,None,num_6,0.42743220000193105,625.3577800000021,None,sad,1,Sad,625.7965902000018,None,None,625.7965902000018,None,,,,,,,,,,,,,,,,,,,,,,,,,,,,,,,,,,,,,,,,,,,,,,,,,,,,,37,001,0,27,340,230,2022_Nov_01_1523,Experiment,2021.1.4,360.0230414876946,
images\S6_M_S_03.png,images\S6_M_S_03_scrambled.png,6,sad,-30,male,1,,576,on,2,0.5,0.75,0.5,0.783,3,575,3,1,2,2,2,32,128,161,,,,,,0,31,31,31,,,,,,,,,,,,,,,,,,,,,,,,,,,,,,,,,,,,,,,,,,,,,,,,,,,,,,,,,625.8465108000019,626.349140600003,626.349140600003,627.101713600001,627.101713600001,627.604431300002,627.604431300002,628.3903015000033,628.3903015000033,None,num_6,0.5789820999998483,628.3903015000033,None,sad,1,Sad,628.9955933999998,None,None,628.9955933999998,None,,,,,,,,,,,,,,,,,,,,,,,,,,,,,,,,,,,,,,,,,,,,,,,,,,,,,37,001,0,27,340,230,2022_Nov_01_1523,Experiment,2021.1.4,360.0230414876946,
images\S6_M_S_01.png,images\S6_M_S_01_scrambled.png,6,sad,-10,male,3,,334,on,2,0.5,0.75,0.5,0.922,3,333,4,2,1,2,2,32,128,163,,,,,,0,32,32,32,,,,,,,,,,,,,,,,,,,,,,,,,,,,,,,,,,,,,,,,,,,,,,,,,,,,,,,,,629.0482974000006,629.5509626000021,629.5509626000021,630.300722,630.300722,630.8061473000016,630.8061473000016,631.7308290000001,631.7308290000001,None,num_6,0.5906619999987015,631.7308290000001,None,sad,1,Sad,632.3334634000006,None,None,632.3334634000006,None,,,,,,,,,,,,,,,,,,,,,,,,,,,,,,,,,,,,,,,,,,,,,,,,,,,,,37,001,0,27,340,230,2022_Nov_01_1523,Experiment,2021.1.4,360.0230414876946,
images\blank.jpg,images\blank.jpg,none,none,none,none,0,,645,on,2,0.5,0.75,0.5,0.861,0,644,5,1,1,3,3,48,192,240,,,,,,0,33,33,33,,,,,,,,,,,,,,,,,,,,,,,,,,,,,,,,,,,,,,,,,,,,,,,,,,,,,,,,,632.4169322000016,632.9221384000011,632.9221384000011,633.6746740000017,633.6746740000017,634.1772978000008,634.1772978000008,635.0409433000023,635.0409433000023,635.0409433000023,None,,635.0409433000023,None,miss,1,,638.0428176000016,None,None,638.0428176000016,None,,,,,,,,,,,,,,,,,,,,,,,,,,,,,,,,,,,,,,,,,,,,,,,,,,,,,37,001,0,27,340,230,2022_Nov_01_1523,Experiment,2021.1.4,360.0230414876946,
images\S9_F_H_02.png,images\S9_F_H_02_scrambled.png,9,happy,20,female,5,,290,off,1,0.5,0.75,0.5,0.83,3,289,1,1,1,0,0,0,0,5,,,,,,0,34,34,34,,,,,,,,,,,,,,,,,,,,,,,,,,,,,,,,,,,,,,,,,,,,,,,,,,,,,,,,,638.1624352000035,638.6619837000035,638.6619837000035,639.4117661000018,639.4117661000018,639.9116180000019,639.9116180000019,640.7447292000033,640.7447292000033,None,num_4,0.6884663000018918,640.7447292000033,638.1624352000035,happy,1,Happy,641.444527500002,None,None,641.444527500002,None,,,,,,,,,,,,,,,,,,,,,,,,,,,,,,,,,,,,,,,,,,,,,,,,,,,,,37,001,0,27,340,230,2022_Nov_01_1523,Experiment,2021.1.4,360.0230414876946,
images\S5_F_H_01.png,images\S5_F_H_01_scrambled.png,5,happy,10,female,4,,25,off,1,0.5,0.75,0.5,0.755,3,24,2,1,1,0,0,0,0,4,,,,,,0,35,35,35,,,,,,,,,,,,,,,,,,,,,,,,,,,,,,,,,,,,,,,,,,,,,,,,,,,,,,,,,641.4916835000004,641.9915246000019,641.9915246000019,642.7440859000017,642.7440859000017,643.2494907,643.2494907,644.0076530000006,644.0076530000006,None,num_4,0.537785200001963,644.0076530000006,None,happy,1,Happy,644.5769080999999,None,None,644.5769080999999,None,,,,,,,,,,,,,,,,,,,,,,,,,,,,,,,,,,,,,,,,,,,,,,,,,,,,,37,001,0,27,340,230,2022_Nov_01_1523,Experiment,2021.1.4,360.0230414876946,
images\S3_F_H_01.png,images\S3_F_H_01_scrambled.png,3,happy,10,female,4,,73,on,2,0.5,0.75,0.5,0.768,3,72,1,1,2,2,2,32,128,164,,,,,,0,36,36,36,,,,,,,,,,,,,,,,,,,,,,,,,,,,,,,,,,,,,,,,,,,,,,,,,,,,,,,,,644.6296007000019,645.1322333000026,645.1322333000026,645.8820296000013,645.8820296000013,646.3847411000024,646.3847411000024,647.1594650000006,647.1594650000006,None,num_6,0.4337171000006492,647.1594650000006,None,sad,1,Happy,647.6009841000022,None,None,647.6009841000022,None,,,,,,,,,,,,,,,,,,,,,,,,,,,,,,,,,,,,,,,,,,,,,,,,,,,,,37,001,0,27,340,230,2022_Nov_01_1523,Experiment,2021.1.4,360.0230414876946,
images\S3_F_H_02.png,images\S3_F_H_02_scrambled.png,3,happy,20,female,5,,434,on,2,0.5,0.75,0.5,0.897,3,433,2,2,1,2,2,32,128,165,,,,,,0,37,37,37,,,,,,,,,,,,,,,,,,,,,,,,,,,,,,,,,,,,,,,,,,,,,,,,,,,,,,,,,647.662000100001,648.1674033000018,648.1674033000018,648.9171830000014,648.9171830000014,649.4198431000004,649.4198431000004,650.3196635000022,650.3196635000022,None,num_4,0.4178656999974919,650.3196635000022,None,happy,1,Happy,650.7527291999999,None,None,650.7527291999999,None,,,,,,,,,,,,,,,,,,,,,,,,,,,,,,,,,,,,,,,,,,,,,,,,,,,,,37,001,0,27,340,230,2022_Nov_01_1523,Experiment,2021.1.4,360.0230414876946,
images\S7_F_S_02.png,images\S7_F_S_02_scrambled.png,7,sad,-20,female,2,,101,on,2,0.5,0.75,0.5,0.775,3,100,3,1,1,2,2,32,128,162,,,,,,0,38,38,38,,,,,,,,,,,,,,,,,,,,,,,,,,,,,,,,,,,,,,,,,,,,,,,,,,,,,,,,,650.7999546000028,651.3025499000032,651.3025499000032,652.0550956000006,652.0550956000006,652.5605262000026,652.5605262000026,653.3380195000027,653.3380195000027,None,num_4,0.7354943999998795,653.3380195000027,None,happy,1,Sad,654.0822258000001,None,None,654.0822258000001,None,,,,,,,,,,,,,,,,,,,,,,,,,,,,,,,,,,,,,,,,,,,,,,,,,,,,,37,001,0,27,340,230,2022_Nov_01_1523,Experiment,2021.1.4,360.0230414876946,
images\S3_F_H_02.png,images\S3_F_H_02_scrambled.png,3,happy,20,female,5,,194,on,2,0.5,0.75,0.5,0.879,3,193,4,1,1,2,2,32,128,165,,,,,,0,39,39,39,,,,,,,,,,,,,,,,,,,,,,,,,,,,,,,,,,,,,,,,,,,,,,,,,,,,,,,,,654.1294514000001,654.6348752000013,654.6348752000013,655.3846147000004,655.3846147000004,655.8900466000014,655.8900466000014,656.7732079000016,656.7732079000016,None,num_6,0.8359608000027947,656.7732079000016,None,sad,1,Happy,657.6200471000019,None,None,657.6200471000019,None,,,,,,,,,,,,,,,,,,,,,,,,,,,,,,,,,,,,,,,,,,,,,,,,,,,,,37,001,0,27,340,230,2022_Nov_01_1523,Experiment,2021.1.4,360.0230414876946,
images\S2_M_S_03.png,images\S2_M_S_03_scrambled.png,2,sad,-30,male,1,,372,off,1,0.5,0.75,0.5,0.786,3,371,1,1,1,0,0,0,0,1,,,,,,0,40,40,40,,,,,,,,,,,,,,,,,,,,,,,,,,,,,,,,,,,,,,,,,,,,,,,,,,,,,,,,,657.6839055000019,658.1893310000014,658.1893310000014,658.9446740000021,658.9446740000021,659.4472897000014,659.4472897000014,660.2359098000015,660.2359098000015,None,num_6,0.5410645000010845,660.2359098000015,None,sad,1,Sad,660.7968939000014,None,None,660.7968939000014,None,,,,,,,,,,,,,,,,,,,,,,,,,,,,,,,,,,,,,,,,,,,,,,,,,,,,,37,001,0,27,340,230,2022_Nov_01_1523,Experiment,2021.1.4,360.0230414876946,
images\blank.jpg,images\blank.jpg,none,none,none,none,0,,627,on,2,0.5,0.75,0.5,0.816,0,626,1,1,1,3,3,48,192,240,,,,,,0,41,41,41,,,,,,,,,,,,,,,,,,,,,,,,,,,,,,,,,,,,,,,,,,,,,,,,,,,,,,,,,660.8998010000032,661.3994284,661.3994284,662.1519738000025,662.1519738000025,662.6546333000006,662.6546333000006,663.471022400001,663.471022400001,663.471022400001,None,,663.471022400001,None,miss,1,,666.4728813000016,None,None,666.4728813000016,None,,,,,,,,,,,,,,,,,,,,,,,,,,,,,,,,,,,,,,,,,,,,,,,,,,,,,37,001,0,27,340,230,2022_Nov_01_1523,Experiment,2021.1.4,360.0230414876946,
images\S2_M_H_02.png,images\S2_M_H_02_scrambled.png,2,happy,20,male,5,,548,on,2,0.5,0.75,0.5,0.785,3,547,2,1,1,2,2,32,128,165,,,,,,0,42,42,42,,,,,,,,,,,,,,,,,,,,,,,,,,,,,,,,,,,,,,,,,,,,,,,,,,,,,,,,,666.5869476000007,667.0893413000013,667.0893413000013,667.8418900000033,667.8418900000033,668.3417589000019,668.3417589000019,669.1331758000015,669.1331758000015,None,num_6,0.42799379999996745,669.1331758000015,666.5869476000007,sad,1,Happy,669.5691156000023,None,None,669.5691156000023,None,,,,,,,,,,,,,,,,,,,,,,,,,,,,,,,,,,,,,,,,,,,,,,,,,,,,,37,001,0,27,340,230,2022_Nov_01_1523,Experiment,2021.1.4,360.0230414876946,
images\blank.jpg,images\blank.jpg,none,none,none,none,0,,617,on,2,0.5,0.75,0.5,0.822,0,616,3,1,1,3,3,48,192,240,,,,,,0,43,43,43,,,,,,,,,,,,,,,,,,,,,,,,,,,,,,,,,,,,,,,,,,,,,,,,,,,,,,,,,669.6499162,670.1551811000027,670.1551811000027,670.9076466000006,670.9076466000006,671.4102676000002,671.4102676000002,672.2350098000024,672.2350098000024,672.2350098000024,None,,672.2350098000024,None,miss,1,,675.2340687000011,None,None,675.2340687000011,None,,,,,,,,,,,,,,,,,,,,,,,,,,,,,,,,,,,,,,,,,,,,,,,,,,,,,37,001,0,27,340,230,2022_Nov_01_1523,Experiment,2021.1.4,360.0230414876946,
images\S6_M_S_01.png,images\S6_M_S_01_scrambled.png,6,sad,-10,male,3,,34,off,1,0.5,0.75,0.5,0.812,3,33,1,1,1,0,0,0,0,3,,,,,,0,44,44,44,,,,,,,,,,,,,,,,,,,,,,,,,,,,,,,,,,,,,,,,,,,,,,,,,,,,,,,,,675.3453040000022,675.8506134000017,675.8506134000017,676.6059117000004,676.6059117000004,677.1112878000022,677.1112878000022,677.9276557000012,677.9276557000012,None,num_6,0.5781557000009343,677.9276557000012,675.3453040000022,sad,1,Sad,678.5248559999993,None,None,678.5248559999993,None,,,,,,,,,,,,,,,,,,,,,,,,,,,,,,,,,,,,,,,,,,,,,,,,,,,,,37,001,0,27,340,230,2022_Nov_01_1523,Experiment,2021.1.4,360.0230414876946,
images\S9_F_S_01.png,images\S9_F_S_01_scrambled.png,9,sad,-10,female,3,,412,off,1,0.5,0.75,0.5,0.876,3,411,2,1,2,0,0,0,0,3,,,,,,0,45,45,45,,,,,,,,,,,,,,,,,,,,,,,,,,,,,,,,,,,,,,,,,,,,,,,,,,,,,,,,,678.5746822000001,679.0773238000002,679.0773238000002,679.8299800000023,679.8299800000023,680.3353915000007,680.3353915000007,681.2155934000002,681.2155934000002,None,num_4,0.945642399998178,681.2155934000002,None,happy,1,Sad,682.1707720000006,None,None,682.1707720000006,None,,,,,,,,,,,,,,,,,,,,,,,,,,,,,,,,,,,,,,,,,,,,,,,,,,,,,37,001,0,27,340,230,2022_Nov_01_1523,Experiment,2021.1.4,360.0230414876946,
images\S7_F_H_03.png,images\S7_F_H_03_scrambled.png,7,happy,30,female,6,,159,off,1,0.5,0.75,0.5,0.828,3,158,3,1,1,0,0,0,0,6,,,,,,0,46,46,46,,,,,,,,,,,,,,,,,,,,,,,,,,,,,,,,,,,,,,,,,,,,,,,,,,,,,,,,,682.240217300001,682.7428522000009,682.7428522000009,683.492608200002,683.492608200002,683.9952503000022,683.9952503000022,684.8256555000007,684.8256555000007,None,num_4,0.46407879999969737,684.8256555000007,None,happy,1,Happy,685.3143258999997,None,None,685.3143258999997,None,,,,,,,,,,,,,,,,,,,,,,,,,,,,,,,,,,,,,,,,,,,,,,,,,,,,,37,001,0,27,340,230,2022_Nov_01_1523,Experiment,2021.1.4,360.0230414876946,
images\S6_M_H_02.png,images\S6_M_H_02_scrambled.png,6,happy,20,male,5,,452,on,2,0.5,0.75,0.5,0.923,3,451,1,1,1,2,2,32,128,165,,,,,,0,47,47,47,,,,,,,,,,,,,,,,,,,,,,,,,,,,,,,,,,,,,,,,,,,,,,,,,,,,,,,,,685.367033100003,685.8697747000006,685.8697747000006,686.6194489000009,686.6194489000009,687.1193140000032,687.1193140000032,688.0467565000035,688.0467565000035,None,num_6,0.6824094000003242,688.0467565000035,None,sad,1,Happy,688.7382150000005,None,None,688.7382150000005,None,,,,,,,,,,,,,,,,,,,,,,,,,,,,,,,,,,,,,,,,,,,,,,,,,,,,,37,001,0,27,340,230,2022_Nov_01_1523,Experiment,2021.1.4,360.0230414876946,
images\S10_M_H_01.png,images\S10_M_H_01_scrambled.png,10,happy,10,male,4,,535,off,1,0.5,0.75,0.5,0.797,3,534,1,1,1,0,0,0,0,4,,,,,,0,48,48,48,,,,,,,,,,,,,,,,,,,,,,,,,,,,,,,,,,,,,,,,,,,,,,,,,,,,,,,,,688.7854197000015,689.285282300003,689.285282300003,690.0378092999999,690.0378092999999,690.540569300003,690.540569300003,691.3429774000033,691.3429774000033,None,num_4,0.5141513999988092,691.3429774000033,None,happy,1,Happy,691.8678413000001,None,None,691.8678413000001,None,,,,,,,,,,,,,,,,,,,,,,,,,,,,,,,,,,,,,,,,,,,,,,,,,,,,,37,001,0,27,340,230,2022_Nov_01_1523,Experiment,2021.1.4,360.0230414876946,
images\S7_F_H_01.png,images\S7_F_H_01_scrambled.png,7,happy,10,female,4,,37,off,1,0.5,0.75,0.5,0.851,3,36,2,1,2,0,0,0,0,4,,,,,,0,49,49,49,,,,,,,,,,,,,,,,,,,,,,,,,,,,,,,,,,,,,,,,,,,,,,,,,,,,,,,,,691.9150255000022,692.4176554000005,692.4176554000005,693.1701941000028,693.1701941000028,693.6728527000014,693.6728527000014,694.5309212000029,694.5309212000029,None,num_4,0.550167400000646,694.5309212000029,None,happy,1,Happy,695.0974192000016,None,None,695.0974192000016,None,,,,,,,,,,,,,,,,,,,,,,,,,,,,,,,,,,,,,,,,,,,,,,,,,,,,,37,001,0,27,340,230,2022_Nov_01_1523,Experiment,2021.1.4,360.0230414876946,
images\S5_F_H_01.png,images\S5_F_H_01_scrambled.png,5,happy,10,female,4,,445,on,2,0.5,0.75,0.5,0.815,3,444,1,1,3,2,2,32,128,164,,,,,,0,50,50,50,,,,,,,,,,,,,,,,,,,,,,,,,,,,,,,,,,,,,,,,,,,,,,,,,,,,,,,,,695.1445723000033,695.6472152000024,695.6472152000024,696.3998653000017,696.3998653000017,696.9052656000022,696.9052656000022,697.7215481000021,697.7215481000021,None,num_4,0.8795147999990149,697.7215481000021,None,happy,1,Happy,698.6241016999986,None,None,698.6241016999986,None,,,,,,,,,,,,,,,,,,,,,,,,,,,,,,,,,,,,,,,,,,,,,,,,,,,,,37,001,0,27,340,230,2022_Nov_01_1523,Experiment,2021.1.4,360.0230414876946,
images\S10_M_S_01.png,images\S10_M_S_01_scrambled.png,10,sad,-10,male,3,,538,off,1,0.5,0.75,0.5,0.823,3,537,1,1,1,0,0,0,0,3,,,,,,0,51,51,51,,,,,,,,,,,,,,,,,,,,,,,,,,,,,,,,,,,,,,,,,,,,,,,,,,,,,,,,,698.6768144000016,699.176653100003,699.176653100003,699.9264256000024,699.9264256000024,700.4290760000004,700.4290760000004,701.2537920000032,701.2537920000032,None,num_6,0.34746739999900456,701.2537920000032,None,sad,1,Sad,701.6120830000021,None,None,701.6120830000021,None,,,,,,,,,,,,,,,,,,,,,,,,,,,,,,,,,,,,,,,,,,,,,,,,,,,,,37,001,0,27,340,230,2022_Nov_01_1523,Experiment,2021.1.4,360.0230414876946,
images\S2_M_S_01.png,images\S2_M_S_01_scrambled.png,2,sad,-10,male,3,,550,on,2,0.5,0.75,0.5,0.765,3,549,1,1,2,2,2,32,128,163,,,,,,0,52,52,52,,,,,,,,,,,,,,,,,,,,,,,,,,,,,,,,,,,,,,,,,,,,,,,,,,,,,,,,,701.6592245000029,702.1647515000004,702.1647515000004,702.9200859000011,702.9200859000011,703.4254849000026,703.4254849000026,704.1947161000026,704.1947161000026,None,num_6,0.5585570000002917,704.1947161000026,None,sad,1,Sad,704.7666051,None,None,704.7666051,None,,,,,,,,,,,,,,,,,,,,,,,,,,,,,,,,,,,,,,,,,,,,,,,,,,,,,37,001,0,27,340,230,2022_Nov_01_1523,Experiment,2021.1.4,360.0230414876946,
images\blank.jpg,images\blank.jpg,none,none,none,none,0,,620,on,2,0.5,0.75,0.5,0.873,0,619,2,1,1,3,3,48,192,240,,,,,,0,53,53,53,,,,,,,,,,,,,,,,,,,,,,,,,,,,,,,,,,,,,,,,,,,,,,,,,,,,,,,,,704.8501687000025,705.3526495000006,705.3526495000006,706.1050863000019,706.1050863000019,706.6076954000018,706.6076954000018,707.4825139000022,707.4825139000022,707.4825139000022,None,,707.4825139000022,None,miss,1,,710.4871379999997,None,None,710.4871379999997,None,,,,,,,,,,,,,,,,,,,,,,,,,,,,,,,,,,,,,,,,,,,,,,,,,,,,,37,001,0,27,340,230,2022_Nov_01_1523,Experiment,2021.1.4,360.0230414876946,
images\S9_F_H_01.png,images\S9_F_H_01_scrambled.png,9,happy,10,female,4,,169,off,1,0.5,0.75,0.5,0.856,3,168,1,1,1,0,0,0,0,4,,,,,,0,54,54,54,,,,,,,,,,,,,,,,,,,,,,,,,,,,,,,,,,,,,,,,,,,,,,,,,,,,,,,,,710.6067009000035,711.1118751000031,711.1118751000031,711.8645447000017,711.8645447000017,712.3642591000025,712.3642591000025,713.2251412000005,713.2251412000005,None,num_4,0.5761579999998503,713.2251412000005,710.6067009000035,happy,1,Happy,713.824970399998,None,None,713.824970399998,None,,,,,,,,,,,,,,,,,,,,,,,,,,,,,,,,,,,,,,,,,,,,,,,,,,,,,37,001,0,27,340,230,2022_Nov_01_1523,Experiment,2021.1.4,360.0230414876946,
images\blank.jpg,images\blank.jpg,none,none,none,none,0,,631,on,2,0.5,0.75,0.5,0.946,0,630,1,1,1,3,3,48,192,240,,,,,,0,55,55,55,,,,,,,,,,,,,,,,,,,,,,,,,,,,,,,,,,,,,,,,,,,,,,,,,,,,,,,,,713.9251433000027,714.424728500002,714.424728500002,715.1800934000021,715.1800934000021,715.6826856000007,715.6826856000007,716.6295719000009,716.6295719000009,716.6295719000009,None,,716.6295719000009,None,miss,1,,719.6343178000018,None,None,719.6343178000018,None,,,,,,,,,,,,,,,,,,,,,,,,,,,,,,,,,,,,,,,,,,,,,,,,,,,,,37,001,0,27,340,230,2022_Nov_01_1523,Experiment,2021.1.4,360.0230414876946,
images\S5_F_H_01.png,images\S5_F_H_01_scrambled.png,5,happy,10,female,4,,265,off,1,0.5,0.75,0.5,0.803,3,264,1,1,1,0,0,0,0,4,,,,,,0,56,56,56,,,,,,,,,,,,,,,,,,,,,,,,,,,,,,,,,,,,,,,,,,,,,,,,,,,,,,,,,719.7538176000016,720.2564022000006,720.2564022000006,721.0116492000016,721.0116492000016,721.5170343000027,721.5170343000027,722.3223343000027,722.3223343000027,None,num_4,0.6310827000015706,722.3223343000027,719.7538176000016,happy,1,Happy,722.9665666999994,None,None,722.9665666999994,None,,,,,,,,,,,,,,,,,,,,,,,,,,,,,,,,,,,,,,,,,,,,,,,,,,,,,37,001,0,27,340,230,2022_Nov_01_1523,Experiment,2021.1.4,360.0230414876946,
images\S3_F_S_03.png,images\S3_F_S_03_scrambled.png,3,sad,-30,female,1,,138,off,1,0.5,0.75,0.5,0.855,3,137,2,1,1,0,0,0,0,1,,,,,,0,57,57,57,,,,,,,,,,,,,,,,,,,,,,,,,,,,,,,,,,,,,,,,,,,,,,,,,,,,,,,,,723.0137482000027,723.5191892000003,723.5191892000003,724.2717353000007,724.2717353000007,724.7715827000029,724.7715827000029,725.6296055000021,725.6296055000021,None,num_6,0.3884150999983831,725.6296055000021,None,sad,1,Sad,726.043570699999,None,None,726.043570699999,None,,,,,,,,,,,,,,,,,,,,,,,,,,,,,,,,,,,,,,,,,,,,,,,,,,,,,37,001,0,27,340,230,2022_Nov_01_1523,Experiment,2021.1.4,360.0230414876946,
images\S7_F_S_03.png,images\S7_F_S_03_scrambled.png,7,sad,-30,female,1,,342,on,2,0.5,0.75,0.5,0.867,3,341,1,1,2,2,2,32,128,161,,,,,,0,58,58,58,,,,,,,,,,,,,,,,,,,,,,,,,,,,,,,,,,,,,,,,,,,,,,,,,,,,,,,,,726.0961328000012,726.5987963000007,726.5987963000007,727.3485492,727.3485492,727.8483861000022,727.8483861000022,728.7176685000013,728.7176685000013,None,num_6,0.4671907999982068,728.7176685000013,None,sad,1,Sad,729.1980365000003,None,None,729.1980365000003,None,,,,,,,,,,,,,,,,,,,,,,,,,,,,,,,,,,,,,,,,,,,,,,,,,,,,,37,001,0,27,340,230,2022_Nov_01_1523,Experiment,2021.1.4,360.0230414876946,
images\S5_F_H_03.png,images\S5_F_H_03_scrambled.png,5,happy,30,female,6,,207,on,2,0.5,0.75,0.5,0.801,3,206,2,1,1,2,2,32,128,166,,,,,,0,59,59,59,,,,,,,,,,,,,,,,,,,,,,,,,,,,,,,,,,,,,,,,,,,,,,,,,,,,,,,,,729.2451577000029,729.7505762000001,729.7505762000001,730.5032423000011,730.5032423000011,731.0057358000013,731.0057358000013,731.8138653000024,731.8138653000024,None,num_4,0.5475513999990653,731.8138653000024,None,happy,1,Happy,732.377620500001,None,None,732.377620500001,None,,,,,,,,,,,,,,,,,,,,,,,,,,,,,,,,,,,,,,,,,,,,,,,,,,,,,37,001,0,27,340,230,2022_Nov_01_1523,Experiment,2021.1.4,360.0230414876946,
images\blank.jpg,images\blank.jpg,none,none,none,none,0,,633,on,2,0.5,0.75,0.5,0.918,0,632,3,1,1,3,3,48,192,240,,,,,,0,60,60,60,,,,,,,,,,,,,,,,,,,,,,,,,,,,,,,,,,,,,,,,,,,,,,,,,,,,,,,,,732.4777814000008,732.9773451000001,732.9773451000001,733.7271473000001,733.7271473000001,734.229774200001,734.229774200001,735.1516660000016,735.1516660000016,735.1516660000016,None,,735.1516660000016,None,miss,1,,738.1507666000012,None,None,738.1507666000012,None,,,,,,,,,,,,,,,,,,,,,,,,,,,,,,,,,,,,,,,,,,,,,,,,,,,,,37,001,0,27,340,230,2022_Nov_01_1523,Experiment,2021.1.4,360.0230414876946,
images\S9_F_S_01.png,images\S9_F_S_01_scrambled.png,9,sad,-10,female,3,,532,off,1,0.5,0.75,0.5,0.852,3,531,1,1,1,0,0,0,0,3,,,,,,0,61,61,61,,,,,,,,,,,,,,,,,,,,,,,,,,,,,,,,,,,,,,,,,,,,,,,,,,,,,,,,,738.2647544000029,738.7672644000013,738.7672644000013,739.5169939000007,739.5169939000007,740.0196416000035,740.0196416000035,740.877708,740.877708,None,num_4,0.7716898999969999,740.877708,738.2647544000029,happy,1,Sad,741.6579830000003,None,None,741.6579830000003,None,,,,,,,,,,,,,,,,,,,,,,,,,,,,,,,,,,,,,,,,,,,,,,,,,,,,,37,001,0,27,340,230,2022_Nov_01_1523,Experiment,2021.1.4,360.0230414876946,
images\blank.jpg,images\blank.jpg,none,none,none,none,0,,650,on,2,0.5,0.75,0.5,0.941,0,649,1,1,1,3,3,48,192,240,,,,,,0,62,62,62,,,,,,,,,,,,,,,,,,,,,,,,,,,,,,,,,,,,,,,,,,,,,,,,,,,,,,,,,741.7414707000025,742.2411599000006,742.2411599000006,742.9909291000004,742.9909291000004,743.4935968000027,743.4935968000027,744.4378314000023,744.4378314000023,744.4378314000023,None,,744.4378314000023,None,miss,1,,747.4423997000006,None,None,747.4423997000006,None,,,,,,,,,,,,,,,,,,,,,,,,,,,,,,,,,,,,,,,,,,,,,,,,,,,,,37,001,0,27,340,230,2022_Nov_01_1523,Experiment,2021.1.4,360.0230414876946,
images\S1_F_H_02.png,images\S1_F_H_02_scrambled.png,1,happy,20,female,5,,122,off,1,0.5,0.75,0.5,0.751,3,121,1,1,1,0,0,0,0,5,,,,,,0,63,63,63,,,,,,,,,,,,,,,,,,,,,,,,,,,,,,,,,,,,,,,,,,,,,,,,,,,,,,,,,747.5647474000034,748.0671543000026,748.0671543000026,748.8196853000009,748.8196853000009,749.3195497000015,749.3195497000015,750.0748530000019,750.0748530000019,None,num_4,0.7103114000019559,750.0748530000019,747.5647474000034,happy,1,Happy,750.7996162000003,None,None,750.7996162000003,None,,,,,,,,,,,,,,,,,,,,,,,,,,,,,,,,,,,,,,,,,,,,,,,,,,,,,37,001,0,27,340,230,2022_Nov_01_1523,Experiment,2021.1.4,360.0230414876946,
images\S1_F_H_02.png,images\S1_F_H_02_scrambled.png,1,happy,20,female,5,,62,on,2,0.5,0.75,0.5,0.788,3,61,1,2,2,2,2,32,128,165,,,,,,0,64,64,64,,,,,,,,,,,,,,,,,,,,,,,,,,,,,,,,,,,,,,,,,,,,,,,,,,,,,,,,,750.8468312000005,751.3495844000026,751.3495844000026,752.0992161000031,752.0992161000031,752.6018341000017,752.6018341000017,753.3905072000016,753.3905072000016,None,num_4,0.6266642000009597,753.3905072000016,None,happy,1,Happy,754.031982400002,None,None,754.031982400002,None,,,,,,,,,,,,,,,,,,,,,,,,,,,,,,,,,,,,,,,,,,,,,,,,,,,,,37,001,0,27,340,230,2022_Nov_01_1523,Experiment,2021.1.4,360.0230414876946,
images\S2_M_H_01.png,images\S2_M_H_01_scrambled.png,2,happy,10,male,4,,127,off,1,0.5,0.75,0.5,0.751,3,126,1,1,1,0,0,0,0,4,,,,,,0,65,65,65,,,,,,,,,,,,,,,,,,,,,,,,,,,,,,,,,,,,,,,,,,,,,,,,,,,,,,,,,754.0791706000018,754.5818422000011,754.5818422000011,755.334340100002,755.334340100002,755.8369901000005,755.8369901000005,756.5923142000029,756.5923142000029,None,num_6,0.34481070000038017,756.5923142000029,None,sad,1,Happy,756.9477889000017,None,None,756.9477889000017,None,,,,,,,,,,,,,,,,,,,,,,,,,,,,,,,,,,,,,,,,,,,,,,,,,,,,,37,001,0,27,340,230,2022_Nov_01_1523,Experiment,2021.1.4,360.0230414876946,
images\S4_M_H_02.png,images\S4_M_H_02_scrambled.png,4,happy,20,male,5,,200,on,2,0.5,0.75,0.5,0.765,3,199,1,1,1,2,2,32,128,165,,,,,,0,66,66,66,,,,,,,,,,,,,,,,,,,,,,,,,,,,,,,,,,,,,,,,,,,,,,,,,,,,,,,,,757.0088158000035,757.5142190000006,757.5142190000006,758.2639943000031,758.2639943000031,758.7666738000007,758.7666738000007,759.5359468000024,759.5359468000024,None,num_6,0.9209142999970936,759.5359468000024,None,sad,1,Happy,760.4633115999998,None,None,760.4633115999998,None,,,,,,,,,,,,,,,,,,,,,,,,,,,,,,,,,,,,,,,,,,,,,,,,,,,,,37,001,0,27,340,230,2022_Nov_01_1523,Experiment,2021.1.4,360.0230414876946,
images\S1_F_H_03.png,images\S1_F_H_03_scrambled.png,1,happy,30,female,6,,183,on,2,0.5,0.75,0.5,0.781,3,182,2,1,1,2,2,32,128,166,,,,,,0,67,67,67,,,,,,,,,,,,,,,,,,,,,,,,,,,,,,,,,,,,,,,,,,,,,,,,,,,,,,,,,760.5105124000002,761.0131443000028,761.0131443000028,761.768475300003,761.768475300003,762.2712062000028,762.2712062000028,763.0569983000023,763.0569983000023,None,num_4,0.20015570000032312,763.0569983000023,None,happy,1,Happy,763.2818984000013,None,None,763.2818984000013,None,,,,,,,,,,,,,,,,,,,,,,,,,,,,,,,,,,,,,,,,,,,,,,,,,,,,,37,001,0,27,340,230,2022_Nov_01_1523,Experiment,2021.1.4,360.0230414876946,
images\S9_F_H_02.png,images\S9_F_H_02_scrambled.png,9,happy,20,female,5,,530,off,1,0.5,0.75,0.5,0.776,3,529,1,1,1,0,0,0,0,5,,,,,,0,68,68,68,,,,,,,,,,,,,,,,,,,,,,,,,,,,,,,,,,,,,,,,,,,,,,,,,,,,,,,,,763.3346401000017,763.8372942000024,763.8372942000024,764.5898458000011,764.5898458000011,765.0896518000009,765.0896518000009,765.8700041000011,765.8700041000011,None,num_4,0.47513550000076066,765.8700041000011,None,happy,1,Happy,766.3587266000017,None,None,766.3587266000017,None,,,,,,,,,,,,,,,,,,,,,,,,,,,,,,,,,,,,,,,,,,,,,,,,,,,,,37,001,0,27,340,230,2022_Nov_01_1523,Experiment,2021.1.4,360.0230414876946,
images\S1_F_S_01.png,images\S1_F_S_01_scrambled.png,1,sad,-10,female,3,,4,off,1,0.5,0.75,0.5,0.853,3,3,2,1,1,0,0,0,0,3,,,,,,0,69,69,69,,,,,,,,,,,,,,,,,,,,,,,,,,,,,,,,,,,,,,,,,,,,,,,,,,,,,,,,,766.4114070000032,766.9169136000019,766.9169136000019,767.6721960000032,767.6721960000032,768.1776185000017,768.1776185000017,769.0328738000026,769.0328738000026,None,num_4,0.4403158999994048,769.0328738000026,None,happy,1,Sad,769.4827285000022,None,None,769.4827285000022,None,,,,,,,,,,,,,,,,,,,,,,,,,,,,,,,,,,,,,,,,,,,,,,,,,,,,,37,001,0,27,340,230,2022_Nov_01_1523,Experiment,2021.1.4,360.0230414876946,
images\blank.jpg,images\blank.jpg,none,none,none,none,0,,622,on,2,0.5,0.75,0.5,0.763,0,621,1,1,1,3,3,48,192,240,,,,,,0,70,70,70,,,,,,,,,,,,,,,,,,,,,,,,,,,,,,,,,,,,,,,,,,,,,,,,,,,,,,,,,769.5663147000014,770.0715427000032,770.0715427000032,770.826815700002,770.826815700002,771.3322149000014,771.3322149000014,772.1014723000008,772.1014723000008,772.1014723000008,None,,772.1014723000008,None,miss,1,,775.1004851000013,None,None,775.1004851000013,None,,,,,,,,,,,,,,,,,,,,,,,,,,,,,,,,,,,,,,,,,,,,,,,,,,,,,37,001,0,27,340,230,2022_Nov_01_1523,Experiment,2021.1.4,360.0230414876946,
images\S4_M_S_01.png,images\S4_M_S_01_scrambled.png,4,sad,-10,male,3,,202,on,2,0.5,0.75,0.5,0.907,3,201,2,1,1,2,2,32,128,163,,,,,,0,71,71,71,,,,,,,,,,,,,,,,,,,,,,,,,,,,,,,,,,,,,,,,,,,,,,,,,,,,,,,,,775.2145424000009,775.7197567000003,775.7197567000003,776.4694703000023,776.4694703000023,776.9749235000018,776.9749235000018,777.8857164000001,777.8857164000001,None,num_6,0.01927149999755784,777.8857164000001,775.2145424000009,sad,1,Sad,777.9163286999996,None,None,777.9163286999996,None,,,,,,,,,,,,,,,,,,,,,,,,,,,,,,,,,,,,,,,,,,,,,,,,,,,,,37,001,0,27,340,230,2022_Nov_01_1523,Experiment,2021.1.4,360.0230414876946,
images\S2_M_H_03.png,images\S2_M_H_03_scrambled.png,2,happy,30,male,6,,189,on,2,0.5,0.75,0.5,0.914,3,188,3,1,1,2,2,32,128,166,,,,,,0,72,72,72,,,,,,,,,,,,,,,,,,,,,,,,,,,,,,,,,,,,,,,,,,,,,,,,,,,,,,,,,777.9634582000035,778.466108800003,778.466108800003,779.2186547000019,779.2186547000019,779.7184721000012,779.7184721000012,780.6349027000033,780.6349027000033,None,num_4,0.19797290000133216,780.6349027000033,None,happy,1,Happy,780.8431708000011,None,None,780.8431708000011,None,,,,,,,,,,,,,,,,,,,,,,,,,,,,,,,,,,,,,,,,,,,,,,,,,,,,,37,001,0,27,340,230,2022_Nov_01_1523,Experiment,2021.1.4,360.0230414876946,
images\S4_M_S_02.png,images\S4_M_S_02_scrambled.png,4,sad,-20,male,2,,143,off,1,0.5,0.75,0.5,0.898,3,142,1,1,1,0,0,0,0,2,,,,,,0,73,73,73,,,,,,,,,,,,,,,,,,,,,,,,,,,,,,,,,,,,,,,,,,,,,,,,,,,,,,,,,780.8903392000029,781.392957,781.392957,782.1455021000002,782.1455021000002,782.6453353000034,782.6453353000034,783.5451094000018,783.5451094000018,None,num_6,0.4316830999996455,783.5451094000018,None,sad,1,Sad,783.9866447000007,None,None,783.9866447000007,None,,,,,,,,,,,,,,,,,,,,,,,,,,,,,,,,,,,,,,,,,,,,,,,,,,,,,37,001,0,27,340,230,2022_Nov_01_1523,Experiment,2021.1.4,360.0230414876946,
images\S2_M_S_01.png,images\S2_M_S_01_scrambled.png,2,sad,-10,male,3,,130,off,1,0.5,0.75,0.5,0.825,3,129,2,1,1,0,0,0,0,3,,,,,,0,74,74,74,,,,,,,,,,,,,,,,,,,,,,,,,,,,,,,,,,,,,,,,,,,,,,,,,,,,,,,,,784.0338110000012,784.5364598000015,784.5364598000015,785.2862389000002,785.2862389000002,785.7888208000004,785.7888208000004,786.619139800001,786.619139800001,None,num_6,0.36579969999729656,786.619139800001,None,sad,1,Sad,786.9995868999998,None,None,786.9995868999998,None,,,,,,,,,,,,,,,,,,,,,,,,,,,,,,,,,,,,,,,,,,,,,,,,,,,,,37,001,0,27,340,230,2022_Nov_01_1523,Experiment,2021.1.4,360.0230414876946,
images\blank.jpg,images\blank.jpg,none,none,none,none,0,,632,on,2,0.5,0.75,0.5,0.781,0,631,1,1,1,3,3,48,192,240,,,,,,0,75,75,75,,,,,,,,,,,,,,,,,,,,,,,,,,,,,,,,,,,,,,,,,,,,,,,,,,,,,,,,,787.083089900003,787.5827111000035,787.5827111000035,788.3380723000009,788.3380723000009,788.8434784000019,788.8434784000019,789.6266697000028,789.6266697000028,789.6266697000028,None,,789.6266697000028,None,miss,1,,792.6284298000006,None,None,792.6284298000006,None,,,,,,,,,,,,,,,,,,,,,,,,,,,,,,,,,,,,,,,,,,,,,,,,,,,,,37,001,0,27,340,230,2022_Nov_01_1523,Experiment,2021.1.4,360.0230414876946,
images\S1_F_S_03.png,images\S1_F_S_03_scrambled.png,1,sad,-30,female,1,,186,on,2,0.5,0.75,0.5,0.882,3,185,2,1,1,2,2,32,128,161,,,,,,0,76,76,76,,,,,,,,,,,,,,,,,,,,,,,,,,,,,,,,,,,,,,,,,,,,,,,,,,,,,,,,,792.7480905000011,793.2476270000006,793.2476270000006,794.0029832,794.0029832,794.5083983000004,794.5083983000004,795.3914080000031,795.3914080000031,None,num_6,0.37749130000156583,795.3914080000031,792.7480905000011,sad,1,Sad,795.7802151000018,None,None,795.7802151000018,None,,,,,,,,,,,,,,,,,,,,,,,,,,,,,,,,,,,,,,,,,,,,,,,,,,,,,37,001,0,27,340,230,2022_Nov_01_1523,Experiment,2021.1.4,360.0230414876946,
images\S2_M_H_02.png,images\S2_M_H_02_scrambled.png,2,happy,20,male,5,,308,on,2,0.5,0.75,0.5,0.847,3,307,3,1,1,2,2,32,128,165,,,,,,0,77,77,77,,,,,,,,,,,,,,,,,,,,,,,,,,,,,,,,,,,,,,,,,,,,,,,,,,,,,,,,,795.8273907000003,796.330027400003,796.330027400003,797.0826089000002,797.0826089000002,797.585196400003,797.585196400003,798.4377504000004,798.4377504000004,None,num_4,0.41929220000019995,798.4377504000004,None,happy,1,Happy,798.8848780000008,None,None,798.8848780000008,None,,,,,,,,,,,,,,,,,,,,,,,,,,,,,,,,,,,,,,,,,,,,,,,,,,,,,37,001,0,27,340,230,2022_Nov_01_1523,Experiment,2021.1.4,360.0230414876946,
images\S5_F_S_01.png,images\S5_F_S_01_scrambled.png,5,sad,-10,female,3,,448,on,2,0.5,0.75,0.5,0.817,3,447,4,1,1,2,2,32,128,163,,,,,,0,78,78,78,,,,,,,,,,,,,,,,,,,,,,,,,,,,,,,,,,,,,,,,,,,,,,,,,,,,,,,,,798.9403180000008,799.4457478000004,799.4457478000004,800.1983968000022,800.1983968000022,800.6981476000001,800.6981476000001,801.5201195000009,801.5201195000009,None,num_4,0.48089510000136215,801.5201195000009,None,happy,1,Sad,802.0088042000018,None,None,802.0088042000018,None,,,,,,,,,,,,,,,,,,,,,,,,,,,,,,,,,,,,,,,,,,,,,,,,,,,,,37,001,0,27,340,230,2022_Nov_01_1523,Experiment,2021.1.4,360.0230414876946,
images\S10_M_S_01.png,images\S10_M_S_01_scrambled.png,10,sad,-10,male,3,,238,on,2,0.5,0.75,0.5,0.811,3,237,5,1,2,2,2,32,128,163,,,,,,0,79,79,79,,,,,,,,,,,,,,,,,,,,,,,,,,,,,,,,,,,,,,,,,,,,,,,,,,,,,,,,,802.0588050000006,802.5642221000016,802.5642221000016,803.3167436000003,803.3167436000003,803.8165953000025,803.8165953000025,804.6330461000034,804.6330461000034,None,num_6,0.3360864999995101,804.6330461000034,None,sad,1,Sad,804.9801543000016,None,None,804.9801543000016,None,,,,,,,,,,,,,,,,,,,,,,,,,,,,,,,,,,,,,,,,,,,,,,,,,,,,,37,001,0,27,340,230,2022_Nov_01_1523,Experiment,2021.1.4,360.0230414876946,
images\S7_F_S_01.png,images\S7_F_S_01_scrambled.png,7,sad,-10,female,3,,520,off,1,0.5,0.75,0.5,0.923,3,519,1,1,3,0,0,0,0,3,,,,,,0,80,80,80,,,,,,,,,,,,,,,,,,,,,,,,,,,,,,,,,,,,,,,,,,,,,,,,,,,,,,,,,805.0301112000016,805.5299639000004,805.5299639000004,806.2825738000029,806.2825738000029,806.7823518000005,806.7823518000005,807.7098483000009,807.7098483000009,None,num_4,0.4673222999990685,807.7098483000009,None,happy,1,Sad,808.1819437000006,None,None,808.1819437000006,None,,,,,,,,,,,,,,,,,,,,,,,,,,,,,,,,,,,,,,,,,,,,,,,,,,,,,37,001,0,27,340,230,2022_Nov_01_1523,Experiment,2021.1.4,360.0230414876946,
images\S7_F_H_03.png,images\S7_F_H_03_scrambled.png,7,happy,30,female,6,,339,on,2,0.5,0.75,0.5,0.942,3,338,1,2,1,2,2,32,128,166,,,,,,0,81,81,81,,,,,,,,,,,,,,,,,,,,,,,,,,,,,,,,,,,,,,,,,,,,,,,,,,,,,,,,,808.2291199000028,808.7317410000032,808.7317410000032,809.484333700002,809.484333700002,809.9869623000013,809.9869623000013,810.9311866000025,810.9311866000025,None,num_4,0.4939962000025844,810.9311866000025,None,happy,1,Happy,811.4392409000014,None,None,811.4392409000014,None,,,,,,,,,,,,,,,,,,,,,,,,,,,,,,,,,,,,,,,,,,,,,,,,,,,,,37,001,0,27,340,230,2022_Nov_01_1523,Experiment,2021.1.4,360.0230414876946,
images\S1_F_S_03.png,images\S1_F_S_03_scrambled.png,1,sad,-30,female,1,,6,off,1,0.5,0.75,0.5,0.871,3,5,1,1,1,0,0,0,0,1,,,,,,0,82,82,82,,,,,,,,,,,,,,,,,,,,,,,,,,,,,,,,,,,,,,,,,,,,,,,,,,,,,,,,,811.4892265000017,811.991865,811.991865,812.7471976000015,812.7471976000015,813.2497828000014,813.2497828000014,814.1273206000005,814.1273206000005,None,num_6,0.2896875000005821,814.1273206000005,None,sad,1,Sad,814.429987599999,None,None,814.429987599999,None,,,,,,,,,,,,,,,,,,,,,,,,,,,,,,,,,,,,,,,,,,,,,,,,,,,,,37,001,0,27,340,230,2022_Nov_01_1523,Experiment,2021.1.4,360.0230414876946,
images\S8_M_H_02.png,images\S8_M_H_02_scrambled.png,8,happy,20,male,5,,164,off,1,0.5,0.75,0.5,0.921,3,163,2,1,1,0,0,0,0,5,,,,,,0,83,83,83,,,,,,,,,,,,,,,,,,,,,,,,,,,,,,,,,,,,,,,,,,,,,,,,,,,,,,,,,814.4771919000013,814.9825900000033,814.9825900000033,815.7323604000012,815.7323604000012,816.2322027000009,816.2322027000009,817.1569494000032,817.1569494000032,None,num_6,0.4440996000012092,817.1569494000032,None,sad,1,Happy,817.6095449000015,None,None,817.6095449000015,None,,,,,,,,,,,,,,,,,,,,,,,,,,,,,,,,,,,,,,,,,,,,,,,,,,,,,37,001,0,27,340,230,2022_Nov_01_1523,Experiment,2021.1.4,360.0230414876946,
images\S7_F_S_01.png,images\S7_F_S_01_scrambled.png,7,sad,-10,female,3,,340,on,2,0.5,0.75,0.5,0.923,3,339,1,1,1,2,2,32,128,163,,,,,,0,84,84,84,,,,,,,,,,,,,,,,,,,,,,,,,,,,,,,,,,,,,,,,,,,,,,,,,,,,,,,,,817.6567842000004,818.1594298000018,818.1594298000018,818.9119301999999,818.9119301999999,819.4145861000034,819.4145861000034,820.3448565000035,820.3448565000035,None,num_4,0.5520527999979095,820.3448565000035,None,happy,1,Sad,820.9057674000026,None,None,820.9057674000026,None,,,,,,,,,,,,,,,,,,,,,,,,,,,,,,,,,,,,,,,,,,,,,,,,,,,,,37,001,0,27,340,230,2022_Nov_01_1523,Experiment,2021.1.4,360.0230414876946,
images\S4_M_S_01.png,images\S4_M_S_01_scrambled.png,4,sad,-10,male,3,,142,off,1,0.5,0.75,0.5,0.885,3,141,1,1,2,0,0,0,0,3,,,,,,0,85,85,85,,,,,,,,,,,,,,,,,,,,,,,,,,,,,,,,,,,,,,,,,,,,,,,,,,,,,,,,,820.9529734000025,821.4584572000022,821.4584572000022,822.2109283000027,822.2109283000027,822.7136043000028,822.7136043000028,823.6049604,823.6049604,None,num_6,0.4599729000001389,823.6049604,None,sad,1,Sad,824.0797910999994,None,None,824.0797910999994,None,,,,,,,,,,,,,,,,,,,,,,,,,,,,,,,,,,,,,,,,,,,,,,,,,,,,,37,001,0,27,340,230,2022_Nov_01_1523,Experiment,2021.1.4,360.0230414876946,
images\blank.jpg,images\blank.jpg,none,none,none,none,0,,647,on,2,0.5,0.75,0.5,0.796,0,646,1,1,1,3,3,48,192,240,,,,,,0,86,86,86,,,,,,,,,,,,,,,,,,,,,,,,,,,,,,,,,,,,,,,,,,,,,,,,,,,,,,,,,824.1633565000011,824.6684918000028,824.6684918000028,825.418279700003,825.418279700003,825.9237176000024,825.9237176000024,826.7234861000034,826.7234861000034,826.7234861000034,None,,826.7234861000034,None,miss,1,,829.7252954000011,None,None,829.7252954000011,None,,,,,,,,,,,,,,,,,,,,,,,,,,,,,,,,,,,,,,,,,,,,,,,,,,,,,37,001,0,27,340,230,2022_Nov_01_1523,Experiment,2021.1.4,360.0230414876946,
images\blank.jpg,images\blank.jpg,none,none,none,none,0,,606,on,2,0.5,0.75,0.5,0.84,0,605,2,2,2,3,3,48,192,240,,,,,,0,87,87,87,,,,,,,,,,,,,,,,,,,,,,,,,,,,,,,,,,,,,,,,,,,,,,,,,,,,,,,,,829.7474857000016,830.2529361000015,830.2529361000015,831.0082409000024,831.0082409000024,831.5080514000001,831.5080514000001,832.3523686000008,832.3523686000008,832.3523686000008,None,,832.3523686000008,829.7474857000016,miss,1,,835.3569352000006,None,None,835.3569352000006,None,,,,,,,,,,,,,,,,,,,,,,,,,,,,,,,,,,,,,,,,,,,,,,,,,,,,,37,001,0,27,340,230,2022_Nov_01_1523,Experiment,2021.1.4,360.0230414876946,
images\S6_M_H_03.png,images\S6_M_H_03_scrambled.png,6,happy,30,male,6,,453,on,2,0.5,0.75,0.5,0.878,3,452,3,1,1,2,2,32,128,166,,,,,,0,88,88,88,,,,,,,,,,,,,,,,,,,,,,,,,,,,,,,,,,,,,,,,,,,,,,,,,,,,,,,,,835.479290000003,835.9816973000015,835.9816973000015,836.7342420000023,836.7342420000023,837.2368386000016,837.2368386000016,838.1171393000004,838.1171393000004,None,num_4,2.28386689999752,838.1171393000004,835.479290000003,happy,1,Happy,840.4109067000012,None,None,840.4109067000012,None,,,,,,,,,,,,,,,,,,,,,,,,,,,,,,,,,,,,,,,,,,,,,,,,,,,,,37,001,0,27,340,230,2022_Nov_01_1523,Experiment,2021.1.4,360.0230414876946,
images\S7_F_H_02.png,images\S7_F_H_02_scrambled.png,7,happy,20,female,5,,518,off,1,0.5,0.75,0.5,0.906,3,517,1,1,1,0,0,0,0,5,,,,,,0,89,89,89,,,,,,,,,,,,,,,,,,,,,,,,,,,,,,,,,,,,,,,,,,,,,,,,,,,,,,,,,840.4608422000019,840.9634922000005,840.9634922000005,841.7161379000026,841.7161379000026,842.2186398000013,842.2186398000013,843.1267298000021,843.1267298000021,None,num_4,0.5862029999989318,843.1267298000021,None,happy,1,Happy,843.726533200001,None,None,843.726533200001,None,,,,,,,,,,,,,,,,,,,,,,,,,,,,,,,,,,,,,,,,,,,,,,,,,,,,,37,001,0,27,340,230,2022_Nov_01_1523,Experiment,2021.1.4,360.0230414876946,
images\S4_M_H_02.png,images\S4_M_H_02_scrambled.png,4,happy,20,male,5,,560,on,2,0.5,0.75,0.5,0.787,3,559,1,1,2,2,2,32,128,165,,,,,,0,90,90,90,,,,,,,,,,,,,,,,,,,,,,,,,,,,,,,,,,,,,,,,,,,,,,,,,,,,,,,,,843.7737099000005,844.2791259000005,844.2791259000005,845.0316949000007,845.0316949000007,845.5343188000006,845.5343188000006,846.328476900002,846.328476900002,None,num_6,0.36869739999747253,846.328476900002,None,sad,1,Happy,846.7061182999998,None,None,846.7061182999998,None,,,,,,,,,,,,,,,,,,,,,,,,,,,,,,,,,,,,,,,,,,,,,,,,,,,,,37,001,0,27,340,230,2022_Nov_01_1523,Experiment,2021.1.4,360.0230414876946,
images\S4_M_S_01.png,images\S4_M_S_01_scrambled.png,4,sad,-10,male,3,,262,off,1,0.5,0.75,0.5,0.908,3,261,1,2,1,0,0,0,0,3,,,,,,0,91,91,91,,,,,,,,,,,,,,,,,,,,,,,,,,,,,,,,,,,,,,,,,,,,,,,,,,,,,,,,,846.7561267000019,847.261546400001,847.261546400001,848.0168625000006,848.0168625000006,848.5222652000011,848.5222652000011,849.4331111000029,849.4331111000029,None,num_6,0.33642890000191983,849.4331111000029,None,sad,1,Sad,849.7886517000021,None,None,849.7886517000021,None,,,,,,,,,,,,,,,,,,,,,,,,,,,,,,,,,,,,,,,,,,,,,,,,,,,,,37,001,0,27,340,230,2022_Nov_01_1523,Experiment,2021.1.4,360.0230414876946,
images\S8_M_H_01.png,images\S8_M_H_01_scrambled.png,8,happy,10,male,4,,223,on,2,0.5,0.75,0.5,0.864,3,222,1,1,1,2,2,32,128,164,,,,,,0,92,92,92,,,,,,,,,,,,,,,,,,,,,,,,,,,,,,,,,,,,,,,,,,,,,,,,,,,,,,,,,849.8412823000035,850.3439099000025,850.3439099000025,851.0936986000015,851.0936986000015,851.5963385000032,851.5963385000032,852.4655261000007,852.4655261000007,None,num_6,0.6315374999976484,852.4655261000007,None,sad,1,Happy,853.1069528,None,None,853.1069528,None,,,,,,,,,,,,,,,,,,,,,,,,,,,,,,,,,,,,,,,,,,,,,,,,,,,,,37,001,0,27,340,230,2022_Nov_01_1523,Experiment,2021.1.4,360.0230414876946,
images\S4_M_S_01.png,images\S4_M_S_01_scrambled.png,4,sad,-10,male,3,,502,off,1,0.5,0.75,0.5,0.854,3,501,1,1,1,0,0,0,0,3,,,,,,0,93,93,93,,,,,,,,,,,,,,,,,,,,,,,,,,,,,,,,,,,,,,,,,,,,,,,,,,,,,,,,,853.156931700003,853.6623281000029,853.6623281000029,854.4150075000034,854.4150075000034,854.9203375000034,854.9203375000034,855.7811506000035,855.7811506000035,None,num_6,0.5241833999971277,855.7811506000035,None,sad,1,Sad,856.3226980999985,None,None,856.3226980999985,None,,,,,,,,,,,,,,,,,,,,,,,,,,,,,,,,,,,,,,,,,,,,,,,,,,,,,37,001,0,27,340,230,2022_Nov_01_1523,Experiment,2021.1.4,360.0230414876946,
images\S2_M_H_01.png,images\S2_M_H_01_scrambled.png,2,happy,10,male,4,,307,on,2,0.5,0.75,0.5,0.856,3,306,1,1,1,2,2,32,128,164,,,,,,0,94,94,94,,,,,,,,,,,,,,,,,,,,,,,,,,,,,,,,,,,,,,,,,,,,,,,,,,,,,,,,,856.3753726000032,856.8780056000032,856.8780056000032,857.6305441000004,857.6305441000004,858.135996500001,858.135996500001,858.9912342000025,858.9912342000025,None,num_6,0.465875000001688,858.9912342000025,None,sad,1,Happy,859.4661593999998,None,None,859.4661593999998,None,,,,,,,,,,,,,,,,,,,,,,,,,,,,,,,,,,,,,,,,,,,,,,,,,,,,,37,001,0,27,340,230,2022_Nov_01_1523,Experiment,2021.1.4,360.0230414876946,
images\S7_F_S_02.png,images\S7_F_S_02_scrambled.png,7,sad,-20,female,2,,341,on,2,0.5,0.75,0.5,0.886,3,340,2,1,1,2,2,32,128,162,,,,,,0,95,95,95,,,,,,,,,,,,,,,,,,,,,,,,,,,,,,,,,,,,,,,,,,,,,,,,,,,,,,,,,859.5299583000015,860.0326013000013,860.0326013000013,860.7879216000001,860.7879216000001,861.2905733000007,861.2905733000007,862.1763686000013,862.1763686000013,None,num_4,0.42459559999770136,862.1763686000013,None,happy,1,Sad,862.6095785999998,None,None,862.6095785999998,None,,,,,,,,,,,,,,,,,,,,,,,,,,,,,,,,,,,,,,,,,,,,,,,,,,,,,37,001,0,27,340,230,2022_Nov_01_1523,Experiment,2021.1.4,360.0230414876946,
images\S6_M_S_02.png,images\S6_M_S_02_scrambled.png,6,sad,-20,male,2,,455,on,2,0.5,0.75,0.5,0.751,3,454,3,1,2,2,2,32,128,162,,,,,,0,96,96,96,,,,,,,,,,,,,,,,,,,,,,,,,,,,,,,,,,,,,,,,,,,,,,,,,,,,,,,,,862.6595480000033,863.164959400001,863.164959400001,863.9175362000024,863.9175362000024,864.4229349000016,864.4229349000016,865.1782566000002,865.1782566000002,None,num_6,0.5111223999992944,865.1782566000002,None,sad,1,Sad,865.7170870999988,None,None,865.7170870999988,None,,,,,,,,,,,,,,,,,,,,,,,,,,,,,,,,,,,,,,,,,,,,,,,,,,,,,37,001,0,27,340,230,2022_Nov_01_1523,Experiment,2021.1.4,360.0230414876946,
images\S9_F_H_02.png,images\S9_F_H_02_scrambled.png,9,happy,20,female,5,,110,on,2,0.5,0.75,0.5,0.815,3,109,4,1,1,2,2,32,128,165,,,,,,0,97,97,97,,,,,,,,,,,,,,,,,,,,,,,,,,,,,,,,,,,,,,,,,,,,,,,,,,,,,,,,,865.7697155000023,866.2724302000024,866.2724302000024,867.0221092000029,867.0221092000029,867.5275431000009,867.5275431000009,868.3494804000002,868.3494804000002,None,num_4,0.16339530000186642,868.3494804000002,None,happy,1,Happy,868.5411174000009,None,None,868.5411174000009,None,,,,,,,,,,,,,,,,,,,,,,,,,,,,,,,,,,,,,,,,,,,,,,,,,,,,,37,001,0,27,340,230,2022_Nov_01_1523,Experiment,2021.1.4,360.0230414876946,
images\S9_F_S_02.png,images\S9_F_S_02_scrambled.png,9,sad,-20,female,2,,353,on,2,0.5,0.75,0.5,0.907,3,352,5,2,1,2,2,32,128,162,,,,,,0,98,98,98,,,,,,,,,,,,,,,,,,,,,,,,,,,,,,,,,,,,,,,,,,,,,,,,,,,,,,,,,868.5938273000029,869.0992493000012,869.0992493000012,869.8545752000027,869.8545752000027,870.3572594000034,870.3572594000034,871.2680415000032,871.2680415000032,None,num_4,0.7573166999973182,871.2680415000032,None,happy,1,Sad,872.0345262000003,None,None,872.0345262000003,None,,,,,,,,,,,,,,,,,,,,,,,,,,,,,,,,,,,,,,,,,,,,,,,,,,,,,37,001,0,27,340,230,2022_Nov_01_1523,Experiment,2021.1.4,360.0230414876946,
images\S8_M_H_02.png,images\S8_M_H_02_scrambled.png,8,happy,20,male,5,,224,on,2,0.5,0.75,0.5,0.765,3,223,6,1,1,2,2,32,128,165,,,,,,0,99,99,99,,,,,,,,,,,,,,,,,,,,,,,,,,,,,,,,,,,,,,,,,,,,,,,,,,,,,,,,,872.0899708000034,872.5925999000028,872.5925999000028,873.3479549000003,873.3479549000003,873.8477687000013,873.8477687000013,874.6197621000028,874.6197621000028,None,num_6,0.3894822000002023,874.6197621000028,None,sad,1,Happy,875.0225001000007,None,None,875.0225001000007,None,,,,,,,,,,,,,,,,,,,,,,,,,,,,,,,,,,,,,,,,,,,,,,,,,,,,,37,001,0,27,340,230,2022_Nov_01_1523,Experiment,2021.1.4,360.0230414876946,
images\S7_F_H_02.png,images\S7_F_H_02_scrambled.png,7,happy,20,female,5,,278,off,1,0.5,0.75,0.5,0.941,3,277,1,1,2,0,0,0,0,5,,,,,,0,100,100,100,,,,,,,,,,,,,,,,,,,,,,,,,,,,,,,,,,,,,,,,,,,,,,,,,,,,,,,,,875.0835095000002,875.5889193000003,875.5889193000003,876.3414646000019,876.3414646000019,876.8413097000011,876.8413097000011,877.7882565,877.7882565,None,num_4,0.6366239999988466,877.7882565,None,happy,1,Happy,878.4380146000025,None,None,878.4380146000025,None,,,,,,,,,,,,,,,,,,,,,,,,,,,,,,,,,,,,,,,,,,,,,,,,,,,,,37,001,0,27,340,230,2022_Nov_01_1523,Experiment,2021.1.4,360.0230414876946,
images\S5_F_H_01.png,images\S5_F_H_01_scrambled.png,5,happy,10,female,4,,505,off,1,0.5,0.75,0.5,0.815,3,504,2,1,1,0,0,0,0,4,,,,,,0,101,101,101,,,,,,,,,,,,,,,,,,,,,,,,,,,,,,,,,,,,,,,,,,,,,,,,,,,,,,,,,878.4879997000025,878.9906467000001,878.9906467000001,879.7431920000017,879.7431920000017,880.2458157000001,880.2458157000001,881.0650178000033,881.0650178000033,None,num_4,0.5518986999995832,881.0650178000033,None,happy,1,Happy,881.6315137000005,None,None,881.6315137000005,None,,,,,,,,,,,,,,,,,,,,,,,,,,,,,,,,,,,,,,,,,,,,,,,,,,,,,37,001,0,27,340,230,2022_Nov_01_1523,Experiment,2021.1.4,360.0230414876946,
images\S10_M_S_02.png,images\S10_M_S_02_scrambled.png,10,sad,-20,male,2,,599,on,2,0.5,0.75,0.5,0.822,3,598,1,1,1,2,2,32,128,162,,,,,,0,102,102,102,,,,,,,,,,,,,,,,,,,,,,,,,,,,,,,,,,,,,,,,,,,,,,,,,,,,,,,,,881.6786808000033,882.1841718000032,882.1841718000032,882.9338698000029,882.9338698000029,883.4393384000032,883.4393384000032,884.2641231000016,884.2641231000016,None,num_6,0.625246600000537,884.2641231000016,None,sad,1,Sad,884.9055990000015,None,None,884.9055990000015,None,,,,,,,,,,,,,,,,,,,,,,,,,,,,,,,,,,,,,,,,,,,,,,,,,,,,,37,001,0,27,340,230,2022_Nov_01_1523,Experiment,2021.1.4,360.0230414876946,
images\S2_M_H_01.png,images\S2_M_H_01_scrambled.png,2,happy,10,male,4,,247,off,1,0.5,0.75,0.5,0.79,3,246,1,1,1,0,0,0,0,4,,,,,,0,103,103,103,,,,,,,,,,,,,,,,,,,,,,,,,,,,,,,,,,,,,,,,,,,,,,,,,,,,,,,,,884.9526686000027,885.4552946000003,885.4552946000003,886.2078731000001,886.2078731000001,886.7133685000008,886.7133685000008,887.5102539,887.5102539,None,num_4,0.498621999999159,887.5102539,None,happy,1,Happy,888.0267613000018,None,None,888.0267613000018,None,,,,,,,,,,,,,,,,,,,,,,,,,,,,,,,,,,,,,,,,,,,,,,,,,,,,,37,001,0,27,340,230,2022_Nov_01_1523,Experiment,2021.1.4,360.0230414876946,
images\S2_M_H_03.png,images\S2_M_H_03_scrambled.png,2,happy,30,male,6,,309,on,2,0.5,0.75,0.5,0.933,3,308,1,2,1,2,2,32,128,166,,,,,,0,104,104,104,,,,,,,,,,,,,,,,,,,,,,,,,,,,,,,,,,,,,,,,,,,,,,,,,,,,,,,,,888.0739346000009,888.5794275000007,888.5794275000007,889.3346990000027,889.3346990000027,889.8372850000014,889.8372850000014,890.7759037000033,890.7759037000033,None,num_4,0.6335337999989861,890.7759037000033,None,happy,1,Happy,891.4341470000007,None,None,891.4341470000007,None,,,,,,,,,,,,,,,,,,,,,,,,,,,,,,,,,,,,,,,,,,,,,,,,,,,,,37,001,0,27,340,230,2022_Nov_01_1523,Experiment,2021.1.4,360.0230414876946,
images\S6_M_H_03.png,images\S6_M_H_03_scrambled.png,6,happy,30,male,6,,393,off,1,0.5,0.75,0.5,0.796,3,392,1,1,2,0,0,0,0,6,,,,,,0,105,105,105,,,,,,,,,,,,,,,,,,,,,,,,,,,,,,,,,,,,,,,,,,,,,,,,,,,,,,,,,891.486765200003,891.9894441000033,891.9894441000033,892.7447345,892.7447345,893.2501507000015,893.2501507000015,894.0498957000018,894.0498957000018,None,num_4,0.5428735000023153,894.0498957000018,None,happy,1,Happy,894.6108332999996,None,None,894.6108332999996,None,,,,,,,,,,,,,,,,,,,,,,,,,,,,,,,,,,,,,,,,,,,,,,,,,,,,,37,001,0,27,340,230,2022_Nov_01_1523,Experiment,2021.1.4,360.0230414876946,
images\S3_F_S_03.png,images\S3_F_S_03_scrambled.png,3,sad,-30,female,1,,318,on,2,0.5,0.75,0.5,0.911,3,317,1,1,1,2,2,32,128,161,,,,,,0,106,106,106,,,,,,,,,,,,,,,,,,,,,,,,,,,,,,,,,,,,,,,,,,,,,,,,,,,,,,,,,894.6580085000023,895.1606569000032,895.1606569000032,895.9159695000017,895.9159695000017,896.4185728000011,896.4185728000011,897.3321913,897.3321913,None,num_6,0.5978208000015002,897.3321913,None,sad,1,Sad,897.9544095000012,None,None,897.9544095000012,None,,,,,,,,,,,,,,,,,,,,,,,,,,,,,,,,,,,,,,,,,,,,,,,,,,,,,37,001,0,27,340,230,2022_Nov_01_1523,Experiment,2021.1.4,360.0230414876946,
images\S9_F_S_03.png,images\S9_F_S_03_scrambled.png,9,sad,-30,female,1,,174,off,1,0.5,0.75,0.5,0.813,3,173,1,1,2,0,0,0,0,1,,,,,,0,107,107,107,,,,,,,,,,,,,,,,,,,,,,,,,,,,,,,,,,,,,,,,,,,,,,,,,,,,,,,,,898.0069743000022,898.5096542000028,898.5096542000028,899.2649392000021,899.2649392000021,899.7703378000006,899.7703378000006,900.5867462000024,900.5867462000024,None,num_6,0.5503141000008327,900.5867462000024,None,sad,1,Sad,901.1589032999997,None,None,901.1589032999997,None,,,,,,,,,,,,,,,,,,,,,,,,,,,,,,,,,,,,,,,,,,,,,,,,,,,,,37,001,0,27,340,230,2022_Nov_01_1523,Experiment,2021.1.4,360.0230414876946,
images\S8_M_S_02.png,images\S8_M_S_02_scrambled.png,8,sad,-20,male,2,,107,on,2,0.5,0.75,0.5,0.934,3,106,1,1,1,2,2,32,128,162,,,,,,0,108,108,108,,,,,,,,,,,,,,,,,,,,,,,,,,,,,,,,,,,,,,,,,,,,,,,,,,,,,,,,,901.2087713000001,901.7086228000007,901.7086228000007,902.4611738000021,902.4611738000021,902.9639148000024,902.9639148000024,903.899654300003,903.899654300003,None,num_6,0.4450447000017448,903.899654300003,None,sad,1,Sad,904.3577888000021,None,None,904.3577888000021,None,,,,,,,,,,,,,,,,,,,,,,,,,,,,,,,,,,,,,,,,,,,,,,,,,,,,,37,001,0,27,340,230,2022_Nov_01_1523,Experiment,2021.1.4,360.0230414876946,
images\S1_F_S_03.png,images\S1_F_S_03_scrambled.png,1,sad,-30,female,1,,486,off,1,0.5,0.75,0.5,0.875,3,485,1,1,1,0,0,0,0,1,,,,,,0,109,109,109,,,,,,,,,,,,,,,,,,,,,,,,,,,,,,,,,,,,,,,,,,,,,,,,,,,,,,,,,904.4050031000006,904.9104282000008,904.9104282000008,905.6629833000006,905.6629833000006,906.1655422000003,906.1655422000003,907.0458853000018,907.0458853000018,None,num_6,0.5867932000001019,907.0458853000018,None,sad,1,Sad,907.6429327999998,None,None,907.6429327999998,None,,,,,,,,,,,,,,,,,,,,,,,,,,,,,,,,,,,,,,,,,,,,,,,,,,,,,37,001,0,27,340,230,2022_Nov_01_1523,Experiment,2021.1.4,360.0230414876946,
images\S3_F_S_03.png,images\S3_F_S_03_scrambled.png,3,sad,-30,female,1,,438,on,2,0.5,0.75,0.5,0.766,3,437,1,1,2,2,2,32,128,161,,,,,,0,110,110,110,,,,,,,,,,,,,,,,,,,,,,,,,,,,,,,,,,,,,,,,,,,,,,,,,,,,,,,,,907.6901012000017,908.1899442000031,908.1899442000031,908.939723800002,908.939723800002,909.4423923000031,909.4423923000031,910.2143733000012,910.2143733000012,None,num_6,0.8583757000014884,910.2143733000012,None,sad,1,Sad,911.0835508000004,None,None,911.0835508000004,None,,,,,,,,,,,,,,,,,,,,,,,,,,,,,,,,,,,,,,,,,,,,,,,,,,,,,37,001,0,27,340,230,2022_Nov_01_1523,Experiment,2021.1.4,360.0230414876946,
images\S4_M_S_02.png,images\S4_M_S_02_scrambled.png,4,sad,-20,male,2,,503,off,1,0.5,0.75,0.5,0.914,3,502,1,1,1,0,0,0,0,2,,,,,,0,111,111,111,,,,,,,,,,,,,,,,,,,,,,,,,,,,,,,,,,,,,,,,,,,,,,,,,,,,,,,,,911.1334790000001,911.6361421000001,911.6361421000001,912.3914564000006,912.3914564000006,912.8941716000008,912.8941716000008,913.8104759000016,913.8104759000016,None,num_6,0.40630529999907594,913.8104759000016,None,sad,1,Sad,914.2464518999986,None,None,914.2464518999986,None,,,,,,,,,,,,,,,,,,,,,,,,,,,,,,,,,,,,,,,,,,,,,,,,,,,,,37,001,0,27,340,230,2022_Nov_01_1523,Experiment,2021.1.4,360.0230414876946,
images\S7_F_S_03.png,images\S7_F_S_03_scrambled.png,7,sad,-30,female,1,,162,off,1,0.5,0.75,0.5,0.813,3,161,2,1,1,0,0,0,0,1,,,,,,0,112,112,112,,,,,,,,,,,,,,,,,,,,,,,,,,,,,,,,,,,,,,,,,,,,,,,,,,,,,,,,,914.3019537,914.8018166000002,914.8018166000002,915.5572005000031,915.5572005000031,916.0625741000003,916.0625741000003,916.8818597000027,916.8818597000027,None,num_6,0.39895569999862346,916.8818597000027,None,sad,1,Sad,917.3121754999993,None,None,917.3121754999993,None,,,,,,,,,,,,,,,,,,,,,,,,,,,,,,,,,,,,,,,,,,,,,,,,,,,,,37,001,0,27,340,230,2022_Nov_01_1523,Experiment,2021.1.4,360.0230414876946,
images\S2_M_H_01.png,images\S2_M_H_01_scrambled.png,2,happy,10,male,4,,187,on,2,0.5,0.75,0.5,0.927,3,186,1,1,1,2,2,32,128,164,,,,,,0,113,113,113,,,,,,,,,,,,,,,,,,,,,,,,,,,,,,,,,,,,,,,,,,,,,,,,,,,,,,,,,917.3676696000002,917.8731074000025,917.8731074000025,918.6228422000022,918.6228422000022,919.1282672000016,919.1282672000016,920.0585363000027,920.0585363000027,None,num_4,0.4787225000000035,920.0585363000027,None,happy,1,Happy,920.5611705000003,None,None,920.5611705000003,None,,,,,,,,,,,,,,,,,,,,,,,,,,,,,,,,,,,,,,,,,,,,,,,,,,,,,37,001,0,27,340,230,2022_Nov_01_1523,Experiment,2021.1.4,360.0230414876946,
images\S5_F_H_03.png,images\S5_F_H_03_scrambled.png,5,happy,30,female,6,,567,on,2,0.5,0.75,0.5,0.753,3,566,2,1,1,2,2,32,128,166,,,,,,0,114,114,114,,,,,,,,,,,,,,,,,,,,,,,,,,,,,,,,,,,,,,,,,,,,,,,,,,,,,,,,,920.6277728000023,921.1276185000024,921.1276185000024,921.877384200001,921.877384200001,922.3828252000021,922.3828252000021,923.1381495000023,923.1381495000023,None,num_4,0.6066874000025564,923.1381495000023,None,happy,1,Happy,923.7657965999999,None,None,923.7657965999999,None,,,,,,,,,,,,,,,,,,,,,,,,,,,,,,,,,,,,,,,,,,,,,,,,,,,,,37,001,0,27,340,230,2022_Nov_01_1523,Experiment,2021.1.4,360.0230414876946,
images\S2_M_S_03.png,images\S2_M_S_03_scrambled.png,2,sad,-30,male,1,,552,on,2,0.5,0.75,0.5,0.782,3,551,3,1,1,2,2,32,128,161,,,,,,0,115,115,115,,,,,,,,,,,,,,,,,,,,,,,,,,,,,,,,,,,,,,,,,,,,,,,,,,,,,,,,,923.8184697000033,924.3182975000018,924.3182975000018,925.070882,925.070882,925.573488500002,925.573488500002,926.3593336000013,926.3593336000013,None,num_6,0.425580600000103,926.3593336000013,None,sad,1,Sad,926.7953519999995,None,None,926.7953519999995,None,,,,,,,,,,,,,,,,,,,,,,,,,,,,,,,,,,,,,,,,,,,,,,,,,,,,,37,001,0,27,340,230,2022_Nov_01_1523,Experiment,2021.1.4,360.0230414876946,
images\S6_M_H_01.png,images\S6_M_H_01_scrambled.png,6,happy,10,male,4,,511,off,1,0.5,0.75,0.5,0.861,3,510,1,1,1,0,0,0,0,4,,,,,,0,116,116,116,,,,,,,,,,,,,,,,,,,,,,,,,,,,,,,,,,,,,,,,,,,,,,,,,,,,,,,,,926.8425252000015,927.3452861000005,927.3452861000005,928.0949180000025,928.0949180000025,928.5975628000015,928.5975628000015,929.461263000001,929.461263000001,None,num_6,0.5156024999996589,929.461263000001,None,sad,1,Happy,929.9860969000009,None,None,929.9860969000009,None,,,,,,,,,,,,,,,,,,,,,,,,,,,,,,,,,,,,,,,,,,,,,,,,,,,,,37,001,0,27,340,230,2022_Nov_01_1523,Experiment,2021.1.4,360.0230414876946,
images\S4_M_H_03.png,images\S4_M_H_03_scrambled.png,4,happy,30,male,6,,261,off,1,0.5,0.75,0.5,0.819,3,260,2,1,1,0,0,0,0,6,,,,,,0,117,117,117,,,,,,,,,,,,,,,,,,,,,,,,,,,,,,,,,,,,,,,,,,,,,,,,,,,,,,,,,930.0470742000034,930.5525226000027,930.5525226000027,931.3078375000005,931.3078375000005,931.8104300000014,931.8104300000014,932.6323968000033,932.6323968000033,None,num_4,0.3685033999972802,932.6323968000033,None,happy,1,Happy,933.0156162000006,None,None,933.0156162000006,None,,,,,,,,,,,,,,,,,,,,,,,,,,,,,,,,,,,,,,,,,,,,,,,,,,,,,37,001,0,27,340,230,2022_Nov_01_1523,Experiment,2021.1.4,360.0230414876946,
images\S1_F_H_03.png,images\S1_F_H_03_scrambled.png,1,happy,30,female,6,,63,on,2,0.5,0.75,0.5,0.78,3,62,1,1,2,2,2,32,128,166,,,,,,0,118,118,118,,,,,,,,,,,,,,,,,,,,,,,,,,,,,,,,,,,,,,,,,,,,,,,,,,,,,,,,,933.0822630000002,933.5876902000018,933.5876902000018,934.3403445000004,934.3403445000004,934.8400529000028,934.8400529000028,935.6231652000024,935.6231652000024,None,num_4,0.6334869999991497,935.6231652000024,None,happy,1,Happy,936.2868740999984,None,None,936.2868740999984,None,,,,,,,,,,,,,,,,,,,,,,,,,,,,,,,,,,,,,,,,,,,,,,,,,,,,,37,001,0,27,340,230,2022_Nov_01_1523,Experiment,2021.1.4,360.0230414876946,
images\S10_M_S_01.png,images\S10_M_S_01_scrambled.png,10,sad,-10,male,3,,598,on,2,0.5,0.75,0.5,0.933,3,597,2,1,1,2,2,32,128,163,,,,,,0,119,119,119,,,,,,,,,,,,,,,,,,,,,,,,,,,,,,,,,,,,,,,,,,,,,,,,,,,,,,,,,936.3478655000035,936.8533400000015,936.8533400000015,937.6058873000002,937.6058873000002,938.1113372,938.1113372,939.0471308000015,939.0471308000015,None,num_4,0.56154069999684,939.0471308000015,None,happy,1,Sad,939.6136147000027,None,None,939.6136147000027,None,,,,,,,,,,,,,,,,,,,,,,,,,,,,,,,,,,,,,,,,,,,,,,,,,,,,,37,001,0,27,340,230,2022_Nov_01_1523,Experiment,2021.1.4,360.0230414876946,
images\S8_M_S_01.png,images\S8_M_S_01_scrambled.png,8,sad,-10,male,3,,466,on,2,0.5,0.75,0.5,0.758,3,465,3,1,2,2,2,32,128,163,,,,,,0,120,120,120,,,,,,,,,,,,,,,,,,,,,,,,,,,,,,,,,,,,,,,,,,,,,,,,,,,,,,,,,939.6607902000032,940.1634640000011,940.1634640000011,940.9160109000004,940.9160109000004,941.418587600001,941.418587600001,942.1823262000034,942.1823262000034,None,num_4,0.4912861000011617,942.1823262000034,None,happy,1,Sad,942.6822311999997,None,None,942.6822311999997,None,,,,,,,,,,,,,,,,,,,,,,,,,,,,,,,,,,,,,,,,,,,,,,,,,,,,,37,001,0,27,340,230,2022_Nov_01_1523,Experiment,2021.1.4,360.0230414876946,
images\S8_M_S_01.png,images\S8_M_S_01_scrambled.png,8,sad,-10,male,3,,46,off,1,0.5,0.75,0.5,0.798,3,45,1,2,3,0,0,0,0,3,,,,,,0,121,121,121,,,,,,,,,,,,,,,,,,,,,,,,,,,,,,,,,,,,,,,,,,,,,,,,,,,,,,,,,942.743173400002,943.2486198000006,943.2486198000006,944.0039307000006,944.0039307000006,944.5065115000034,944.5065115000034,945.3090736000013,945.3090736000013,None,num_6,0.5722647000002326,945.3090736000013,None,sad,1,Sad,945.9006582999988,None,None,945.9006582999988,None,,,,,,,,,,,,,,,,,,,,,,,,,,,,,,,,,,,,,,,,,,,,,,,,,,,,,37,001,0,27,340,230,2022_Nov_01_1523,Experiment,2021.1.4,360.0230414876946,
images\S1_F_H_03.png,images\S1_F_H_03_scrambled.png,1,happy,30,female,6,,423,on,2,0.5,0.75,0.5,0.882,3,422,1,1,1,2,2,32,128,166,,,,,,0,122,122,122,,,,,,,,,,,,,,,,,,,,,,,,,,,,,,,,,,,,,,,,,,,,,,,,,,,,,,,,,945.9532929000015,946.4586972000034,946.4586972000034,947.2084619000016,947.2084619000016,947.7111256000026,947.7111256000026,948.5997260000004,948.5997260000004,None,num_4,0.6730881000003137,948.5997260000004,None,happy,1,Happy,949.2883970999995,None,None,949.2883970999995,None,,,,,,,,,,,,,,,,,,,,,,,,,,,,,,,,,,,,,,,,,,,,,,,,,,,,,37,001,0,27,340,230,2022_Nov_01_1523,Experiment,2021.1.4,360.0230414876946,
images\S2_M_S_03.png,images\S2_M_S_03_scrambled.png,2,sad,-30,male,1,,432,on,2,0.5,0.75,0.5,0.828,3,431,2,1,1,2,2,32,128,161,,,,,,0,123,123,123,,,,,,,,,,,,,,,,,,,,,,,,,,,,,,,,,,,,,,,,,,,,,,,,,,,,,,,,,949.3355782000035,949.8410065000025,949.8410065000025,950.593654100001,950.593654100001,951.0933730000033,951.0933730000033,951.9238009000001,951.9238009000001,None,num_6,0.5412791000017023,951.9238009000001,None,sad,1,Sad,952.4931163000009,None,None,952.4931163000009,None,,,,,,,,,,,,,,,,,,,,,,,,,,,,,,,,,,,,,,,,,,,,,,,,,,,,,37,001,0,27,340,230,2022_Nov_01_1523,Experiment,2021.1.4,360.0230414876946,
images\S4_M_H_03.png,images\S4_M_H_03_scrambled.png,4,happy,30,male,6,,141,off,1,0.5,0.75,0.5,0.905,3,140,1,1,1,0,0,0,0,6,,,,,,0,124,124,124,,,,,,,,,,,,,,,,,,,,,,,,,,,,,,,,,,,,,,,,,,,,,,,,,,,,,,,,,952.5457051000012,953.0483239000023,953.0483239000023,953.7980929000005,953.7980929000005,954.3036274000006,954.3036274000006,955.2143845000028,955.2143845000028,None,num_4,1.3544899999978952,955.2143845000028,None,happy,1,Happy,956.5833723000018,None,None,956.5833723000018,None,,,,,,,,,,,,,,,,,,,,,,,,,,,,,,,,,,,,,,,,,,,,,,,,,,,,,37,001,0,27,340,230,2022_Nov_01_1523,Experiment,2021.1.4,360.0230414876946,
images\S1_F_S_03.png,images\S1_F_S_03_scrambled.png,1,sad,-30,female,1,,306,on,2,0.5,0.75,0.5,0.785,3,305,1,1,1,2,2,32,128,161,,,,,,0,125,125,125,,,,,,,,,,,,,,,,,,,,,,,,,,,,,,,,,,,,,,,,,,,,,,,,,,,,,,,,,956.6305625000023,957.1304189000002,957.1304189000002,957.8830731000016,957.8830731000016,958.3883804000034,958.3883804000034,959.1771423000027,959.1771423000027,None,num_6,0.5197791999999026,959.1771423000027,None,sad,1,Sad,959.7129593000012,None,None,959.7129593000012,None,,,,,,,,,,,,,,,,,,,,,,,,,,,,,,,,,,,,,,,,,,,,,,,,,,,,,37,001,0,27,340,230,2022_Nov_01_1523,Experiment,2021.1.4,360.0230414876946,
images\S1_F_S_01.png,images\S1_F_S_01_scrambled.png,1,sad,-10,female,3,,184,on,2,0.5,0.75,0.5,0.826,3,183,2,2,1,2,2,32,128,163,,,,,,0,126,126,126,,,,,,,,,,,,,,,,,,,,,,,,,,,,,,,,,,,,,,,,,,,,,,,,,,,,,,,,,959.7601768000022,960.2655702000011,960.2655702000011,961.0208897000011,961.0208897000011,961.5207354000013,961.5207354000013,962.3539216000026,962.3539216000026,None,num_4,0.32694679999985965,962.3539216000026,None,happy,1,Sad,962.6897743000002,None,None,962.6897743000002,None,,,,,,,,,,,,,,,,,,,,,,,,,,,,,,,,,,,,,,,,,,,,,,,,,,,,,37,001,0,27,340,230,2022_Nov_01_1523,Experiment,2021.1.4,360.0230414876946,
images\S1_F_H_02.png,images\S1_F_H_02_scrambled.png,1,happy,20,female,5,,242,off,1,0.5,0.75,0.5,0.802,3,241,1,3,1,0,0,0,0,5,,,,,,0,127,127,127,,,,,,,,,,,,,,,,,,,,,,,,,,,,,,,,,,,,,,,,,,,,,,,,,,,,,,,,,962.7369928000007,963.2396654000004,963.2396654000004,963.9949853000035,963.9949853000035,964.4975653000001,964.4975653000001,965.3029193000002,965.3029193000002,None,num_4,0.7938394999982847,965.3029193000002,None,happy,1,Happy,966.1082030000019,None,None,966.1082030000019,None,,,,,,,,,,,,,,,,,,,,,,,,,,,,,,,,,,,,,,,,,,,,,,,,,,,,,37,001,0,27,340,230,2022_Nov_01_1523,Experiment,2021.1.4,360.0230414876946,
images\S9_F_H_02.png,images\S9_F_H_02_scrambled.png,9,happy,20,female,5,,50,off,1,0.5,0.75,0.5,0.945,3,49,2,1,2,0,0,0,0,5,,,,,,0,128,128,128,,,,,,,,,,,,,,,,,,,,,,,,,,,,,,,,,,,,,,,,,,,,,,,,,,,,,,,,,966.1553953000002,966.6581568000001,966.6581568000001,967.4105819000033,967.4105819000033,967.913304200003,967.913304200003,968.8573310000029,968.8573310000029,None,num_4,0.2638174000021536,968.8573310000029,None,happy,1,Happy,969.1435388999992,None,None,969.1435388999992,None,,,,,,,,,,,,,,,,,,,,,,,,,,,,,,,,,,,,,,,,,,,,,,,,,,,,,37,001,0,27,340,230,2022_Nov_01_1523,Experiment,2021.1.4,360.0230414876946,
images\S3_F_S_03.png,images\S3_F_S_03_scrambled.png,3,sad,-30,female,1,,18,off,1,0.5,0.75,0.5,0.753,3,17,3,1,1,0,0,0,0,1,,,,,,0,129,129,129,,,,,,,,,,,,,,,,,,,,,,,,,,,,,,,,,,,,,,,,,,,,,,,,,,,,,,,,,969.1933553000017,969.6988307000029,969.6988307000029,970.4512848000013,970.4512848000013,970.9540033000012,970.9540033000012,971.7064522000001,971.7064522000001,None,num_6,0.2781712999967567,971.7064522000001,None,sad,1,Sad,971.9952939000017,None,None,971.9952939000017,None,,,,,,,,,,,,,,,,,,,,,,,,,,,,,,,,,,,,,,,,,,,,,,,,,,,,,37,001,0,27,340,230,2022_Nov_01_1523,Experiment,2021.1.4,360.0230414876946,
images\S10_M_S_02.png,images\S10_M_S_02_scrambled.png,10,sad,-20,male,2,,359,on,2,0.5,0.75,0.5,0.835,3,358,1,1,1,2,2,32,128,162,,,,,,0,130,130,130,,,,,,,,,,,,,,,,,,,,,,,,,,,,,,,,,,,,,,,,,,,,,,,,,,,,,,,,,972.042457800002,972.5450875000024,972.5450875000024,973.3004371000025,973.3004371000025,973.8031729000031,973.8031729000031,974.6444440000014,974.6444440000014,None,num_6,0.4042673999974795,974.6444440000014,None,sad,1,Sad,975.080442100003,None,space,975.080442100003,None,48.57585459999973,,,,,,,,,,,,,,,,,,,,,,,,,,,,,,,,,,,,,,,,,,,,,,,,,,,,37,001,0,27,340,230,2022_Nov_01_1523,Experiment,2021.1.4,360.0230414876946,
images\S5_F_H_02.png,images\S5_F_H_02_scrambled.png,5,happy,20,female,5,,146,off,1,0.5,0.75,0.5,0.84,3,145,1,1,1,0,0,0,0,5,,,,,,0,131,131,131,,,,,,,,,,,,,,,,,,,,,,,,,,,,,,,,,,,,,,,,,,,,,,,,,,,,,,,,,1023.7153473000035,1024.2209353000035,1024.2209353000035,1024.973399800001,1024.973399800001,1025.476060500001,1025.476060500001,1026.3202948000035,1026.3202948000035,None,num_4,0.5284232000012707,1026.3202948000035,None,happy,1,Happy,1026.8729106000005,None,None,1026.8729106000005,None,,,,,,,,,,,,,,,,,,,,,,,,,,,,,,,,,,,,,,,,,,,,,,,,,,,,,37,001,0,27,340,230,2022_Nov_01_1523,Experiment,2021.1.4,360.0230414876946,
images\blank.jpg,images\blank.jpg,none,none,none,none,0,,648,on,2,0.5,0.75,0.5,0.773,0,647,1,1,1,3,3,48,192,240,,,,,,0,132,132,132,,,,,,,,,,,,,,,,,,,,,,,,,,,,,,,,,,,,,,,,,,,,,,,,,,,,,,,,,1026.9618612000013,1027.464249200002,1027.464249200002,1028.2140175000022,1028.2140175000022,1028.7166921000025,1028.7166921000025,1029.4914487000024,1029.4914487000024,1029.4914487000024,None,,1029.4914487000024,None,miss,1,,1032.4932777000008,None,None,1032.4932777000008,None,,,,,,,,,,,,,,,,,,,,,,,,,,,,,,,,,,,,,,,,,,,,,,,,,,,,,37,001,0,27,340,230,2022_Nov_01_1523,Experiment,2021.1.4,360.0230414876946,
images\S3_F_S_03.png,images\S3_F_S_03_scrambled.png,3,sad,-30,female,1,,558,on,2,0.5,0.75,0.5,0.775,3,557,2,1,1,2,2,32,128,161,,,,,,0,133,133,133,,,,,,,,,,,,,,,,,,,,,,,,,,,,,,,,,,,,,,,,,,,,,,,,,,,,,,,,,1032.6073838000011,1033.1125388,1033.1125388,1033.867857600002,1033.867857600002,1034.3732526000022,1034.3732526000022,1035.1509048000007,1035.1509048000007,None,num_6,0.5216839000022446,1035.1509048000007,1032.6073838000011,sad,1,Sad,1035.6951138999982,None,None,1035.6951138999982,None,,,,,,,,,,,,,,,,,,,,,,,,,,,,,,,,,,,,,,,,,,,,,,,,,,,,,37,001,0,27,340,230,2022_Nov_01_1523,Experiment,2021.1.4,360.0230414876946,
images\S5_F_S_03.png,images\S5_F_S_03_scrambled.png,5,sad,-30,female,1,,570,on,2,0.5,0.75,0.5,0.8,3,569,3,1,2,2,2,32,128,161,,,,,,0,134,134,134,,,,,,,,,,,,,,,,,,,,,,,,,,,,,,,,,,,,,,,,,,,,,,,,,,,,,,,,,1035.7478109000003,1036.2504248000005,1036.2504248000005,1037.002995400002,1037.002995400002,1037.5057364000022,1037.5057364000022,1038.3053499000016,1038.3053499000016,None,num_6,0.7192652000012458,1038.3053499000016,None,sad,1,Sad,1039.0357078,None,None,1039.0357078,None,,,,,,,,,,,,,,,,,,,,,,,,,,,,,,,,,,,,,,,,,,,,,,,,,,,,,37,001,0,27,340,230,2022_Nov_01_1523,Experiment,2021.1.4,360.0230414876946,
images\S2_M_H_01.png,images\S2_M_H_01_scrambled.png,2,happy,10,male,4,,67,on,2,0.5,0.75,0.5,0.762,3,66,4,1,1,2,2,32,128,164,,,,,,0,135,135,135,,,,,,,,,,,,,,,,,,,,,,,,,,,,,,,,,,,,,,,,,,,,,,,,,,,,,,,,,1039.0828899000007,1039.5882972,1039.5882972,1040.3381028000003,1040.3381028000003,1040.8379446000035,1040.8379446000035,1041.6044728000015,1041.6044728000015,None,num_6,0.4448288000021421,1041.6044728000015,None,sad,1,Happy,1042.057061300001,None,None,1042.057061300001,None,,,,,,,,,,,,,,,,,,,,,,,,,,,,,,,,,,,,,,,,,,,,,,,,,,,,,37,001,0,27,340,230,2022_Nov_01_1523,Experiment,2021.1.4,360.0230414876946,
images\S5_F_H_03.png,images\S5_F_H_03_scrambled.png,5,happy,30,female,6,,387,off,1,0.5,0.75,0.5,0.925,3,386,1,1,1,0,0,0,0,6,,,,,,0,136,136,136,,,,,,,,,,,,,,,,,,,,,,,,,,,,,,,,,,,,,,,,,,,,,,,,,,,,,,,,,1042.112512900003,1042.612350000003,1042.612350000003,1043.3649218000028,1043.3649218000028,1043.8703596000014,1043.8703596000014,1044.8006094000011,1044.8006094000011,None,num_4,0.5999862999997276,1044.8006094000011,None,happy,1,Happy,1045.414289900002,None,None,1045.414289900002,None,,,,,,,,,,,,,,,,,,,,,,,,,,,,,,,,,,,,,,,,,,,,,,,,,,,,,37,001,0,27,340,230,2022_Nov_01_1523,Experiment,2021.1.4,360.0230414876946,
images\S7_F_S_01.png,images\S7_F_S_01_scrambled.png,7,sad,-10,female,3,,160,off,1,0.5,0.75,0.5,0.81,3,159,2,1,1,0,0,0,0,3,,,,,,0,137,137,137,,,,,,,,,,,,,,,,,,,,,,,,,,,,,,,,,,,,,,,,,,,,,,,,,,,,,,,,,1045.4614865000003,1045.9641214000003,1045.9641214000003,1046.7194524000006,1046.7194524000006,1047.2221921000018,1047.2221921000018,1048.0356924000007,1048.0356924000007,None,num_4,0.5570052000002761,1048.0356924000007,None,happy,1,Sad,1048.6077737999992,None,None,1048.6077737999992,None,,,,,,,,,,,,,,,,,,,,,,,,,,,,,,,,,,,,,,,,,,,,,,,,,,,,,37,001,0,27,340,230,2022_Nov_01_1523,Experiment,2021.1.4,360.0230414876946,
images\S10_M_S_03.png,images\S10_M_S_03_scrambled.png,10,sad,-30,male,1,,540,off,1,0.5,0.75,0.5,0.867,3,539,3,1,1,0,0,0,0,1,,,,,,0,138,138,138,,,,,,,,,,,,,,,,,,,,,,,,,,,,,,,,,,,,,,,,,,,,,,,,,,,,,,,,,1048.668822800002,1049.1714514000014,1049.1714514000014,1049.9240213000012,1049.9240213000012,1050.4294150000023,1050.4294150000023,1051.2986115000022,1051.2986115000022,None,num_6,0.3424629000001005,1051.2986115000022,None,sad,1,Sad,1051.6624738000005,None,None,1051.6624738000005,None,,,,,,,,,,,,,,,,,,,,,,,,,,,,,,,,,,,,,,,,,,,,,,,,,,,,,37,001,0,27,340,230,2022_Nov_01_1523,Experiment,2021.1.4,360.0230414876946,
images\S9_F_H_03.png,images\S9_F_H_03_scrambled.png,9,happy,30,female,6,,231,on,2,0.5,0.75,0.5,0.763,3,230,1,1,1,2,2,32,128,166,,,,,,0,139,139,139,,,,,,,,,,,,,,,,,,,,,,,,,,,,,,,,,,,,,,,,,,,,,,,,,,,,,,,,,1051.728979800002,1052.2288322000022,1052.2288322000022,1052.9786172000022,1052.9786172000022,1053.4840447000024,1053.4840447000024,1054.2532591000017,1054.2532591000017,None,num_4,0.4112553000013577,1054.2532591000017,None,happy,1,Happy,1054.6753040000024,None,None,1054.6753040000024,None,,,,,,,,,,,,,,,,,,,,,,,,,,,,,,,,,,,,,,,,,,,,,,,,,,,,,37,001,0,27,340,230,2022_Nov_01_1523,Experiment,2021.1.4,360.0230414876946,
