image_face,image_scram,avatar,emo,emotion,sex,trigeeg,dac,trial_no,NMES,stimtime,baseline,iti,face,scr_face,resp_time,index,count_NMES,count_avatar,count_emotion,dac1,dac2,dac1_output,dac2_output,trigs_out,nmes,practice_trials.thisRepN,practice_trials.thisTrialN,practice_trials.thisN,practice_trials.thisIndex,real_trials.thisRepN,real_trials.thisTrialN,real_trials.thisN,real_trials.thisIndex,trials.thisRepN,trials.thisTrialN,trials.thisN,trials.thisIndex,position,Welcome.started,Welcome.stopped,Welcome_resp.keys,Welcome_resp.rt,text_2.started,text_2.stopped,form_2.index,form_2.itemText,form_2.type,form_2.response,form_2.rt,key_resp_4.keys,key_resp_4.rt,key_resp_4.started,key_resp_4.stopped,instructions.started,instructions.stopped,end_instr.keys,end_instr.rt,instructions_2.started,instructions_2.stopped,end_instr_2.keys,end_instr_2.rt,end_instr_2.started,end_instr_2.stopped,instruct_keypress.started,instruct_keypress.stopped,end_instruct_keypress.keys,end_instruct_keypress.rt,start_practice.started,start_practice.stopped,start_practice_resp.keys,start_practice_resp.rt,prac_baseline.started,prac_baseline.stopped,prac_iti.started,prac_iti.stopped,prac_stimulus.started,prac_stimulus.stopped,prac_scram_stim.started,prac_scram_stim.stopped,prac_stimulus_resp.started,prac_stimulus_resp.stopped,prac_resp.keys,prac_resp.rt,prac_resp.started,prac_resp.stopped,transition_to_real.started,transition_to_real.stopped,end_transition_to_real.keys,end_transition_to_real.rt,fixation_cross.started,fixation_cross.stopped,tr_iti.started,tr_iti.stopped,stimulus.started,stimulus.stopped,scram_stim.started,scram_stim.stopped,response_txt.started,response_txt.stopped,response.keys,response.rt,response.started,response.stopped,participant_Resp,grouping,corAnswer,break_msg.started,break_msg.stopped,end_break.keys,end_break.started,end_break.stopped,end_break.rt,text.started,text.stopped,key_resp_3.keys,key_resp_3.rt,key_resp_3.started,key_resp_3.stopped,fix_cross_comf.started,fix_cross_comf.stopped,stimulation_comf.started,stimulation_comf.stopped,rate_instr.started,rate_instr.stopped,comfort_rating.response,comfort_rating.rt,comfort_rating.started,comfort_rating.stopped,resp_form.keys,resp_form.rt,resp_form.started,resp_form.stopped,survey_instructions.started,survey_instructions.stopped,key_resp_2.keys,key_resp_2.rt,key_resp_2.started,key_resp_2.stopped,form.index,form.itemText,form.type,form.response,form.rt,key_resp.keys,key_resp.rt,key_resp.started,key_resp.stopped,text_3.started,text_3.stopped,rate_smile.response,rate_smile.rt,rate_smile.started,rate_smile.stopped,key_resp_5.keys,key_resp_5.rt,key_resp_5.started,key_resp_5.stopped,end_msg.started,end_msg.stopped,end_resp.keys,end_resp.rt,end_resp.started,end_resp.stopped,participant,session,gender,age,LEFT,RIGHT,date,expName,psychopyVersion,frameRate,
,,,,,,,,,,,,,,,,,,,,,,,,,,,,,,,,,,,,,,S-H,33.3000949999996,None,num_add,4.2973768000001655,,,,,,,,,,,,,,,,,,,,,,,,,,,,,,,,,,,,,,,,,,,,,,,,,,,,,,,,,,,,,,,,,,,,,,,,,,,,,,,,,,,,,,,,,,,,,,,,,,,,,,,,,,,,,,,,,,,,,,,,,,38,001,0,20,300,300,2022_Nov_09_1124,Experiment,2021.1.4,359.7859992981544,
,,,,,,,,,,,,,,,,,,,,,,,,,,,,,,,,,,,,,,,,,,,37.60505229999944,39.646100099999785,1,"This scale consistes of a number of words that describe different feelings and emotion. Read each item and then list the number from the scale below each word. Indicate (by clicking) to what extend you feel this way RIGHT NOW, that is, AT THE PRESENT MOMENT.",description,,,,,,,,,,,,,,,,,,,,,,,,,,,,,,,,,,,,,,,,,,,,,,,,,,,,,,,,,,,,,,,,,,,,,,,,,,,,,,,,,,,,,,,,,,,,,,,,,,,,,,,,,,,,,,,,,,,,,38,001,0,20,300,300,2022_Nov_09_1124,Experiment,2021.1.4,359.7859992981544,
,,,,,,,,,,,,,,,,,,,,,,,,,,,,,,,,,,,,,,,,,,,,,2,Interested,rating,4.0,21.1949611,,,,,,,,,,,,,,,,,,,,,,,,,,,,,,,,,,,,,,,,,,,,,,,,,,,,,,,,,,,,,,,,,,,,,,,,,,,,,,,,,,,,,,,,,,,,,,,,,,,,,,,,,,,,,,,,,,,38,001,0,20,300,300,2022_Nov_09_1124,Experiment,2021.1.4,359.7859992981544,
,,,,,,,,,,,,,,,,,,,,,,,,,,,,,,,,,,,,,,,,,,,,,3,Distressed,rating,1.0,24.772613299999648,,,,,,,,,,,,,,,,,,,,,,,,,,,,,,,,,,,,,,,,,,,,,,,,,,,,,,,,,,,,,,,,,,,,,,,,,,,,,,,,,,,,,,,,,,,,,,,,,,,,,,,,,,,,,,,,,,,38,001,0,20,300,300,2022_Nov_09_1124,Experiment,2021.1.4,359.7859992981544,
,,,,,,,,,,,,,,,,,,,,,,,,,,,,,,,,,,,,,,,,,,,,,4,Excited,rating,3.0,26.917884200000117,,,,,,,,,,,,,,,,,,,,,,,,,,,,,,,,,,,,,,,,,,,,,,,,,,,,,,,,,,,,,,,,,,,,,,,,,,,,,,,,,,,,,,,,,,,,,,,,,,,,,,,,,,,,,,,,,,,38,001,0,20,300,300,2022_Nov_09_1124,Experiment,2021.1.4,359.7859992981544,
,,,,,,,,,,,,,,,,,,,,,,,,,,,,,,,,,,,,,,,,,,,,,5,Upset,rating,1.0,31.687268399999994,,,,,,,,,,,,,,,,,,,,,,,,,,,,,,,,,,,,,,,,,,,,,,,,,,,,,,,,,,,,,,,,,,,,,,,,,,,,,,,,,,,,,,,,,,,,,,,,,,,,,,,,,,,,,,,,,,,38,001,0,20,300,300,2022_Nov_09_1124,Experiment,2021.1.4,359.7859992981544,
,,,,,,,,,,,,,,,,,,,,,,,,,,,,,,,,,,,,,,,,,,,,,6,Strong,rating,2.0,34.43751049999992,,,,,,,,,,,,,,,,,,,,,,,,,,,,,,,,,,,,,,,,,,,,,,,,,,,,,,,,,,,,,,,,,,,,,,,,,,,,,,,,,,,,,,,,,,,,,,,,,,,,,,,,,,,,,,,,,,,38,001,0,20,300,300,2022_Nov_09_1124,Experiment,2021.1.4,359.7859992981544,
,,,,,,,,,,,,,,,,,,,,,,,,,,,,,,,,,,,,,,,,,,,,,7,Guilty,rating,1.0,9.802638600000137,,,,,,,,,,,,,,,,,,,,,,,,,,,,,,,,,,,,,,,,,,,,,,,,,,,,,,,,,,,,,,,,,,,,,,,,,,,,,,,,,,,,,,,,,,,,,,,,,,,,,,,,,,,,,,,,,,,38,001,0,20,300,300,2022_Nov_09_1124,Experiment,2021.1.4,359.7859992981544,
,,,,,,,,,,,,,,,,,,,,,,,,,,,,,,,,,,,,,,,,,,,,,8,Scared,rating,1.0,10.193046600000343,,,,,,,,,,,,,,,,,,,,,,,,,,,,,,,,,,,,,,,,,,,,,,,,,,,,,,,,,,,,,,,,,,,,,,,,,,,,,,,,,,,,,,,,,,,,,,,,,,,,,,,,,,,,,,,,,,,38,001,0,20,300,300,2022_Nov_09_1124,Experiment,2021.1.4,359.7859992981544,
,,,,,,,,,,,,,,,,,,,,,,,,,,,,,,,,,,,,,,,,,,,,,9,Hostile,rating,1.0,6.709056800000326,,,,,,,,,,,,,,,,,,,,,,,,,,,,,,,,,,,,,,,,,,,,,,,,,,,,,,,,,,,,,,,,,,,,,,,,,,,,,,,,,,,,,,,,,,,,,,,,,,,,,,,,,,,,,,,,,,,38,001,0,20,300,300,2022_Nov_09_1124,Experiment,2021.1.4,359.7859992981544,
,,,,,,,,,,,,,,,,,,,,,,,,,,,,,,,,,,,,,,,,,,,,,10,Enthusiastic,rating,3.0,6.578656200000296,,,,,,,,,,,,,,,,,,,,,,,,,,,,,,,,,,,,,,,,,,,,,,,,,,,,,,,,,,,,,,,,,,,,,,,,,,,,,,,,,,,,,,,,,,,,,,,,,,,,,,,,,,,,,,,,,,,38,001,0,20,300,300,2022_Nov_09_1124,Experiment,2021.1.4,359.7859992981544,
,,,,,,,,,,,,,,,,,,,,,,,,,,,,,,,,,,,,,,,,,,,,,11,Proud,rating,1.0,11.336454599999342,,,,,,,,,,,,,,,,,,,,,,,,,,,,,,,,,,,,,,,,,,,,,,,,,,,,,,,,,,,,,,,,,,,,,,,,,,,,,,,,,,,,,,,,,,,,,,,,,,,,,,,,,,,,,,,,,,,38,001,0,20,300,300,2022_Nov_09_1124,Experiment,2021.1.4,359.7859992981544,
,,,,,,,,,,,,,,,,,,,,,,,,,,,,,,,,,,,,,,,,,,,,,12,Irritable,rating,1.0,14.280013499999768,,,,,,,,,,,,,,,,,,,,,,,,,,,,,,,,,,,,,,,,,,,,,,,,,,,,,,,,,,,,,,,,,,,,,,,,,,,,,,,,,,,,,,,,,,,,,,,,,,,,,,,,,,,,,,,,,,,38,001,0,20,300,300,2022_Nov_09_1124,Experiment,2021.1.4,359.7859992981544,
,,,,,,,,,,,,,,,,,,,,,,,,,,,,,,,,,,,,,,,,,,,,,13,Alert,rating,1.0,14.021178399999371,,,,,,,,,,,,,,,,,,,,,,,,,,,,,,,,,,,,,,,,,,,,,,,,,,,,,,,,,,,,,,,,,,,,,,,,,,,,,,,,,,,,,,,,,,,,,,,,,,,,,,,,,,,,,,,,,,,38,001,0,20,300,300,2022_Nov_09_1124,Experiment,2021.1.4,359.7859992981544,
,,,,,,,,,,,,,,,,,,,,,,,,,,,,,,,,,,,,,,,,,,,,,14,Ashamed,rating,1.0,11.438980699999775,,,,,,,,,,,,,,,,,,,,,,,,,,,,,,,,,,,,,,,,,,,,,,,,,,,,,,,,,,,,,,,,,,,,,,,,,,,,,,,,,,,,,,,,,,,,,,,,,,,,,,,,,,,,,,,,,,,38,001,0,20,300,300,2022_Nov_09_1124,Experiment,2021.1.4,359.7859992981544,
,,,,,,,,,,,,,,,,,,,,,,,,,,,,,,,,,,,,,,,,,,,,,15,Inspired,rating,5.0,8.409481300000152,,,,,,,,,,,,,,,,,,,,,,,,,,,,,,,,,,,,,,,,,,,,,,,,,,,,,,,,,,,,,,,,,,,,,,,,,,,,,,,,,,,,,,,,,,,,,,,,,,,,,,,,,,,,,,,,,,,38,001,0,20,300,300,2022_Nov_09_1124,Experiment,2021.1.4,359.7859992981544,
,,,,,,,,,,,,,,,,,,,,,,,,,,,,,,,,,,,,,,,,,,,,,16,Nervous,rating,1.0,9.774698899999748,,,,,,,,,,,,,,,,,,,,,,,,,,,,,,,,,,,,,,,,,,,,,,,,,,,,,,,,,,,,,,,,,,,,,,,,,,,,,,,,,,,,,,,,,,,,,,,,,,,,,,,,,,,,,,,,,,,38,001,0,20,300,300,2022_Nov_09_1124,Experiment,2021.1.4,359.7859992981544,
,,,,,,,,,,,,,,,,,,,,,,,,,,,,,,,,,,,,,,,,,,,,,17,Determined,rating,3.0,14.153444600000512,,,,,,,,,,,,,,,,,,,,,,,,,,,,,,,,,,,,,,,,,,,,,,,,,,,,,,,,,,,,,,,,,,,,,,,,,,,,,,,,,,,,,,,,,,,,,,,,,,,,,,,,,,,,,,,,,,,38,001,0,20,300,300,2022_Nov_09_1124,Experiment,2021.1.4,359.7859992981544,
,,,,,,,,,,,,,,,,,,,,,,,,,,,,,,,,,,,,,,,,,,,,,18,Attentive,rating,3.0,12.605790999999954,,,,,,,,,,,,,,,,,,,,,,,,,,,,,,,,,,,,,,,,,,,,,,,,,,,,,,,,,,,,,,,,,,,,,,,,,,,,,,,,,,,,,,,,,,,,,,,,,,,,,,,,,,,,,,,,,,,38,001,0,20,300,300,2022_Nov_09_1124,Experiment,2021.1.4,359.7859992981544,
,,,,,,,,,,,,,,,,,,,,,,,,,,,,,,,,,,,,,,,,,,,,,19,Jittery,rating,1.0,36.542143900000156,,,,,,,,,,,,,,,,,,,,,,,,,,,,,,,,,,,,,,,,,,,,,,,,,,,,,,,,,,,,,,,,,,,,,,,,,,,,,,,,,,,,,,,,,,,,,,,,,,,,,,,,,,,,,,,,,,,38,001,0,20,300,300,2022_Nov_09_1124,Experiment,2021.1.4,359.7859992981544,
,,,,,,,,,,,,,,,,,,,,,,,,,,,,,,,,,,,,,,,,,,,,,20,Active,rating,1.0,8.76598600000034,,,,,,,,,,,,,,,,,,,,,,,,,,,,,,,,,,,,,,,,,,,,,,,,,,,,,,,,,,,,,,,,,,,,,,,,,,,,,,,,,,,,,,,,,,,,,,,,,,,,,,,,,,,,,,,,,,,38,001,0,20,300,300,2022_Nov_09_1124,Experiment,2021.1.4,359.7859992981544,
,,,,,,,,,,,,,,,,,,,,,,,,,,,,,,,,,,,,,,,,,,,,,21,Afraid,rating,1.0,8.990821800000049,,,,,,,,,,,,,,,,,,,,,,,,,,,,,,,,,,,,,,,,,,,,,,,,,,,,,,,,,,,,,,,,,,,,,,,,,,,,,,,,,,,,,,,,,,,,,,,,,,,,,,,,,,,,,,,,,,,38,001,0,20,300,300,2022_Nov_09_1124,Experiment,2021.1.4,359.7859992981544,
,,,,,,,,,,,,,,,,,,,,,,,,,,,,,,,,,,,,,,,,,,,,,22,Press the + button to submit your answers,description,,,,,,,,,,,,,,,,,,,,,,,,,,,,,,,,,,,,,,,,,,,,,,,,,,,,,,,,,,,,,,,,,,,,,,,,,,,,,,,,,,,,,,,,,,,,,,,,,,,,,,,,,,,,,,,,,,,,,38,001,0,20,300,300,2022_Nov_09_1124,Experiment,2021.1.4,359.7859992981544,
,,,,,,,,,,,,,,,,,,,,,,,,,,,,,,,,,,,,,,,,,,,,,,,,,,num_add,112.84525349999967,47.624151600000005,None,,,,,,,,,,,,,,,,,,,,,,,,,,,,,,,,,,,,,,,,,,,,,,,,,,,,,,,,,,,,,,,,,,,,,,,,,,,,,,,,,,,,,,,,,,,,,,,,,,,,,,,,,,,,,,,38,001,0,20,300,300,2022_Nov_09_1124,Experiment,2021.1.4,359.7859992981544,
,,,,,,,,,,,,,,,,,,,,,,,,,,,,,,,,,,,,,,,,,,,,,,,,,,,,,,160.52839829999994,None,num_add,33.30924539999978,,,,,,,,,,,,,,,,,,,,,,,,,,,,,,,,,,,,,,,,,,,,,,,,,,,,,,,,,,,,,,,,,,,,,,,,,,,,,,,,,,,,,,,,,,,,,,,,,,,,,,,,,,,38,001,0,20,300,300,2022_Nov_09_1124,Experiment,2021.1.4,359.7859992981544,
,,,,,,,,,,,,,,,,,,,,,,,,,,,,,,,,,,,,,,,,,,,,,,,,,,,,,,,,,,193.84861920000003,None,num_add,10.428690099999585,193.84861920000003,None,,,,,,,,,,,,,,,,,,,,,,,,,,,,,,,,,,,,,,,,,,,,,,,,,,,,,,,,,,,,,,,,,,,,,,,,,,,,,,,,,,,,,,,,,,,,,,,,,,,,,38,001,0,20,300,300,2022_Nov_09_1124,Experiment,2021.1.4,359.7859992981544,
,,,,,,,,,,,,,,,,,,,,,,,,,,,,,,,,,,,,,,,,,,,,,,,,,,,,,,,,,,,,,,,,204.30097449999994,None,num_add,24.240552799999932,,,,,,,,,,,,,,,,,,,,,,,,,,,,,,,,,,,,,,,,,,,,,,,,,,,,,,,,,,,,,,,,,,,,,,,,,,,,,,,,,,,,,,,,,,,,,,,,,38,001,0,20,300,300,2022_Nov_09_1124,Experiment,2021.1.4,359.7859992981544,
,,,,,,,,,,,,,,,,,,,,,,,,,,,,,,,,,,,,,,,,,,,,,,,,,,,,,,,,,,,,,,,,,,,,228.54903860000013,None,space,27.608400099999926,,,,,,,,,,,,,,,,,,,,,,,,,,,,,,,,,,,,,,,,,,,,,,,,,,,,,,,,,,,,,,,,,,,,,,,,,,,,,,,,,,,,,,,,,,,,,38,001,0,20,300,300,2022_Nov_09_1124,Experiment,2021.1.4,359.7859992981544,
images\S21_F_H_01.png,images\S21_F_H_01_scrambled.png,21,Happy,-0.1,F,0,0,practice,off,1,0.5,0.75,0.5,0.853,3,,,,,,,,,,,0,0,0,0,,,,,,,,,,,,,,,,,,,,,,,,,,,,,,,,,,,,,,,,,,,256.3239013000002,256.8292561999997,256.8292561999997,257.58179610000025,257.58179610000025,258.0872448,258.0872448,258.9425874999997,258.9425874999997,None,num_6,1.7992399000004298,258.9425874999997,None,,,,,,,,,,,,,,,,,,,,,,,,,,,,,,,,,,,,,,,,,,,,,,,,,,,,,,,,,,,,,,,,,,,,,,,,,,,,,,,38,001,0,20,300,300,2022_Nov_09_1124,Experiment,2021.1.4,359.7859992981544,
images\S22_M_S_01.png,images\S22_M_S_01_scrambled.png,22,Sad,0.1,M,0,0,practice,on,2,0.5,0.75,0.5,0.867,3,,,,,,,,,,,0,1,1,5,,,,,,,,,,,,,,,,,,,,,,,,,,,,,,,,,,,,,,,,,,,260.83909330000006,261.34173310000006,261.34173310000006,262.0943103999998,262.0943103999998,262.5941303999998,262.5941303999998,263.4634258999995,263.4634258999995,None,num_4,0.36654229999930976,263.4634258999995,None,,,,,,,,,,,,,,,,,,,,,,,,,,,,,,,,,,,,,,,,,,,,,,,,,,,,,,,,,,,,,,,,,,,,,,,,,,,,,,,38,001,0,20,300,300,2022_Nov_09_1124,Experiment,2021.1.4,359.7859992981544,
images\S22_M_S_03.png,images\S22_M_S_03_scrambled.png,22,Sad,0.3,M,0,0,practice,on,2,0.5,0.75,0.5,0.794,3,,,,,,,,,,,0,2,2,7,,,,,,,,,,,,,,,,,,,,,,,,,,,,,,,,,,,,,,,,,,,263.92703359999996,264.42969809999977,264.42969809999977,265.1794302999997,265.1794302999997,265.6792723999997,265.6792723999997,266.4791102999998,266.4791102999998,None,num_4,2.702828800000134,266.4791102999998,None,,,,,,,,,,,,,,,,,,,,,,,,,,,,,,,,,,,,,,,,,,,,,,,,,,,,,,,,,,,,,,,,,,,,,,,,,,,,,,,38,001,0,20,300,300,2022_Nov_09_1124,Experiment,2021.1.4,359.7859992981544,
images\S22_M_S_03.png,images\S22_M_S_03_scrambled.png,22,Sad,0.3,M,0,0,practice,on,2,0.5,0.75,0.5,0.87,3,,,,,,,,,,,0,3,3,4,,,,,,,,,,,,,,,,,,,,,,,,,,,,,,,,,,,,,,,,,,,269.23650350000025,269.73926519999986,269.73926519999986,270.4889094,270.4889094,270.98878669999976,270.98878669999976,271.8607452999995,271.8607452999995,None,num_4,0.5770695000001069,271.8607452999995,None,,,,,,,,,,,,,,,,,,,,,,,,,,,,,,,,,,,,,,,,,,,,,,,,,,,,,,,,,,,,,,,,,,,,,,,,,,,,,,,38,001,0,20,300,300,2022_Nov_09_1124,Experiment,2021.1.4,359.7859992981544,
images\S21_F_H_02.png,images\S21_F_H_02_scrambled.png,21,Happy,-0.2,F,0,0,practice,off,1,0.5,0.75,0.5,0.91,3,,,,,,,,,,,0,4,4,1,,,,,,,,,,,,,,,,,,,,,,,,,,,,,,,,,,,,,,,,,,,272.52716150000015,273.03258839999944,273.03258839999944,273.78790560000016,273.78790560000016,274.29053509999994,274.29053509999994,275.2069314999999,275.2069314999999,None,num_6,0.3195226999996521,275.2069314999999,None,,,,,,,,,,,,,,,,,,,,,,,,,,,,,,,,,,,,,,,,,,,,,,,,,,,,,,,,,,,,,,,,,,,,,,,,,,,,,,,38,001,0,20,300,300,2022_Nov_09_1124,Experiment,2021.1.4,359.7859992981544,
images\S22_M_S_02.png,images\S22_M_S_02_scrambled.png,22,Sad,0.2,M,0,0,practice,off,1,0.5,0.75,0.5,0.751,3,,,,,,,,,,,0,5,5,3,,,,,,,,,,,,,,,,,,,,,,,,,,,,,,,,,,,,,,,,,,,275.61787939999977,276.12329189999946,276.12329189999946,276.8759536999996,276.8759536999996,277.37846809999974,277.37846809999974,278.1365883999997,278.1365883999997,None,num_4,1.053134200000386,278.1365883999997,None,,,,,,,,,,,,,,,,,,,,,,,,,,,,,,,,,,,,,,,,,,,,,,,,,,,,,,,,,,,,,,,,,,,,,,,,,,,,,,,38,001,0,20,300,300,2022_Nov_09_1124,Experiment,2021.1.4,359.7859992981544,
images\S22_M_H_02.png,images\S22_M_H_02_scrambled.png,22,Happy,-0.2,M,0,0,practice,off,1,0.5,0.75,0.5,0.883,3,,,,,,,,,,,0,6,6,2,,,,,,,,,,,,,,,,,,,,,,,,,,,,,,,,,,,,,,,,,,,279.2806412,279.78611889999956,279.78611889999956,280.5358226999997,280.5358226999997,281.03841999999986,281.03841999999986,281.92707449999943,281.92707449999943,None,num_6,0.7030115999996269,281.92707449999943,None,,,,,,,,,,,,,,,,,,,,,,,,,,,,,,,,,,,,,,,,,,,,,,,,,,,,,,,,,,,,,,,,,,,,,,,,,,,,,,,38,001,0,20,300,300,2022_Nov_09_1124,Experiment,2021.1.4,359.7859992981544,
images\S22_M_S_02.png,images\S22_M_S_02_scrambled.png,22,Sad,0.2,M,0,0,practice,on,2,0.5,0.75,0.5,0.783,3,,,,,,,,,,,0,7,7,6,,,,,,,,,,,,,,,,,,,,,,,,,,,,,,,,,,,,,,,,,,,282.68237150000004,283.1878002000003,283.1878002000003,283.94311130000006,283.94311130000006,284.44573089999994,284.44573089999994,285.2316294000002,285.2316294000002,None,num_6,1.0704523000003974,285.2316294000002,None,,,,,,,,,,,,,,,,,,,,,,,,,,,,,,,,,,,,,,,,,,,,,,,,,,,,,,,,,,,,,,,,,,,,,,,,,,,,,,,38,001,0,20,300,300,2022_Nov_09_1124,Experiment,2021.1.4,359.7859992981544,
,,,,,,,,,,,,,,,,,,,,,,,,,,,,,,,,,,,,,,,,,,,,,,,,,,,,,,,,,,,,,,,,,,,,,,,,,,,,,,,,,,,,,,286.34791010000026,None,space,287.01742269999977,,,,,,,,,,,,,,,,,,,,,,,,,,,,,,,,,,,,,,,,,,,,,,,,,,,,,,,,,,,,,,,,,,,,,,,,,,,38,001,0,20,300,300,2022_Nov_09_1124,Experiment,2021.1.4,359.7859992981544,
images\S10_M_S_03.png,images\S10_M_S_03_scrambled.png,10,sad,-30,male,1,,120,on,2,0.5,0.75,0.5,0.829,3,119,1,1,1,2,2,32,128,161,,,,,,0,0,0,0,,,,,,,,,,,,,,,,,,,,,,,,,,,,,,,,,,,,,,,,,,,,,,,,,,,,,,,,,573.8649243999998,574.3675554000001,574.3675554000001,575.120148,575.120148,575.6255352999997,575.6255352999997,576.4585631,576.4585631,None,num_6,1.1309105999998792,576.4585631,None,happy,0,Sad,577.6082467999995,None,None,577.6082467999995,None,,,,,,,,,,,,,,,,,,,,,,,,,,,,,,,,,,,,,,,,,,,,,,,,,,,,,38,001,0,20,300,300,2022_Nov_09_1124,Experiment,2021.1.4,359.7859992981544,
images\S10_M_H_01.png,images\S10_M_H_01_scrambled.png,10,happy,10,male,4,,55,off,1,0.5,0.75,0.5,0.833,3,54,1,2,1,0,0,0,0,4,,,,,,0,1,1,1,,,,,,,,,,,,,,,,,,,,,,,,,,,,,,,,,,,,,,,,,,,,,,,,,,,,,,,,,577.6943044,578.1969497,578.1969497,578.9522624000001,578.9522624000001,579.4550072000002,579.4550072000002,580.2907611,580.2907611,None,num_6,0.16283860000021377,580.2907611,None,happy,0,Happy,580.4823806599996,None,None,580.4823806599996,None,,,,,,,,,,,,,,,,,,,,,,,,,,,,,,,,,,,,,,,,,,,,,,,,,,,,,38,001,0,20,300,300,2022_Nov_09_1124,Experiment,2021.1.4,359.7859992981544,
images\S5_F_S_02.png,images\S5_F_S_02_scrambled.png,5,sad,-20,female,2,,269,off,1,0.5,0.75,0.5,0.768,3,268,2,1,1,0,0,0,0,2,,,,,,0,2,2,2,,,,,,,,,,,,,,,,,,,,,,,,,,,,,,,,,,,,,,,,,,,,,,,,,,,,,,,,,580.5934016000001,581.0960571999994,581.0960571999994,581.8486986999997,581.8486986999997,582.3484277999996,582.3484277999996,583.1204503999998,583.1204503999998,None,num_4,0.26128549999975803,583.1204503999998,None,sad,0,Sad,583.3925919599995,None,None,583.3925919599995,None,,,,,,,,,,,,,,,,,,,,,,,,,,,,,,,,,,,,,,,,,,,,,,,,,,,,,38,001,0,20,300,300,2022_Nov_09_1124,Experiment,2021.1.4,359.7859992981544,
images\blank.jpg,images\blank.jpg,none,none,none,none,0,,604,on,2,0.5,0.75,0.5,0.878,0,603,1,1,1,3,3,48,192,240,,,,,,0,3,3,3,,,,,,,,,,,,,,,,,,,,,,,,,,,,,,,,,,,,,,,,,,,,,,,,,,,,,,,,,583.5318483000001,584.0340090999998,584.0340090999998,584.7865610999997,584.7865610999997,585.2893268999997,585.2893268999997,586.1666868000002,586.1666868000002,586.1666868000002,None,,586.1666868000002,None,miss,0,,589.17139438,None,None,589.17139438,None,,,,,,,,,,,,,,,,,,,,,,,,,,,,,,,,,,,,,,,,,,,,,,,,,,,,,38,001,0,20,300,300,2022_Nov_09_1124,Experiment,2021.1.4,359.7859992981544,
images\S1_F_S_01.png,images\S1_F_S_01_scrambled.png,1,sad,-10,female,3,,304,on,2,0.5,0.75,0.5,0.782,3,303,2,1,1,2,2,32,128,163,,,,,,0,4,4,4,,,,,,,,,,,,,,,,,,,,,,,,,,,,,,,,,,,,,,,,,,,,,,,,,,,,,,,,,589.3271613999996,589.8322466,589.8322466,590.5849133000002,590.5849133000002,591.0902250999998,591.0902250999998,591.8760302999999,591.8760302999999,None,num_6,0.4978859000002558,591.8760302999999,589.3271613999996,happy,0,Sad,592.3842372800004,None,None,592.3842372800004,None,,,,,,,,,,,,,,,,,,,,,,,,,,,,,,,,,,,,,,,,,,,,,,,,,,,,,38,001,0,20,300,300,2022_Nov_09_1124,Experiment,2021.1.4,359.7859992981544,
images\S7_F_S_01.png,images\S7_F_S_01_scrambled.png,7,sad,-10,female,3,,100,on,2,0.5,0.75,0.5,0.86,3,99,3,1,2,2,2,32,128,163,,,,,,0,5,5,5,,,,,,,,,,,,,,,,,,,,,,,,,,,,,,,,,,,,,,,,,,,,,,,,,,,,,,,,,592.4703100999996,592.9729465,592.9729465,593.7227049000003,593.7227049000003,594.2253779000002,594.2253779000002,595.0890000999998,595.0890000999998,None,num_6,0.7807132000007186,595.0890000999998,None,happy,0,Sad,595.87757328,None,None,595.87757328,None,,,,,,,,,,,,,,,,,,,,,,,,,,,,,,,,,,,,,,,,,,,,,,,,,,,,,38,001,0,20,300,300,2022_Nov_09_1124,Experiment,2021.1.4,359.7859992981544,
images\S1_F_S_02.png,images\S1_F_S_02_scrambled.png,1,sad,-20,female,2,,545,on,2,0.5,0.75,0.5,0.863,3,544,4,1,1,2,2,32,128,162,,,,,,0,6,6,6,,,,,,,,,,,,,,,,,,,,,,,,,,,,,,,,,,,,,,,,,,,,,,,,,,,,,,,,,595.9636694999999,596.4663300000002,596.4663300000002,597.2160381000003,597.2160381000003,597.7187311999996,597.7187311999996,598.5851462999999,598.5851462999999,None,num_4,0.3324296000000686,598.5851462999999,None,sad,0,Sad,598.9349799000001,None,None,598.9349799000001,None,,,,,,,,,,,,,,,,,,,,,,,,,,,,,,,,,,,,,,,,,,,,,,,,,,,,,38,001,0,20,300,300,2022_Nov_09_1124,Experiment,2021.1.4,359.7859992981544,
images\S5_F_H_03.png,images\S5_F_H_03_scrambled.png,5,happy,30,female,6,,207,on,2,0.5,0.75,0.5,0.801,3,206,5,1,1,2,2,32,128,166,,,,,,0,7,7,7,,,,,,,,,,,,,,,,,,,,,,,,,,,,,,,,,,,,,,,,,,,,,,,,,,,,,,,,,598.9906210999998,599.4959646999996,599.4959646999996,600.2512546999997,600.2512546999997,600.7566630000001,600.7566630000001,601.5619696000003,601.5619696000003,None,num_6,0.6119691000003513,601.5619696000003,None,happy,0,Happy,602.1979048799999,None,None,602.1979048799999,None,,,,,,,,,,,,,,,,,,,,,,,,,,,,,,,,,,,,,,,,,,,,,,,,,,,,,38,001,0,20,300,300,2022_Nov_09_1124,Experiment,2021.1.4,359.7859992981544,
images\S4_M_S_03.png,images\S4_M_S_03_scrambled.png,4,sad,-30,male,1,,84,on,2,0.5,0.75,0.5,0.9,3,83,6,1,1,2,2,32,128,161,,,,,,0,8,8,8,,,,,,,,,,,,,,,,,,,,,,,,,,,,,,,,,,,,,,,,,,,,,,,,,,,,,,,,,602.2728428,602.7754643999997,602.7754643999997,603.5252350000001,603.5252350000001,604.0306725,604.0306725,604.9359505000002,604.9359505000002,None,num_4,0.8776029999999082,604.9359505000002,None,sad,0,Sad,605.8245710600003,None,None,605.8245710600003,None,,,,,,,,,,,,,,,,,,,,,,,,,,,,,,,,,,,,,,,,,,,,,,,,,,,,,38,001,0,20,300,300,2022_Nov_09_1124,Experiment,2021.1.4,359.7859992981544,
images\S9_F_S_01.png,images\S9_F_S_01_scrambled.png,9,sad,-10,female,3,,412,off,1,0.5,0.75,0.5,0.876,3,411,1,1,1,0,0,0,0,3,,,,,,0,9,9,9,,,,,,,,,,,,,,,,,,,,,,,,,,,,,,,,,,,,,,,,,,,,,,,,,,,,,,,,,605.8828536999999,606.3882760999995,606.3882760999995,607.1380061,607.1380061,607.6378631999996,607.6378631999996,608.5210672000003,608.5210672000003,None,num_6,0.6045045000000755,608.5210672000003,None,happy,0,Sad,609.1346299800002,None,None,609.1346299800002,None,,,,,,,,,,,,,,,,,,,,,,,,,,,,,,,,,,,,,,,,,,,,,,,,,,,,,38,001,0,20,300,300,2022_Nov_09_1124,Experiment,2021.1.4,359.7859992981544,
images\blank.jpg,images\blank.jpg,none,none,none,none,0,,601,on,2,0.5,0.75,0.5,0.885,0,600,1,1,1,3,3,48,192,240,,,,,,0,10,10,10,,,,,,,,,,,,,,,,,,,,,,,,,,,,,,,,,,,,,,,,,,,,,,,,,,,,,,,,,609.2182082999998,609.7177676000001,609.7177676000001,610.4731231999995,610.4731231999995,610.9757457999995,610.9757457999995,611.8644171999995,611.8644171999995,611.8644171999995,None,,611.8644171999995,None,miss,0,,614.8662039399999,None,None,614.8662039399999,None,,,,,,,,,,,,,,,,,,,,,,,,,,,,,,,,,,,,,,,,,,,,,,,,,,,,,38,001,0,20,300,300,2022_Nov_09_1124,Experiment,2021.1.4,359.7859992981544,
images\S5_F_S_01.png,images\S5_F_S_01_scrambled.png,5,sad,-10,female,3,,88,on,2,0.5,0.75,0.5,0.859,3,87,2,1,1,2,2,32,128,163,,,,,,0,11,11,11,,,,,,,,,,,,,,,,,,,,,,,,,,,,,,,,,,,,,,,,,,,,,,,,,,,,,,,,,615.0136458999996,615.5132076999998,615.5132076999998,616.2657976,616.2657976,616.768419,616.768419,617.6292205999998,617.6292205999998,None,num_6,0.056411199999274686,617.6292205999998,615.0136458999996,happy,0,Sad,617.6959175799998,None,None,617.6959175799998,None,,,,,,,,,,,,,,,,,,,,,,,,,,,,,,,,,,,,,,,,,,,,,,,,,,,,,38,001,0,20,300,300,2022_Nov_09_1124,Experiment,2021.1.4,359.7859992981544,
images\S2_M_S_03.png,images\S2_M_S_03_scrambled.png,2,sad,-30,male,1,,72,on,2,0.5,0.75,0.5,0.796,3,71,3,1,1,2,2,32,128,161,,,,,,0,12,12,12,,,,,,,,,,,,,,,,,,,,,,,,,,,,,,,,,,,,,,,,,,,,,,,,,,,,,,,,,617.8124982999998,618.3179173999997,618.3179173999997,619.0704526,619.0704526,619.5758844000002,619.5758844000002,620.3756013000002,620.3756013000002,None,num_4,0.11848319999990053,620.3756013000002,None,sad,0,Sad,620.5145888800002,None,None,620.5145888800002,None,,,,,,,,,,,,,,,,,,,,,,,,,,,,,,,,,,,,,,,,,,,,,,,,,,,,,38,001,0,20,300,300,2022_Nov_09_1124,Experiment,2021.1.4,359.7859992981544,
images\S4_M_H_01.png,images\S4_M_H_01_scrambled.png,4,happy,10,male,4,,319,on,2,0.5,0.75,0.5,0.788,3,318,4,1,1,2,2,32,128,164,,,,,,0,13,13,13,,,,,,,,,,,,,,,,,,,,,,,,,,,,,,,,,,,,,,,,,,,,,,,,,,,,,,,,,620.6256206999997,621.1309273999996,621.1309273999996,621.8862755999999,621.8862755999999,622.3890125999997,622.3890125999997,623.1803497000001,623.1803497000001,None,num_4,0.385334800000237,623.1803497000001,None,sad,0,Happy,623.57459298,None,None,623.57459298,None,,,,,,,,,,,,,,,,,,,,,,,,,,,,,,,,,,,,,,,,,,,,,,,,,,,,,38,001,0,20,300,300,2022_Nov_09_1124,Experiment,2021.1.4,359.7859992981544,
images\S10_M_H_02.png,images\S10_M_H_02_scrambled.png,10,happy,20,male,5,,536,off,1,0.5,0.75,0.5,0.893,3,535,1,1,1,0,0,0,0,5,,,,,,0,14,14,14,,,,,,,,,,,,,,,,,,,,,,,,,,,,,,,,,,,,,,,,,,,,,,,,,,,,,,,,,623.6579263000003,624.1605844999995,624.1605844999995,624.9159104999999,624.9159104999999,625.4157538999998,625.4157538999998,626.3154843000002,626.3154843000002,None,num_6,0.3381568000004336,626.3154843000002,None,happy,0,Happy,626.6681411600001,None,None,626.6681411600001,None,,,,,,,,,,,,,,,,,,,,,,,,,,,,,,,,,,,,,,,,,,,,,,,,,,,,,38,001,0,20,300,300,2022_Nov_09_1124,Experiment,2021.1.4,359.7859992981544,
images\blank.jpg,images\blank.jpg,none,none,none,none,0,,608,on,2,0.5,0.75,0.5,0.944,0,607,1,1,1,3,3,48,192,240,,,,,,0,15,15,15,,,,,,,,,,,,,,,,,,,,,,,,,,,,,,,,,,,,,,,,,,,,,,,,,,,,,,,,,626.7516569999998,627.2541613000003,627.2541613000003,628.0038091999995,628.0038091999995,628.5064562999996,628.5064562999996,629.4505942999995,629.4505942999995,629.4505942999995,None,,629.4505942999995,None,miss,0,,632.4525193799996,None,None,632.4525193799996,None,,,,,,,,,,,,,,,,,,,,,,,,,,,,,,,,,,,,,,,,,,,,,,,,,,,,,38,001,0,20,300,300,2022_Nov_09_1124,Experiment,2021.1.4,359.7859992981544,
images\S6_M_H_01.png,images\S6_M_H_01_scrambled.png,6,happy,10,male,4,,151,off,1,0.5,0.75,0.5,0.775,3,150,1,1,1,0,0,0,0,4,,,,,,0,16,16,16,,,,,,,,,,,,,,,,,,,,,,,,,,,,,,,,,,,,,,,,,,,,,,,,,,,,,,,,,632.6165089999995,633.1188943999996,633.1188943999996,633.8686689999995,633.8686689999995,634.3713431999995,634.3713431999995,635.1488669,635.1488669,None,num_6,0.35279199999968114,635.1488669,632.6165089999995,happy,0,Happy,635.5125999600003,None,None,635.5125999600003,None,,,,,,,,,,,,,,,,,,,,,,,,,,,,,,,,,,,,,,,,,,,,,,,,,,,,,38,001,0,20,300,300,2022_Nov_09_1124,Experiment,2021.1.4,359.7859992981544,
images\S8_M_H_02.png,images\S8_M_H_02_scrambled.png,8,happy,20,male,5,,224,on,2,0.5,0.75,0.5,0.765,3,223,1,1,1,2,2,32,128,165,,,,,,0,17,17,17,,,,,,,,,,,,,,,,,,,,,,,,,,,,,,,,,,,,,,,,,,,,,,,,,,,,,,,,,635.5986900999997,636.1041286999998,636.1041286999998,636.8538538000003,636.8538538000003,637.3565213000002,637.3565213000002,638.1285040000002,638.1285040000002,None,num_6,0.03688050000073417,638.1285040000002,None,happy,0,Happy,638.1784950000001,None,None,638.1784950000001,None,,,,,,,,,,,,,,,,,,,,,,,,,,,,,,,,,,,,,,,,,,,,,,,,,,,,,38,001,0,20,300,300,2022_Nov_09_1124,Experiment,2021.1.4,359.7859992981544,
images\S2_M_H_03.png,images\S2_M_H_03_scrambled.png,2,happy,30,male,6,,489,off,1,0.5,0.75,0.5,0.789,3,488,1,1,1,0,0,0,0,6,,,,,,0,18,18,18,,,,,,,,,,,,,,,,,,,,,,,,,,,,,,,,,,,,,,,,,,,,,,,,,,,,,,,,,638.2923042000002,638.7978017999994,638.7978017999994,639.5530802000003,639.5530802000003,640.0528713000003,640.0528713000003,640.8471911999995,640.8471911999995,None,num_6,0.262442899999769,640.8471911999995,None,happy,0,Happy,641.1276233399997,None,None,641.1276233399997,None,,,,,,,,,,,,,,,,,,,,,,,,,,,,,,,,,,,,,,,,,,,,,,,,,,,,,38,001,0,20,300,300,2022_Nov_09_1124,Experiment,2021.1.4,359.7859992981544,
images\S4_M_H_01.png,images\S4_M_H_01_scrambled.png,4,happy,10,male,4,,19,off,1,0.5,0.75,0.5,0.934,3,18,2,1,1,0,0,0,0,4,,,,,,0,19,19,19,,,,,,,,,,,,,,,,,,,,,,,,,,,,,,,,,,,,,,,,,,,,,,,,,,,,,,,,,641.1941699999998,641.6969657,641.6969657,642.4465830999998,642.4465830999998,642.9491323000002,642.9491323000002,643.8878881999999,643.8878881999999,None,num_4,0.3098745000006602,643.8878881999999,None,sad,0,Happy,644.2071636799997,None,None,644.2071636799997,None,,,,,,,,,,,,,,,,,,,,,,,,,,,,,,,,,,,,,,,,,,,,,,,,,,,,,38,001,0,20,300,300,2022_Nov_09_1124,Experiment,2021.1.4,359.7859992981544,
images\S2_M_S_03.png,images\S2_M_S_03_scrambled.png,2,sad,-30,male,1,,132,off,1,0.5,0.75,0.5,0.817,3,131,3,1,1,0,0,0,0,1,,,,,,0,20,20,20,,,,,,,,,,,,,,,,,,,,,,,,,,,,,,,,,,,,,,,,,,,,,,,,,,,,,,,,,644.2543558999996,644.7597774999995,644.7597774999995,645.5150757000001,645.5150757000001,646.0177858999996,646.0177858999996,646.8396923999999,646.8396923999999,None,num_4,0.41399920000003476,646.8396923999999,None,sad,0,Sad,647.2645830600003,None,None,647.2645830600003,None,,,,,,,,,,,,,,,,,,,,,,,,,,,,,,,,,,,,,,,,,,,,,,,,,,,,,38,001,0,20,300,300,2022_Nov_09_1124,Experiment,2021.1.4,359.7859992981544,
images\S9_F_S_03.png,images\S9_F_S_03_scrambled.png,9,sad,-30,female,1,,474,on,2,0.5,0.75,0.5,0.809,3,473,1,1,2,2,2,32,128,161,,,,,,0,21,21,21,,,,,,,,,,,,,,,,,,,,,,,,,,,,,,,,,,,,,,,,,,,,,,,,,,,,,,,,,647.3811135999995,647.8837954,647.8837954,648.6363455000001,648.6363455000001,649.1418815999996,649.1418815999996,649.9582029000003,649.9582029000003,None,num_4,1.0556925999999294,649.9582029000003,None,sad,0,Sad,651.0357346399999,None,None,651.0357346399999,None,,,,,,,,,,,,,,,,,,,,,,,,,,,,,,,,,,,,,,,,,,,,,,,,,,,,,38,001,0,20,300,300,2022_Nov_09_1124,Experiment,2021.1.4,359.7859992981544,
images\S4_M_S_02.png,images\S4_M_S_02_scrambled.png,4,sad,-20,male,2,,563,on,2,0.5,0.75,0.5,0.873,3,562,2,1,1,2,2,32,128,162,,,,,,0,22,22,22,,,,,,,,,,,,,,,,,,,,,,,,,,,,,,,,,,,,,,,,,,,,,,,,,,,,,,,,,651.1466786999999,651.6492996999996,651.6492996999996,652.4019833000002,652.4019833000002,652.9016892999998,652.9016892999998,653.7764379999999,653.7764379999999,None,num_4,0.4135469999991983,653.7764379999999,None,sad,0,Sad,654.2040784600002,None,None,654.2040784600002,None,,,,,,,,,,,,,,,,,,,,,,,,,,,,,,,,,,,,,,,,,,,,,,,,,,,,,38,001,0,20,300,300,2022_Nov_09_1124,Experiment,2021.1.4,359.7859992981544,
images\S5_F_H_02.png,images\S5_F_H_02_scrambled.png,5,happy,20,female,5,,446,on,2,0.5,0.75,0.5,0.843,3,445,3,1,1,2,2,32,128,165,,,,,,0,23,23,23,,,,,,,,,,,,,,,,,,,,,,,,,,,,,,,,,,,,,,,,,,,,,,,,,,,,,,,,,654.304048,654.8066591999996,654.8066591999996,655.5564640000002,655.5564640000002,656.0563241,656.0563241,656.9032479999996,656.9032479999996,None,num_6,0.030696600000737817,656.9032479999996,None,happy,0,Happy,656.9645248599999,None,None,656.9645248599999,None,,,,,,,,,,,,,,,,,,,,,,,,,,,,,,,,,,,,,,,,,,,,,,,,,,,,,38,001,0,20,300,300,2022_Nov_09_1124,Experiment,2021.1.4,359.7859992981544,
images\S3_F_H_02.png,images\S3_F_H_02_scrambled.png,3,happy,20,female,5,,434,on,2,0.5,0.75,0.5,0.897,3,433,4,1,2,2,2,32,128,165,,,,,,0,24,24,24,,,,,,,,,,,,,,,,,,,,,,,,,,,,,,,,,,,,,,,,,,,,,,,,,,,,,,,,,657.0754043999996,657.5780912999999,657.5780912999999,658.3334143000002,658.3334143000002,658.8359813999996,658.8359813999996,659.7385182999997,659.7385182999997,None,num_6,0.03512180000052467,659.7385182999997,None,happy,0,Happy,659.7969085199999,None,None,659.7969085199999,None,,,,,,,,,,,,,,,,,,,,,,,,,,,,,,,,,,,,,,,,,,,,,,,,,,,,,38,001,0,20,300,300,2022_Nov_09_1124,Experiment,2021.1.4,359.7859992981544,
images\S9_F_H_02.png,images\S9_F_H_02_scrambled.png,9,happy,20,female,5,,290,off,1,0.5,0.75,0.5,0.83,3,289,1,1,3,0,0,0,0,5,,,,,,0,25,25,25,,,,,,,,,,,,,,,,,,,,,,,,,,,,,,,,,,,,,,,,,,,,,,,,,,,,,,,,,659.9051073999999,660.4078416000002,660.4078416000002,661.1574793999998,661.1574793999998,661.6573595,661.6573595,662.4932282,662.4932282,None,num_6,1.192402000000584,662.4932282,None,happy,0,Happy,663.6956508599995,None,None,663.6956508599995,None,,,,,,,,,,,,,,,,,,,,,,,,,,,,,,,,,,,,,,,,,,,,,,,,,,,,,38,001,0,20,300,300,2022_Nov_09_1124,Experiment,2021.1.4,359.7859992981544,
images\S2_M_S_03.png,images\S2_M_S_03_scrambled.png,2,sad,-30,male,1,,192,on,2,0.5,0.75,0.5,0.843,3,191,1,1,1,2,2,32,128,161,,,,,,0,26,26,26,,,,,,,,,,,,,,,,,,,,,,,,,,,,,,,,,,,,,,,,,,,,,,,,,,,,,,,,,663.7455740999994,664.2454368999997,664.2454368999997,664.9979844,664.9979844,665.5034100000003,665.5034100000003,666.3503451999995,666.3503451999995,None,num_4,0.13566809999974794,666.3503451999995,None,sad,0,Sad,666.5115186199997,None,None,666.5115186199997,None,,,,,,,,,,,,,,,,,,,,,,,,,,,,,,,,,,,,,,,,,,,,,,,,,,,,,38,001,0,20,300,300,2022_Nov_09_1124,Experiment,2021.1.4,359.7859992981544,
images\blank.jpg,images\blank.jpg,none,none,none,none,0,,649,on,2,0.5,0.75,0.5,0.814,0,648,2,1,1,3,3,48,192,240,,,,,,0,27,27,27,,,,,,,,,,,,,,,,,,,,,,,,,,,,,,,,,,,,,,,,,,,,,,,,,,,,,,,,,666.6004913999996,667.1028891999995,667.1028891999995,667.8582439000002,667.8582439000002,668.3608389000001,668.3608389000001,669.1772658,669.1772658,669.1772658,None,,669.1772658,None,miss,0,,672.1819503800002,None,None,672.1819503800002,None,,,,,,,,,,,,,,,,,,,,,,,,,,,,,,,,,,,,,,,,,,,,,,,,,,,,,38,001,0,20,300,300,2022_Nov_09_1124,Experiment,2021.1.4,359.7859992981544,
images\S8_M_H_02.png,images\S8_M_H_02_scrambled.png,8,happy,20,male,5,,344,on,2,0.5,0.75,0.5,0.793,3,343,3,1,1,2,2,32,128,165,,,,,,0,28,28,28,,,,,,,,,,,,,,,,,,,,,,,,,,,,,,,,,,,,,,,,,,,,,,,,,,,,,,,,,672.3043265999995,672.8039057999995,672.8039057999995,673.5565102999999,673.5565102999999,674.0619281999998,674.0619281999998,674.8588333999996,674.8588333999996,None,num_6,0.6828274000008605,674.8588333999996,672.3043265999995,happy,0,Happy,675.5558190600003,None,None,675.5558190600003,None,,,,,,,,,,,,,,,,,,,,,,,,,,,,,,,,,,,,,,,,,,,,,,,,,,,,,38,001,0,20,300,300,2022_Nov_09_1124,Experiment,2021.1.4,359.7859992981544,
images\S2_M_S_01.png,images\S2_M_S_01_scrambled.png,2,sad,-10,male,3,,70,on,2,0.5,0.75,0.5,0.758,3,69,4,1,1,2,2,32,128,163,,,,,,0,29,29,29,,,,,,,,,,,,,,,,,,,,,,,,,,,,,,,,,,,,,,,,,,,,,,,,,,,,,,,,,675.6641455999998,676.1668269000002,676.1668269000002,676.9221361,676.9221361,677.4247421,677.4247421,678.1855930000002,678.1855930000002,None,num_4,0.8120614999997997,678.1855930000002,None,sad,0,Sad,679.0131249599998,None,None,679.0131249599998,None,,,,,,,,,,,,,,,,,,,,,,,,,,,,,,,,,,,,,,,,,,,,,,,,,,,,,38,001,0,20,300,300,2022_Nov_09_1124,Experiment,2021.1.4,359.7859992981544,
images\S1_F_S_03.png,images\S1_F_S_03_scrambled.png,1,sad,-30,female,1,,546,on,2,0.5,0.75,0.5,0.825,3,545,5,1,1,2,2,32,128,161,,,,,,0,30,30,30,,,,,,,,,,,,,,,,,,,,,,,,,,,,,,,,,,,,,,,,,,,,,,,,,,,,,,,,,679.0964094000001,679.5990259,679.5990259,680.3488126000002,680.3488126000002,680.8514525999999,680.8514525999999,681.6789841999998,681.6789841999998,None,num_4,0.35066100000040024,681.6789841999998,None,sad,0,Sad,682.0594135000001,None,None,682.0594135000001,None,,,,,,,,,,,,,,,,,,,,,,,,,,,,,,,,,,,,,,,,,,,,,,,,,,,,,38,001,0,20,300,300,2022_Nov_09_1124,Experiment,2021.1.4,359.7859992981544,
images\S9_F_S_02.png,images\S9_F_S_02_scrambled.png,9,sad,-20,female,2,,413,off,1,0.5,0.75,0.5,0.791,3,412,1,1,1,0,0,0,0,2,,,,,,0,31,31,31,,,,,,,,,,,,,,,,,,,,,,,,,,,,,,,,,,,,,,,,,,,,,,,,,,,,,,,,,682.1454721,682.648099,682.648099,683.3978692000001,683.3978692000001,683.9004912999999,683.9004912999999,684.6975801999997,684.6975801999997,None,num_6,0.9876530000001367,684.6975801999997,None,happy,0,Sad,685.69162018,None,None,685.69162018,None,,,,,,,,,,,,,,,,,,,,,,,,,,,,,,,,,,,,,,,,,,,,,,,,,,,,,38,001,0,20,300,300,2022_Nov_09_1124,Experiment,2021.1.4,359.7859992981544,
images\S8_M_H_03.png,images\S8_M_H_03_scrambled.png,8,happy,30,male,6,,225,on,2,0.5,0.75,0.5,0.847,3,224,1,1,1,2,2,32,128,166,,,,,,0,32,32,32,,,,,,,,,,,,,,,,,,,,,,,,,,,,,,,,,,,,,,,,,,,,,,,,,,,,,,,,,685.7721295000001,686.2776741999996,686.2776741999996,687.0300694999996,687.0300694999996,687.5327963,687.5327963,688.3824286999998,688.3824286999998,None,num_6,0.04771879999952944,688.3824286999998,None,happy,0,Happy,688.44924904,None,None,688.44924904,None,,,,,,,,,,,,,,,,,,,,,,,,,,,,,,,,,,,,,,,,,,,,,,,,,,,,,38,001,0,20,300,300,2022_Nov_09_1124,Experiment,2021.1.4,359.7859992981544,
images\S1_F_S_01.png,images\S1_F_S_01_scrambled.png,1,sad,-10,female,3,,4,off,1,0.5,0.75,0.5,0.853,3,3,1,1,1,0,0,0,0,3,,,,,,0,33,33,33,,,,,,,,,,,,,,,,,,,,,,,,,,,,,,,,,,,,,,,,,,,,,,,,,,,,,,,,,688.5018430999999,689.0044618000002,689.0044618000002,689.7570366999998,689.7570366999998,690.2625484,690.2625484,691.1178492999998,691.1178492999998,None,num_6,0.4637441000004401,691.1178492999998,None,happy,0,Sad,691.5870266799998,None,None,691.5870266799998,None,,,,,,,,,,,,,,,,,,,,,,,,,,,,,,,,,,,,,,,,,,,,,,,,,,,,,38,001,0,20,300,300,2022_Nov_09_1124,Experiment,2021.1.4,359.7859992981544,
images\blank.jpg,images\blank.jpg,none,none,none,none,0,,638,on,2,0.5,0.75,0.5,0.824,0,637,1,1,1,3,3,48,192,240,,,,,,0,34,34,34,,,,,,,,,,,,,,,,,,,,,,,,,,,,,,,,,,,,,,,,,,,,,,,,,,,,,,,,,691.6705775999999,692.1701517000001,692.1701517000001,692.9199247999995,692.9199247999995,693.4226891999997,693.4226891999997,694.2473131999996,694.2473131999996,694.2473131999996,None,,694.2473131999996,None,miss,0,,697.25200378,None,None,697.25200378,None,,,,,,,,,,,,,,,,,,,,,,,,,,,,,,,,,,,,,,,,,,,,,,,,,,,,,38,001,0,20,300,300,2022_Nov_09_1124,Experiment,2021.1.4,359.7859992981544,
images\S6_M_H_03.png,images\S6_M_H_03_scrambled.png,6,happy,30,male,6,,33,off,1,0.5,0.75,0.5,0.788,3,32,1,1,1,0,0,0,0,6,,,,,,0,35,35,35,,,,,,,,,,,,,,,,,,,,,,,,,,,,,,,,,,,,,,,,,,,,,,,,,,,,,,,,,697.4160208000003,697.9156120999996,697.9156120999996,698.6681632999998,698.6681632999998,699.1708182000002,699.1708182000002,699.9650322999996,699.9650322999996,None,num_6,0.21692309999980353,699.9650322999996,697.4160208000003,happy,0,Happy,700.2039006400003,None,None,700.2039006400003,None,,,,,,,,,,,,,,,,,,,,,,,,,,,,,,,,,,,,,,,,,,,,,,,,,,,,,38,001,0,20,300,300,2022_Nov_09_1124,Experiment,2021.1.4,359.7859992981544,
images\S7_F_S_03.png,images\S7_F_S_03_scrambled.png,7,sad,-30,female,1,,462,on,2,0.5,0.75,0.5,0.853,3,461,1,1,1,2,2,32,128,161,,,,,,0,36,36,36,,,,,,,,,,,,,,,,,,,,,,,,,,,,,,,,,,,,,,,,,,,,,,,,,,,,,,,,,700.3176493999999,700.8203271000002,700.8203271000002,701.5700379999998,701.5700379999998,702.0727066,702.0727066,702.9279497999996,702.9279497999996,None,num_4,0.3415105999993102,702.9279497999996,None,sad,0,Sad,703.2833904600001,None,None,703.2833904600001,None,,,,,,,,,,,,,,,,,,,,,,,,,,,,,,,,,,,,,,,,,,,,,,,,,,,,,38,001,0,20,300,300,2022_Nov_09_1124,Experiment,2021.1.4,359.7859992981544,
images\S6_M_S_01.png,images\S6_M_S_01_scrambled.png,6,sad,-10,male,3,,454,on,2,0.5,0.75,0.5,0.874,3,453,2,1,1,2,2,32,128,163,,,,,,0,37,37,37,,,,,,,,,,,,,,,,,,,,,,,,,,,,,,,,,,,,,,,,,,,,,,,,,,,,,,,,,703.3972548000002,703.8999524999999,703.8999524999999,704.6496662,704.6496662,705.1522648,705.1522648,706.0299267999999,706.0299267999999,None,num_4,0.39146379999965575,706.0299267999999,None,sad,0,Sad,706.4491830999996,None,None,706.4491830999996,None,,,,,,,,,,,,,,,,,,,,,,,,,,,,,,,,,,,,,,,,,,,,,,,,,,,,,38,001,0,20,300,300,2022_Nov_09_1124,Experiment,2021.1.4,359.7859992981544,
images\S8_M_S_03.png,images\S8_M_S_03_scrambled.png,8,sad,-30,male,1,,468,on,2,0.5,0.75,0.5,0.898,3,467,3,1,1,2,2,32,128,161,,,,,,0,38,38,38,,,,,,,,,,,,,,,,,,,,,,,,,,,,,,,,,,,,,,,,,,,,,,,,,,,,,,,,,706.5407318999996,707.0433530999999,707.0433530999999,707.7959414999996,707.7959414999996,708.2957448999996,708.2957448999996,709.1955078999999,709.1955078999999,None,num_4,0.3781748000001244,709.1955078999999,None,sad,0,Sad,709.5869850600001,None,None,709.5869850600001,None,,,,,,,,,,,,,,,,,,,,,,,,,,,,,,,,,,,,,,,,,,,,,,,,,,,,,38,001,0,20,300,300,2022_Nov_09_1124,Experiment,2021.1.4,359.7859992981544,
images\S8_M_H_01.png,images\S8_M_H_01_scrambled.png,8,happy,10,male,4,,283,off,1,0.5,0.75,0.5,0.885,3,282,1,2,1,0,0,0,0,4,,,,,,0,39,39,39,,,,,,,,,,,,,,,,,,,,,,,,,,,,,,,,,,,,,,,,,,,,,,,,,,,,,,,,,709.6703268000001,710.1757634999994,710.1757634999994,710.9283100000002,710.9283100000002,711.4309189999994,711.4309189999994,712.3195292999999,712.3195292999999,None,num_6,0.5100919000005888,712.3195292999999,None,happy,0,Happy,712.8443719599999,None,None,712.8443719599999,None,,,,,,,,,,,,,,,,,,,,,,,,,,,,,,,,,,,,,,,,,,,,,,,,,,,,,38,001,0,20,300,300,2022_Nov_09_1124,Experiment,2021.1.4,359.7859992981544,
images\S8_M_S_03.png,images\S8_M_S_03_scrambled.png,8,sad,-30,male,1,,408,off,1,0.5,0.75,0.5,0.89,3,407,2,3,1,0,0,0,0,1,,,,,,0,40,40,40,,,,,,,,,,,,,,,,,,,,,,,,,,,,,,,,,,,,,,,,,,,,,,,,,,,,,,,,,712.8915583999997,713.3970276,713.3970276,714.1467403999995,714.1467403999995,714.6493414999995,714.6493414999995,715.5463903,715.5463903,None,num_4,0.5391221999998379,715.5463903,None,sad,0,Sad,716.0989035600004,None,None,716.0989035600004,None,,,,,,,,,,,,,,,,,,,,,,,,,,,,,,,,,,,,,,,,,,,,,,,,,,,,,38,001,0,20,300,300,2022_Nov_09_1124,Experiment,2021.1.4,359.7859992981544,
images\S4_M_H_03.png,images\S4_M_H_03_scrambled.png,4,happy,30,male,6,,201,on,2,0.5,0.75,0.5,0.903,3,200,1,1,1,2,2,32,128,166,,,,,,0,41,41,41,,,,,,,,,,,,,,,,,,,,,,,,,,,,,,,,,,,,,,,,,,,,,,,,,,,,,,,,,716.1822099000001,716.6876176999995,716.6876176999995,717.4401596999996,717.4401596999996,717.9400411999995,717.9400411999995,718.8425089000002,718.8425089000002,None,num_6,0.3313282999997682,718.8425089000002,None,happy,0,Happy,719.2065055000003,None,None,719.2065055000003,None,,,,,,,,,,,,,,,,,,,,,,,,,,,,,,,,,,,,,,,,,,,,,,,,,,,,,38,001,0,20,300,300,2022_Nov_09_1124,Experiment,2021.1.4,359.7859992981544,
images\blank.jpg,images\blank.jpg,none,none,none,none,0,,632,on,2,0.5,0.75,0.5,0.781,0,631,2,1,1,3,3,48,192,240,,,,,,0,42,42,42,,,,,,,,,,,,,,,,,,,,,,,,,,,,,,,,,,,,,,,,,,,,,,,,,,,,,,,,,719.3065090999999,719.8088865,719.8088865,720.5614092999995,720.5614092999995,721.0669140999998,721.0669140999998,721.8499141000002,721.8499141000002,721.8499141000002,None,,721.8499141000002,None,miss,0,,724.8546299799996,None,None,724.8546299799996,None,,,,,,,,,,,,,,,,,,,,,,,,,,,,,,,,,,,,,,,,,,,,,,,,,,,,,38,001,0,20,300,300,2022_Nov_09_1124,Experiment,2021.1.4,359.7859992981544,
images\S8_M_S_02.png,images\S8_M_S_02_scrambled.png,8,sad,-20,male,2,,47,off,1,0.5,0.75,0.5,0.884,3,46,1,1,1,0,0,0,0,2,,,,,,0,43,43,43,,,,,,,,,,,,,,,,,,,,,,,,,,,,,,,,,,,,,,,,,,,,,,,,,,,,,,,,,725.0130065000003,725.5182672999999,725.5182672999999,726.2735864999995,726.2735864999995,726.7762064999997,726.7762064999997,727.6621527999996,727.6621527999996,None,num_4,0.43936459999986255,727.6621527999996,725.0130065000003,sad,0,Sad,728.12584698,None,None,728.12584698,None,,,,,,,,,,,,,,,,,,,,,,,,,,,,,,,,,,,,,,,,,,,,,,,,,,,,,38,001,0,20,300,300,2022_Nov_09_1124,Experiment,2021.1.4,359.7859992981544,
images\S10_M_S_03.png,images\S10_M_S_03_scrambled.png,10,sad,-30,male,1,,420,off,1,0.5,0.75,0.5,0.813,3,419,2,1,1,0,0,0,0,1,,,,,,0,44,44,44,,,,,,,,,,,,,,,,,,,,,,,,,,,,,,,,,,,,,,,,,,,,,,,,,,,,,,,,,728.1812898999997,728.6839405000001,728.6839405000001,729.439265,729.439265,729.9419851000002,729.9419851000002,730.7583196999994,730.7583196999994,None,num_4,0.7193683000004967,730.7583196999994,None,sad,0,Sad,731.49140866,None,None,731.49140866,None,,,,,,,,,,,,,,,,,,,,,,,,,,,,,,,,,,,,,,,,,,,,,,,,,,,,,38,001,0,20,300,300,2022_Nov_09_1124,Experiment,2021.1.4,359.7859992981544,
images\S10_M_H_01.png,images\S10_M_H_01_scrambled.png,10,happy,10,male,4,,535,off,1,0.5,0.75,0.5,0.797,3,534,3,2,1,0,0,0,0,4,,,,,,0,45,45,45,,,,,,,,,,,,,,,,,,,,,,,,,,,,,,,,,,,,,,,,,,,,,,,,,,,,,,,,,731.5413648000003,732.0412191999994,732.0412191999994,732.7909831999996,732.7909831999996,733.2936455999998,733.2936455999998,734.0934031999996,734.0934031999996,None,num_6,0.9042072000002008,734.0934031999996,None,happy,0,Happy,735.0125481599997,None,None,735.0125481599997,None,,,,,,,,,,,,,,,,,,,,,,,,,,,,,,,,,,,,,,,,,,,,,,,,,,,,,38,001,0,20,300,300,2022_Nov_09_1124,Experiment,2021.1.4,359.7859992981544,
images\S3_F_S_03.png,images\S3_F_S_03_scrambled.png,3,sad,-30,female,1,,378,off,1,0.5,0.75,0.5,0.876,3,377,4,1,1,0,0,0,0,1,,,,,,0,46,46,46,,,,,,,,,,,,,,,,,,,,,,,,,,,,,,,,,,,,,,,,,,,,,,,,,,,,,,,,,735.0958322999995,735.5985019,735.5985019,736.3482148000003,736.3482148000003,736.8536667999997,736.8536667999997,737.7339307000002,737.7339307000002,None,num_4,0.4317141999999876,737.7339307000002,None,sad,0,Sad,738.1810192600004,None,None,738.1810192600004,None,,,,,,,,,,,,,,,,,,,,,,,,,,,,,,,,,,,,,,,,,,,,,,,,,,,,,38,001,0,20,300,300,2022_Nov_09_1124,Experiment,2021.1.4,359.7859992981544,
images\S10_M_H_01.png,images\S10_M_H_01_scrambled.png,10,happy,10,male,4,,175,off,1,0.5,0.75,0.5,0.916,3,174,5,1,1,0,0,0,0,4,,,,,,0,47,47,47,,,,,,,,,,,,,,,,,,,,,,,,,,,,,,,,,,,,,,,,,,,,,,,,,,,,,,,,,738.2282036999995,738.7336311999998,738.7336311999998,739.4889573,739.4889573,739.9943475999999,739.9943475999999,740.9135194,740.9135194,None,num_6,0.12440420000075392,740.9135194,None,happy,0,Happy,741.0635966200003,None,None,741.0635966200003,None,,,,,,,,,,,,,,,,,,,,,,,,,,,,,,,,,,,,,,,,,,,,,,,,,,,,,38,001,0,20,300,300,2022_Nov_09_1124,Experiment,2021.1.4,359.7859992981544,
images\S9_F_H_02.png,images\S9_F_H_02_scrambled.png,9,happy,20,female,5,,530,off,1,0.5,0.75,0.5,0.776,3,529,6,1,1,0,0,0,0,5,,,,,,0,48,48,48,,,,,,,,,,,,,,,,,,,,,,,,,,,,,,,,,,,,,,,,,,,,,,,,,,,,,,,,,741.1161959000001,741.6160491,741.6160491,742.3658692999998,742.3658692999998,742.8684757000001,742.8684757000001,743.6487852,743.6487852,None,num_6,0.2287720000003901,743.6487852,None,happy,0,Happy,743.8876179600001,None,None,743.8876179600001,None,,,,,,,,,,,,,,,,,,,,,,,,,,,,,,,,,,,,,,,,,,,,,,,,,,,,,38,001,0,20,300,300,2022_Nov_09_1124,Experiment,2021.1.4,359.7859992981544,
images\S9_F_S_02.png,images\S9_F_S_02_scrambled.png,9,sad,-20,female,2,,53,off,1,0.5,0.75,0.5,0.871,3,52,7,2,1,0,0,0,0,2,,,,,,0,49,49,49,,,,,,,,,,,,,,,,,,,,,,,,,,,,,,,,,,,,,,,,,,,,,,,,,,,,,,,,,743.9375491000001,744.4401830999996,744.4401830999996,745.1928462999995,745.1928462999995,745.6981631999997,745.6981631999997,746.5729297999997,746.5729297999997,None,num_6,0.536468700000114,746.5729297999997,None,happy,0,Sad,747.1143724799999,None,None,747.1143724799999,None,,,,,,,,,,,,,,,,,,,,,,,,,,,,,,,,,,,,,,,,,,,,,,,,,,,,,38,001,0,20,300,300,2022_Nov_09_1124,Experiment,2021.1.4,359.7859992981544,
images\S5_F_S_02.png,images\S5_F_S_02_scrambled.png,5,sad,-20,female,2,,209,on,2,0.5,0.75,0.5,0.779,3,208,1,1,2,2,2,32,128,162,,,,,,0,50,50,50,,,,,,,,,,,,,,,,,,,,,,,,,,,,,,,,,,,,,,,,,,,,,,,,,,,,,,,,,747.1615597999998,747.6642068000001,747.6642068000001,748.4167338999996,748.4167338999996,748.9165820999997,748.9165820999997,749.6996829,749.6996829,None,num_6,0.11416949999966164,749.6996829,None,happy,0,Sad,749.8275100199995,None,None,749.8275100199995,None,,,,,,,,,,,,,,,,,,,,,,,,,,,,,,,,,,,,,,,,,,,,,,,,,,,,,38,001,0,20,300,300,2022_Nov_09_1124,Experiment,2021.1.4,359.7859992981544,
images\S6_M_H_02.png,images\S6_M_H_02_scrambled.png,6,happy,20,male,5,,152,off,1,0.5,0.75,0.5,0.832,3,151,1,1,1,0,0,0,0,5,,,,,,0,51,51,51,,,,,,,,,,,,,,,,,,,,,,,,,,,,,,,,,,,,,,,,,,,,,,,,,,,,,,,,,749.9357030000001,750.4383691000003,750.4383691000003,751.1909171999996,751.1909171999996,751.6935352,751.6935352,752.5293449000001,752.5293449000001,None,num_6,0.27626950000012584,752.5293449000001,None,happy,0,Happy,752.8322124800002,None,None,752.8322124800002,None,,,,,,,,,,,,,,,,,,,,,,,,,,,,,,,,,,,,,,,,,,,,,,,,,,,,,38,001,0,20,300,300,2022_Nov_09_1124,Experiment,2021.1.4,359.7859992981544,
images\blank.jpg,images\blank.jpg,none,none,none,none,0,,634,on,2,0.5,0.75,0.5,0.782,0,633,1,1,1,3,3,48,192,240,,,,,,0,52,52,52,,,,,,,,,,,,,,,,,,,,,,,,,,,,,,,,,,,,,,,,,,,,,,,,,,,,,,,,,752.9182959,753.4235584999997,753.4235584999997,754.1788789000002,754.1788789000002,754.6842593000001,754.6842593000001,755.4729605000002,755.4729605000002,755.4729605000002,None,,755.4729605000002,None,miss,0,,758.4747916400004,None,None,758.4747916400004,None,,,,,,,,,,,,,,,,,,,,,,,,,,,,,,,,,,,,,,,,,,,,,,,,,,,,,38,001,0,20,300,300,2022_Nov_09_1124,Experiment,2021.1.4,359.7859992981544,
images\S3_F_H_03.png,images\S3_F_H_03_scrambled.png,3,happy,30,female,6,,15,off,1,0.5,0.75,0.5,0.829,3,14,1,1,1,0,0,0,0,6,,,,,,0,53,53,53,,,,,,,,,,,,,,,,,,,,,,,,,,,,,,,,,,,,,,,,,,,,,,,,,,,,,,,,,758.6305112,759.1329347999999,759.1329347999999,759.8854114999995,759.8854114999995,760.3880372000003,760.3880372000003,761.2239307,761.2239307,None,None,,761.2239307,758.6305112,miss,0,Happy,764.2257651399998,None,None,764.2257651399998,None,,,,,,,,,,,,,,,,,,,,,,,,,,,,,,,,,,,,,,,,,,,,,,,,,,,,,38,001,0,20,300,300,2022_Nov_09_1124,Experiment,2021.1.4,359.7859992981544,
images\S8_M_H_01.png,images\S8_M_H_01_scrambled.png,8,happy,10,male,4,,103,on,2,0.5,0.75,0.5,0.78,3,102,1,1,1,2,2,32,128,164,,,,,,0,54,54,54,,,,,,,,,,,,,,,,,,,,,,,,,,,,,,,,,,,,,,,,,,,,,,,,,,,,,,,,,764.2757267999996,764.7811485000002,764.7811485000002,765.5364162999995,765.5364162999995,766.0363121,766.0363121,766.8194473000003,766.8194473000003,764.2757267999996,num_4,0.514186499999596,766.8194473000003,764.2757267999996,sad,0,Happy,767.3387250800001,None,None,767.3387250800001,None,,,,,,,,,,,,,,,,,,,,,,,,,,,,,,,,,,,,,,,,,,,,,,,,,,,,,38,001,0,20,300,300,2022_Nov_09_1124,Experiment,2021.1.4,359.7859992981544,
images\S2_M_H_03.png,images\S2_M_H_03_scrambled.png,2,happy,30,male,6,,129,off,1,0.5,0.75,0.5,0.934,3,128,1,1,1,0,0,0,0,6,,,,,,0,55,55,55,,,,,,,,,,,,,,,,,,,,,,,,,,,,,,,,,,,,,,,,,,,,,,,,,,,,,,,,,767.3886567,767.8912795999995,767.8912795999995,768.6466138999995,768.6466138999995,769.1492410000001,769.1492410000001,770.0850800999997,770.0850800999997,None,num_6,0.3369489999995494,770.0850800999997,None,happy,0,Happy,770.4433777400002,None,None,770.4433777400002,None,,,,,,,,,,,,,,,,,,,,,,,,,,,,,,,,,,,,,,,,,,,,,,,,,,,,,38,001,0,20,300,300,2022_Nov_09_1124,Experiment,2021.1.4,359.7859992981544,
images\S6_M_S_03.png,images\S6_M_S_03_scrambled.png,6,sad,-30,male,1,,456,on,2,0.5,0.75,0.5,0.793,3,455,1,1,1,2,2,32,128,161,,,,,,0,56,56,56,,,,,,,,,,,,,,,,,,,,,,,,,,,,,,,,,,,,,,,,,,,,,,,,,,,,,,,,,770.5515759,771.0569850000002,771.0569850000002,771.8067565000001,771.8067565000001,772.3093993000002,772.3093993000002,773.1091706999996,773.1091706999996,None,num_4,0.3442488999999114,773.1091706999996,None,sad,0,Sad,773.4646164599998,None,None,773.4646164599998,None,,,,,,,,,,,,,,,,,,,,,,,,,,,,,,,,,,,,,,,,,,,,,,,,,,,,,38,001,0,20,300,300,2022_Nov_09_1124,Experiment,2021.1.4,359.7859992981544,
images\S1_F_H_03.png,images\S1_F_H_03_scrambled.png,1,happy,30,female,6,,303,on,2,0.5,0.75,0.5,0.883,3,302,2,1,1,2,2,32,128,166,,,,,,0,57,57,57,,,,,,,,,,,,,,,,,,,,,,,,,,,,,,,,,,,,,,,,,,,,,,,,,,,,,,,,,773.5506512000002,774.0534158,774.0534158,774.8086963999995,774.8086963999995,775.3140310999997,775.3140310999997,776.1998630999997,776.1998630999997,None,num_6,0.3496998000000531,776.1998630999997,None,happy,0,Happy,776.5636985600003,None,None,776.5636985600003,None,,,,,,,,,,,,,,,,,,,,,,,,,,,,,,,,,,,,,,,,,,,,,,,,,,,,,38,001,0,20,300,300,2022_Nov_09_1124,Experiment,2021.1.4,359.7859992981544,
images\S2_M_S_01.png,images\S2_M_S_01_scrambled.png,2,sad,-10,male,3,,490,off,1,0.5,0.75,0.5,0.782,3,489,1,1,1,0,0,0,0,3,,,,,,0,58,58,58,,,,,,,,,,,,,,,,,,,,,,,,,,,,,,,,,,,,,,,,,,,,,,,,,,,,,,,,,776.6135965000003,777.1190060999998,777.1190060999998,777.8715941999999,777.8715941999999,778.3742132999996,778.3742132999996,779.1600638999998,779.1600638999998,None,num_4,0.5974949999999808,779.1600638999998,None,sad,0,Sad,779.76820536,None,None,779.76820536,None,,,,,,,,,,,,,,,,,,,,,,,,,,,,,,,,,,,,,,,,,,,,,,,,,,,,,38,001,0,20,300,300,2022_Nov_09_1124,Experiment,2021.1.4,359.7859992981544,
images\S4_M_S_03.png,images\S4_M_S_03_scrambled.png,4,sad,-30,male,1,,564,on,2,0.5,0.75,0.5,0.895,3,563,1,1,1,2,2,32,128,161,,,,,,0,59,59,59,,,,,,,,,,,,,,,,,,,,,,,,,,,,,,,,,,,,,,,,,,,,,,,,,,,,,,,,,779.8181690000001,780.3237134000001,780.3237134000001,781.0733541,781.0733541,781.5788360999995,781.5788360999995,782.4785998999996,782.4785998999996,None,num_6,0.02314620000015566,782.4785998999996,None,happy,0,Sad,782.5146657199999,None,None,782.5146657199999,None,,,,,,,,,,,,,,,,,,,,,,,,,,,,,,,,,,,,,,,,,,,,,,,,,,,,,38,001,0,20,300,300,2022_Nov_09_1124,Experiment,2021.1.4,359.7859992981544,
images\S6_M_S_01.png,images\S6_M_S_01_scrambled.png,6,sad,-10,male,3,,334,on,2,0.5,0.75,0.5,0.922,3,333,2,1,1,2,2,32,128,163,,,,,,0,60,60,60,,,,,,,,,,,,,,,,,,,,,,,,,,,,,,,,,,,,,,,,,,,,,,,,,,,,,,,,,782.5784290000001,783.0810701,783.0810701,783.8336141999998,783.8336141999998,784.3390300000001,784.3390300000001,785.2637884999995,785.2637884999995,None,num_6,0.1414478999995481,785.2637884999995,None,happy,0,Sad,785.4108981799995,None,None,785.4108981799995,None,,,,,,,,,,,,,,,,,,,,,,,,,,,,,,,,,,,,,,,,,,,,,,,,,,,,,38,001,0,20,300,300,2022_Nov_09_1124,Experiment,2021.1.4,359.7859992981544,
images\S2_M_S_02.png,images\S2_M_S_02_scrambled.png,2,sad,-20,male,2,,551,on,2,0.5,0.75,0.5,0.773,3,550,3,1,1,2,2,32,128,162,,,,,,0,61,61,61,,,,,,,,,,,,,,,,,,,,,,,,,,,,,,,,,,,,,,,,,,,,,,,,,,,,,,,,,785.5219685000002,786.0246277999995,786.0246277999995,786.7799429999995,786.7799429999995,787.2853479999994,787.2853479999994,788.0600691,788.0600691,None,num_4,0.0895488000005571,788.0600691,None,sad,0,Sad,788.1628136600001,None,None,788.1628136600001,None,,,,,,,,,,,,,,,,,,,,,,,,,,,,,,,,,,,,,,,,,,,,,,,,,,,,,38,001,0,20,300,300,2022_Nov_09_1124,Experiment,2021.1.4,359.7859992981544,
images\S1_F_S_02.png,images\S1_F_S_02_scrambled.png,1,sad,-20,female,2,,185,on,2,0.5,0.75,0.5,0.858,3,184,4,1,2,2,2,32,128,162,,,,,,0,62,62,62,,,,,,,,,,,,,,,,,,,,,,,,,,,,,,,,,,,,,,,,,,,,,,,,,,,,,,,,,788.2128090999995,788.7183241000002,788.7183241000002,789.4707723000001,789.4707723000001,789.9705943999998,789.9705943999998,790.8342784999995,790.8342784999995,None,num_6,0.08366470000055415,790.8342784999995,None,happy,0,Sad,790.92873552,None,None,790.92873552,None,,,,,,,,,,,,,,,,,,,,,,,,,,,,,,,,,,,,,,,,,,,,,,,,,,,,,38,001,0,20,300,300,2022_Nov_09_1124,Experiment,2021.1.4,359.7859992981544,
images\S9_F_H_03.png,images\S9_F_H_03_scrambled.png,9,happy,30,female,6,,111,on,2,0.5,0.75,0.5,0.864,3,110,5,1,1,2,2,32,128,166,,,,,,0,63,63,63,,,,,,,,,,,,,,,,,,,,,,,,,,,,,,,,,,,,,,,,,,,,,,,,,,,,,,,,,791.0397248999998,791.5451373999995,791.5451373999995,792.2976583999998,792.2976583999998,792.7975422999998,792.7975422999998,793.6639611,793.6639611,None,num_6,0.11759060000076715,793.6639611,None,happy,0,Happy,793.8028824199997,None,None,793.8028824199997,None,,,,,,,,,,,,,,,,,,,,,,,,,,,,,,,,,,,,,,,,,,,,,,,,,,,,,38,001,0,20,300,300,2022_Nov_09_1124,Experiment,2021.1.4,359.7859992981544,
images\S8_M_H_02.png,images\S8_M_H_02_scrambled.png,8,happy,20,male,5,,44,off,1,0.5,0.75,0.5,0.949,3,43,1,1,1,0,0,0,0,5,,,,,,0,64,64,64,,,,,,,,,,,,,,,,,,,,,,,,,,,,,,,,,,,,,,,,,,,,,,,,,,,,,,,,,793.8555178999995,794.3582858999998,794.3582858999998,795.1078963,795.1078963,795.6134578000001,795.6134578000001,796.5658084999995,796.5658084999995,None,num_6,1.7756564000001163,796.5658084999995,None,happy,0,Happy,798.3568952599998,None,None,798.3568952599998,None,,,,,,,,,,,,,,,,,,,,,,,,,,,,,,,,,,,,,,,,,,,,,,,,,,,,,38,001,0,20,300,300,2022_Nov_09_1124,Experiment,2021.1.4,359.7859992981544,
images\S4_M_H_03.png,images\S4_M_H_03_scrambled.png,4,happy,30,male,6,,21,off,1,0.5,0.75,0.5,0.832,3,20,2,1,1,0,0,0,0,6,,,,,,0,65,65,65,,,,,,,,,,,,,,,,,,,,,,,,,,,,,,,,,,,,,,,,,,,,,,,,,,,,,,,,,798.4068897999996,798.9095101000003,798.9095101000003,799.6592820999995,799.6592820999995,800.1647135000003,800.1647135000003,800.9977548999996,800.9977548999996,None,num_6,0.311587099999997,800.9977548999996,None,happy,0,Happy,801.3199296600004,None,None,801.3199296600004,None,,,,,,,,,,,,,,,,,,,,,,,,,,,,,,,,,,,,,,,,,,,,,,,,,,,,,38,001,0,20,300,300,2022_Nov_09_1124,Experiment,2021.1.4,359.7859992981544,
images\S2_M_S_03.png,images\S2_M_S_03_scrambled.png,2,sad,-30,male,1,,552,on,2,0.5,0.75,0.5,0.782,3,551,1,1,1,2,2,32,128,161,,,,,,0,66,66,66,,,,,,,,,,,,,,,,,,,,,,,,,,,,,,,,,,,,,,,,,,,,,,,,,,,,,,,,,801.3698637999996,801.8724950999995,801.8724950999995,802.6250620999999,802.6250620999999,803.1304640999997,803.1304640999997,803.9191242999996,803.9191242999996,None,num_4,0.3345749000000069,803.9191242999996,None,sad,0,Sad,804.2773801799999,None,None,804.2773801799999,None,,,,,,,,,,,,,,,,,,,,,,,,,,,,,,,,,,,,,,,,,,,,,,,,,,,,,38,001,0,20,300,300,2022_Nov_09_1124,Experiment,2021.1.4,359.7859992981544,
images\S2_M_H_03.png,images\S2_M_H_03_scrambled.png,2,happy,30,male,6,,369,off,1,0.5,0.75,0.5,0.85,3,368,1,2,1,0,0,0,0,6,,,,,,0,67,67,67,,,,,,,,,,,,,,,,,,,,,,,,,,,,,,,,,,,,,,,,,,,,,,,,,,,,,,,,,804.3328393000002,804.8354578999997,804.8354578999997,805.5880145000001,805.5880145000001,806.0878670000002,806.0878670000002,806.9404044000003,806.9404044000003,None,num_4,0.21719880000000558,806.9404044000003,None,sad,0,Happy,807.1653797200003,None,None,807.1653797200003,None,,,,,,,,,,,,,,,,,,,,,,,,,,,,,,,,,,,,,,,,,,,,,,,,,,,,,38,001,0,20,300,300,2022_Nov_09_1124,Experiment,2021.1.4,359.7859992981544,
images\S6_M_S_03.png,images\S6_M_S_03_scrambled.png,6,sad,-30,male,1,,336,on,2,0.5,0.75,0.5,0.866,3,335,1,1,1,2,2,32,128,161,,,,,,0,68,68,68,,,,,,,,,,,,,,,,,,,,,,,,,,,,,,,,,,,,,,,,,,,,,,,,,,,,,,,,,807.2292668,807.7345691999999,807.7345691999999,808.4899223000002,808.4899223000002,808.9953114999998,808.9953114999998,809.8616888999995,809.8616888999995,None,num_4,0.447880300000179,809.8616888999995,None,sad,0,Sad,810.3393765000001,None,None,810.3393765000001,None,,,,,,,,,,,,,,,,,,,,,,,,,,,,,,,,,,,,,,,,,,,,,,,,,,,,,38,001,0,20,300,300,2022_Nov_09_1124,Experiment,2021.1.4,359.7859992981544,
images\S1_F_H_01.png,images\S1_F_H_01_scrambled.png,1,happy,10,female,4,,61,on,2,0.5,0.75,0.5,0.779,3,60,2,1,1,2,2,32,128,164,,,,,,0,69,69,69,,,,,,,,,,,,,,,,,,,,,,,,,,,,,,,,,,,,,,,,,,,,,,,,,,,,,,,,,810.4531588,810.9530341,810.9530341,811.7028115000003,811.7028115000003,812.2026697000001,812.2026697000001,812.9885839999997,812.9885839999997,None,num_6,0.3528753999999026,812.9885839999997,None,happy,0,Happy,813.3662301599996,None,None,813.3662301599996,None,,,,,,,,,,,,,,,,,,,,,,,,,,,,,,,,,,,,,,,,,,,,,,,,,,,,,38,001,0,20,300,300,2022_Nov_09_1124,Experiment,2021.1.4,359.7859992981544,
images\S3_F_S_02.png,images\S3_F_S_02_scrambled.png,3,sad,-20,female,2,,257,off,1,0.5,0.75,0.5,0.793,3,256,1,1,1,0,0,0,0,2,,,,,,0,70,70,70,,,,,,,,,,,,,,,,,,,,,,,,,,,,,,,,,,,,,,,,,,,,,,,,,,,,,,,,,813.4577499999996,813.9576514,813.9576514,814.7074504000002,814.7074504000002,815.2100521000002,815.2100521000002,816.0098767999998,816.0098767999998,None,num_4,0.40362760000061826,816.0098767999998,None,sad,0,Sad,816.4402782200001,None,None,816.4402782200001,None,,,,,,,,,,,,,,,,,,,,,,,,,,,,,,,,,,,,,,,,,,,,,,,,,,,,,38,001,0,20,300,300,2022_Nov_09_1124,Experiment,2021.1.4,359.7859992981544,
images\S10_M_H_01.png,images\S10_M_H_01_scrambled.png,10,happy,10,male,4,,295,off,1,0.5,0.75,0.5,0.856,3,294,2,1,1,0,0,0,0,4,,,,,,0,71,71,71,,,,,,,,,,,,,,,,,,,,,,,,,,,,,,,,,,,,,,,,,,,,,,,,,,,,,,,,,816.4929881999997,816.9956198,816.9956198,817.7453898000003,817.7453898000003,818.2508038999995,818.2508038999995,819.1089750000001,819.1089750000001,None,num_6,0.39275330000054964,819.1089750000001,None,happy,0,Happy,819.5170869599996,None,None,819.5170869599996,None,,,,,,,,,,,,,,,,,,,,,,,,,,,,,,,,,,,,,,,,,,,,,,,,,,,,,38,001,0,20,300,300,2022_Nov_09_1124,Experiment,2021.1.4,359.7859992981544,
images\S2_M_H_02.png,images\S2_M_H_02_scrambled.png,2,happy,20,male,5,,428,on,2,0.5,0.75,0.5,0.837,3,427,1,1,1,2,2,32,128,165,,,,,,0,72,72,72,,,,,,,,,,,,,,,,,,,,,,,,,,,,,,,,,,,,,,,,,,,,,,,,,,,,,,,,,819.6031453999994,820.1057996999998,820.1057996999998,820.8583467999997,820.8583467999997,821.3582113000002,821.3582113000002,822.1997054000003,822.1997054000003,None,num_6,0.24577030000000377,822.1997054000003,None,happy,0,Happy,822.4605849600001,None,None,822.4605849600001,None,,,,,,,,,,,,,,,,,,,,,,,,,,,,,,,,,,,,,,,,,,,,,,,,,,,,,38,001,0,20,300,300,2022_Nov_09_1124,Experiment,2021.1.4,359.7859992981544,
images\S4_M_S_02.png,images\S4_M_S_02_scrambled.png,4,sad,-20,male,2,,503,off,1,0.5,0.75,0.5,0.914,3,502,1,1,1,0,0,0,0,2,,,,,,0,73,73,73,,,,,,,,,,,,,,,,,,,,,,,,,,,,,,,,,,,,,,,,,,,,,,,,,,,,,,,,,822.5105772999996,823.0160059999998,823.0160059999998,823.7685239000002,823.7685239000002,824.2711405999999,824.2711405999999,825.1903462999999,825.1903462999999,None,num_4,0.24738999999954103,825.1903462999999,None,sad,0,Sad,825.4625805800001,None,None,825.4625805800001,None,,,,,,,,,,,,,,,,,,,,,,,,,,,,,,,,,,,,,,,,,,,,,,,,,,,,,38,001,0,20,300,300,2022_Nov_09_1124,Experiment,2021.1.4,359.7859992981544,
images\S7_F_H_03.png,images\S7_F_H_03_scrambled.png,7,happy,30,female,6,,579,on,2,0.5,0.75,0.5,0.814,3,578,1,1,1,2,2,32,128,166,,,,,,0,74,74,74,,,,,,,,,,,,,,,,,,,,,,,,,,,,,,,,,,,,,,,,,,,,,,,,,,,,,,,,,825.5735185000003,826.0790205000003,826.0790205000003,826.8314971999998,826.8314971999998,827.334237,827.334237,828.1505053000001,828.1505053000001,None,num_6,0.9270803999997952,828.1505053000001,None,happy,0,Happy,829.0946864599999,None,None,829.0946864599999,None,,,,,,,,,,,,,,,,,,,,,,,,,,,,,,,,,,,,,,,,,,,,,,,,,,,,,38,001,0,20,300,300,2022_Nov_09_1124,Experiment,2021.1.4,359.7859992981544,
images\S1_F_H_02.png,images\S1_F_H_02_scrambled.png,1,happy,20,female,5,,482,off,1,0.5,0.75,0.5,0.886,3,481,1,1,1,0,0,0,0,5,,,,,,0,75,75,75,,,,,,,,,,,,,,,,,,,,,,,,,,,,,,,,,,,,,,,,,,,,,,,,,,,,,,,,,829.1751961999998,829.6806293999998,829.6806293999998,830.4331740999996,830.4331740999996,830.9358038999999,830.9358038999999,831.8245140999998,831.8245140999998,None,num_6,0.43694809999942663,831.8245140999998,None,happy,0,Happy,832.27703586,None,None,832.27703586,None,,,,,,,,,,,,,,,,,,,,,,,,,,,,,,,,,,,,,,,,,,,,,,,,,,,,,38,001,0,20,300,300,2022_Nov_09_1124,Experiment,2021.1.4,359.7859992981544,
images\S2_M_H_03.png,images\S2_M_H_03_scrambled.png,2,happy,30,male,6,,429,on,2,0.5,0.75,0.5,0.763,3,428,1,1,1,2,2,32,128,166,,,,,,0,76,76,76,,,,,,,,,,,,,,,,,,,,,,,,,,,,,,,,,,,,,,,,,,,,,,,,,,,,,,,,,832.3270044000001,832.8324104000003,832.8324104000003,833.5821832000001,833.5821832000001,834.0848665000003,834.0848665000003,834.8512479000001,834.8512479000001,None,num_6,1.034281999999621,834.8512479000001,None,happy,0,Happy,835.90092756,None,None,835.90092756,None,,,,,,,,,,,,,,,,,,,,,,,,,,,,,,,,,,,,,,,,,,,,,,,,,,,,,38,001,0,20,300,300,2022_Nov_09_1124,Experiment,2021.1.4,359.7859992981544,
images\S3_F_H_03.png,images\S3_F_H_03_scrambled.png,3,happy,30,female,6,,315,on,2,0.5,0.75,0.5,0.752,3,314,2,1,2,2,2,32,128,166,,,,,,0,77,77,77,,,,,,,,,,,,,,,,,,,,,,,,,,,,,,,,,,,,,,,,,,,,,,,,,,,,,,,,,835.9508857999999,836.4507253000002,836.4507253000002,837.2032747000003,837.2032747000003,837.7059177000001,837.7059177000001,838.4612219,838.4612219,None,num_6,0.47239819999958854,838.4612219,None,happy,0,Happy,838.9472001599996,None,None,838.9472001599996,None,,,,,,,,,,,,,,,,,,,,,,,,,,,,,,,,,,,,,,,,,,,,,,,,,,,,,38,001,0,20,300,300,2022_Nov_09_1124,Experiment,2021.1.4,359.7859992981544,
images\S4_M_S_03.png,images\S4_M_S_03_scrambled.png,4,sad,-30,male,1,,264,off,1,0.5,0.75,0.5,0.844,3,263,1,1,1,0,0,0,0,1,,,,,,0,78,78,78,,,,,,,,,,,,,,,,,,,,,,,,,,,,,,,,,,,,,,,,,,,,,,,,,,,,,,,,,838.9971706999995,839.4998655999998,839.4998655999998,840.2551702000001,840.2551702000001,840.7549990999996,840.7549990999996,841.6047762999997,841.6047762999997,None,num_4,0.2966233999995893,841.6047762999997,None,sad,0,Sad,841.9157334000001,None,None,841.9157334000001,None,,,,,,,,,,,,,,,,,,,,,,,,,,,,,,,,,,,,,,,,,,,,,,,,,,,,,38,001,0,20,300,300,2022_Nov_09_1124,Experiment,2021.1.4,359.7859992981544,
images\S7_F_S_02.png,images\S7_F_S_02_scrambled.png,7,sad,-20,female,2,,461,on,2,0.5,0.75,0.5,0.757,3,460,1,1,1,2,2,32,128,162,,,,,,0,79,79,79,,,,,,,,,,,,,,,,,,,,,,,,,,,,,,,,,,,,,,,,,,,,,,,,,,,,,,,,,842.0267925999997,842.5295527999997,842.5295527999997,843.2848174999999,843.2848174999999,843.7901917999998,843.7901917999998,844.5510402999998,844.5510402999998,None,num_4,0.37435869999990246,844.5510402999998,None,sad,0,Sad,844.9397705600003,None,None,844.9397705600003,None,,,,,,,,,,,,,,,,,,,,,,,,,,,,,,,,,,,,,,,,,,,,,,,,,,,,,38,001,0,20,300,300,2022_Nov_09_1124,Experiment,2021.1.4,359.7859992981544,
images\S7_F_S_02.png,images\S7_F_S_02_scrambled.png,7,sad,-20,female,2,,221,on,2,0.5,0.75,0.5,0.787,3,220,2,2,2,2,2,32,128,162,,,,,,0,80,80,80,,,,,,,,,,,,,,,,,,,,,,,,,,,,,,,,,,,,,,,,,,,,,,,,,,,,,,,,,844.9897713999999,845.4923989999998,845.4923989999998,846.2421697999998,846.2421697999998,846.7448814999998,846.7448814999998,847.5362254000001,847.5362254000001,None,num_4,0.5811770999998771,847.5362254000001,None,sad,0,Sad,848.1471629999996,None,None,848.1471629999996,None,,,,,,,,,,,,,,,,,,,,,,,,,,,,,,,,,,,,,,,,,,,,,,,,,,,,,38,001,0,20,300,300,2022_Nov_09_1124,Experiment,2021.1.4,359.7859992981544,
images\S3_F_H_01.png,images\S3_F_H_01_scrambled.png,3,happy,10,female,4,,73,on,2,0.5,0.75,0.5,0.768,3,72,3,1,1,2,2,32,128,164,,,,,,0,81,81,81,,,,,,,,,,,,,,,,,,,,,,,,,,,,,,,,,,,,,,,,,,,,,,,,,,,,,,,,,848.2332199000002,848.7358880000002,848.7358880000002,849.4856196999999,849.4856196999999,849.9910471000003,849.9910471000003,850.7630056999997,850.7630056999997,None,num_6,0.13830290000078094,850.7630056999997,None,happy,0,Happy,850.91574286,None,None,850.91574286,None,,,,,,,,,,,,,,,,,,,,,,,,,,,,,,,,,,,,,,,,,,,,,,,,,,,,,38,001,0,20,300,300,2022_Nov_09_1124,Experiment,2021.1.4,359.7859992981544,
images\S7_F_H_03.png,images\S7_F_H_03_scrambled.png,7,happy,30,female,6,,219,on,2,0.5,0.75,0.5,0.931,3,218,4,1,1,2,2,32,128,166,,,,,,0,82,82,82,,,,,,,,,,,,,,,,,,,,,,,,,,,,,,,,,,,,,,,,,,,,,,,,,,,,,,,,,850.9657015000003,851.4655709999997,851.4655709999997,852.2209174,852.2209174,852.7263185000002,852.7263185000002,853.6621321000002,853.6621321000002,None,num_6,2.4794736999992892,853.6621321000002,None,happy,0,Happy,856.1557653600001,None,None,856.1557653600001,None,,,,,,,,,,,,,,,,,,,,,,,,,,,,,,,,,,,,,,,,,,,,,,,,,,,,,38,001,0,20,300,300,2022_Nov_09_1124,Experiment,2021.1.4,359.7859992981544,
images\S4_M_H_01.png,images\S4_M_H_01_scrambled.png,4,happy,10,male,4,,139,off,1,0.5,0.75,0.5,0.91,3,138,1,1,1,0,0,0,0,4,,,,,,0,83,83,83,,,,,,,,,,,,,,,,,,,,,,,,,,,,,,,,,,,,,,,,,,,,,,,,,,,,,,,,,856.2029971000002,856.7056401,856.7056401,857.4609551000003,857.4609551000003,857.9636906999995,857.9636906999995,858.8799782999995,858.8799782999995,None,num_4,0.2857281000005969,858.8799782999995,None,sad,0,Happy,859.1743862199997,None,None,859.1743862199997,None,,,,,,,,,,,,,,,,,,,,,,,,,,,,,,,,,,,,,,,,,,,,,,,,,,,,,38,001,0,20,300,300,2022_Nov_09_1124,Experiment,2021.1.4,359.7859992981544,
images\S8_M_S_01.png,images\S8_M_S_01_scrambled.png,8,sad,-10,male,3,,526,off,1,0.5,0.75,0.5,0.844,3,525,2,1,1,0,0,0,0,3,,,,,,0,84,84,84,,,,,,,,,,,,,,,,,,,,,,,,,,,,,,,,,,,,,,,,,,,,,,,,,,,,,,,,,859.2825879000002,859.7852495999996,859.7852495999996,860.5349829999996,860.5349829999996,861.0404179999996,861.0404179999996,861.88735,861.88735,None,num_4,0.28652169999986654,861.88735,None,sad,0,Sad,862.1929170400001,None,None,862.1929170400001,None,,,,,,,,,,,,,,,,,,,,,,,,,,,,,,,,,,,,,,,,,,,,,,,,,,,,,38,001,0,20,300,300,2022_Nov_09_1124,Experiment,2021.1.4,359.7859992981544,
images\S7_F_H_01.png,images\S7_F_H_01_scrambled.png,7,happy,10,female,4,,397,off,1,0.5,0.75,0.5,0.769,3,396,3,1,1,0,0,0,0,4,,,,,,0,85,85,85,,,,,,,,,,,,,,,,,,,,,,,,,,,,,,,,,,,,,,,,,,,,,,,,,,,,,,,,,862.3066527999999,862.81207,862.81207,863.5646758000003,863.5646758000003,864.0672199999999,864.0672199999999,864.8393553999995,864.8393553999995,None,num_6,0.48660600000039267,864.8393553999995,None,happy,0,Happy,865.3475123399996,None,None,865.3475123399996,None,,,,,,,,,,,,,,,,,,,,,,,,,,,,,,,,,,,,,,,,,,,,,,,,,,,,,38,001,0,20,300,300,2022_Nov_09_1124,Experiment,2021.1.4,359.7859992981544,
images\S9_F_S_01.png,images\S9_F_S_01_scrambled.png,9,sad,-10,female,3,,292,off,1,0.5,0.75,0.5,0.821,3,291,4,1,1,0,0,0,0,3,,,,,,0,86,86,86,,,,,,,,,,,,,,,,,,,,,,,,,,,,,,,,,,,,,,,,,,,,,,,,,,,,,,,,,865.4001443999996,865.9000059999998,865.9000059999998,866.6497763999996,866.6497763999996,867.1552007999999,867.1552007999999,867.9799504000002,867.9799504000002,None,num_6,0.41752619999988383,867.9799504000002,None,happy,0,Sad,868.4047301799997,None,None,868.4047301799997,None,,,,,,,,,,,,,,,,,,,,,,,,,,,,,,,,,,,,,,,,,,,,,,,,,,,,,38,001,0,20,300,300,2022_Nov_09_1124,Experiment,2021.1.4,359.7859992981544,
images\blank.jpg,images\blank.jpg,none,none,none,none,0,,636,on,2,0.5,0.75,0.5,0.804,0,635,1,1,1,3,3,48,192,240,,,,,,0,87,87,87,,,,,,,,,,,,,,,,,,,,,,,,,,,,,,,,,,,,,,,,,,,,,,,,,,,,,,,,,868.4883241999996,868.9879406999999,868.9879406999999,869.7377114999999,869.7377114999999,870.2403705999996,870.2403705999996,871.0512114000003,871.0512114000003,871.0512114000003,None,,871.0512114000003,None,miss,0,,874.0559089800004,None,None,874.0559089800004,None,,,,,,,,,,,,,,,,,,,,,,,,,,,,,,,,,,,,,,,,,,,,,,,,,,,,,38,001,0,20,300,300,2022_Nov_09_1124,Experiment,2021.1.4,359.7859992981544,
images\S1_F_S_02.png,images\S1_F_S_02_scrambled.png,1,sad,-20,female,2,,65,on,2,0.5,0.75,0.5,0.922,3,64,2,1,1,2,2,32,128,162,,,,,,0,88,88,88,,,,,,,,,,,,,,,,,,,,,,,,,,,,,,,,,,,,,,,,,,,,,,,,,,,,,,,,,874.1755543999998,874.6779231999999,874.6779231999999,875.4276321999996,875.4276321999996,875.9302396000003,875.9302396000003,876.8549535000002,876.8549535000002,None,num_6,0.0632329000000027,876.8549535000002,874.1755543999998,happy,0,Sad,876.9299422199998,None,None,876.9299422199998,None,,,,,,,,,,,,,,,,,,,,,,,,,,,,,,,,,,,,,,,,,,,,,,,,,,,,,38,001,0,20,300,300,2022_Nov_09_1124,Experiment,2021.1.4,359.7859992981544,
images\S7_F_S_03.png,images\S7_F_S_03_scrambled.png,7,sad,-30,female,1,,282,off,1,0.5,0.75,0.5,0.852,3,281,1,1,1,0,0,0,0,1,,,,,,0,89,89,89,,,,,,,,,,,,,,,,,,,,,,,,,,,,,,,,,,,,,,,,,,,,,,,,,,,,,,,,,876.9882461999996,877.4908761999995,877.4908761999995,878.2406539000003,878.2406539000003,878.7433074,878.7433074,879.5985960999997,879.5985960999997,None,num_6,0.023199999999633292,879.5985960999997,None,happy,0,Sad,879.63474732,None,None,879.63474732,None,,,,,,,,,,,,,,,,,,,,,,,,,,,,,,,,,,,,,,,,,,,,,,,,,,,,,38,001,0,20,300,300,2022_Nov_09_1124,Experiment,2021.1.4,359.7859992981544,
images\S7_F_H_02.png,images\S7_F_H_02_scrambled.png,7,happy,20,female,5,,278,off,1,0.5,0.75,0.5,0.941,3,277,2,2,1,0,0,0,0,5,,,,,,0,90,90,90,,,,,,,,,,,,,,,,,,,,,,,,,,,,,,,,,,,,,,,,,,,,,,,,,,,,,,,,,879.7207626999998,880.2234090000002,880.2234090000002,880.9787213999998,880.9787213999998,881.4813499000002,881.4813499000002,882.4282788999999,882.4282788999999,None,num_6,0.6890436000003319,882.4282788999999,None,happy,0,Happy,883.1280346599996,None,None,883.1280346599996,None,,,,,,,,,,,,,,,,,,,,,,,,,,,,,,,,,,,,,,,,,,,,,,,,,,,,,38,001,0,20,300,300,2022_Nov_09_1124,Experiment,2021.1.4,359.7859992981544,
images\S9_F_S_03.png,images\S9_F_S_03_scrambled.png,9,sad,-30,female,1,,234,on,2,0.5,0.75,0.5,0.822,3,233,1,1,1,2,2,32,128,161,,,,,,0,91,91,91,,,,,,,,,,,,,,,,,,,,,,,,,,,,,,,,,,,,,,,,,,,,,,,,,,,,,,,,,883.1780116,883.6806421000001,883.6806421000001,884.4332143000001,884.4332143000001,884.9386119000001,884.9386119000001,885.7633644999996,885.7633644999996,None,num_6,0.13776989999951184,885.7633644999996,None,happy,0,Sad,885.9132764800001,None,None,885.9132764800001,None,,,,,,,,,,,,,,,,,,,,,,,,,,,,,,,,,,,,,,,,,,,,,,,,,,,,,38,001,0,20,300,300,2022_Nov_09_1124,Experiment,2021.1.4,359.7859992981544,
images\S7_F_H_02.png,images\S7_F_H_02_scrambled.png,7,happy,20,female,5,,458,on,2,0.5,0.75,0.5,0.846,3,457,2,1,1,2,2,32,128,165,,,,,,0,92,92,92,,,,,,,,,,,,,,,,,,,,,,,,,,,,,,,,,,,,,,,,,,,,,,,,,,,,,,,,,885.9854728,886.488139,886.488139,887.2378663,887.2378663,887.7433208000002,887.7433208000002,888.5930607,888.5930607,None,num_6,2.364431300000433,888.5930607,None,happy,0,Happy,890.9700424600004,None,None,890.9700424600004,None,,,,,,,,,,,,,,,,,,,,,,,,,,,,,,,,,,,,,,,,,,,,,,,,,,,,,38,001,0,20,300,300,2022_Nov_09_1124,Experiment,2021.1.4,359.7859992981544,
images\blank.jpg,images\blank.jpg,none,none,none,none,0,,619,on,2,0.5,0.75,0.5,0.922,0,618,3,1,1,3,3,48,192,240,,,,,,0,93,93,93,,,,,,,,,,,,,,,,,,,,,,,,,,,,,,,,,,,,,,,,,,,,,,,,,,,,,,,,,891.0536279999997,891.5532339000001,891.5532339000001,892.3030030999998,892.3030030999998,892.8056123999995,892.8056123999995,893.7303473000002,893.7303473000002,893.7303473000002,None,,893.7303473000002,None,miss,0,,896.7294342400003,None,None,896.7294342400003,None,,,,,,,,,,,,,,,,,,,,,,,,,,,,,,,,,,,,,,,,,,,,,,,,,,,,,38,001,0,20,300,300,2022_Nov_09_1124,Experiment,2021.1.4,359.7859992981544,
images\S9_F_S_02.png,images\S9_F_S_02_scrambled.png,9,sad,-20,female,2,,473,on,2,0.5,0.75,0.5,0.932,3,472,4,1,1,2,2,32,128,162,,,,,,0,94,94,94,,,,,,,,,,,,,,,,,,,,,,,,,,,,,,,,,,,,,,,,,,,,,,,,,,,,,,,,,896.8462752999994,897.3458621999998,897.3458621999998,898.0984109999999,898.0984109999999,898.6010397999999,898.6010397999999,899.5370088,899.5370088,None,num_4,0.044550700000399956,899.5370088,896.8462752999994,sad,0,Sad,899.6064707800001,None,None,899.6064707800001,None,,,,,,,,,,,,,,,,,,,,,,,,,,,,,,,,,,,,,,,,,,,,,,,,,,,,,38,001,0,20,300,300,2022_Nov_09_1124,Experiment,2021.1.4,359.7859992981544,
images\S2_M_S_03.png,images\S2_M_S_03_scrambled.png,2,sad,-30,male,1,,492,off,1,0.5,0.75,0.5,0.886,3,491,1,1,1,0,0,0,0,1,,,,,,0,95,95,95,,,,,,,,,,,,,,,,,,,,,,,,,,,,,,,,,,,,,,,,,,,,,,,,,,,,,,,,,899.6590424999995,900.1644644999997,900.1644644999997,900.9171444000003,900.9171444000003,901.4225267000002,901.4225267000002,902.3138073,902.3138073,None,num_4,0.8677497999997286,902.3138073,None,sad,0,Sad,903.2079971199997,None,None,903.2079971199997,None,,,,,,,,,,,,,,,,,,,,,,,,,,,,,,,,,,,,,,,,,,,,,,,,,,,,,38,001,0,20,300,300,2022_Nov_09_1124,Experiment,2021.1.4,359.7859992981544,
images\S4_M_S_02.png,images\S4_M_S_02_scrambled.png,4,sad,-20,male,2,,383,off,1,0.5,0.75,0.5,0.783,3,382,2,1,1,0,0,0,0,2,,,,,,0,96,96,96,,,,,,,,,,,,,,,,,,,,,,,,,,,,,,,,,,,,,,,,,,,,,,,,,,,,,,,,,903.2635896000002,903.7661138000003,903.7661138000003,904.5158653999997,904.5158653999997,905.0185430000001,905.0185430000001,905.8043670999996,905.8043670999996,None,num_4,0.6967944999996689,905.8043670999996,None,sad,0,Sad,906.5152923599998,None,None,906.5152923599998,None,,,,,,,,,,,,,,,,,,,,,,,,,,,,,,,,,,,,,,,,,,,,,,,,,,,,,38,001,0,20,300,300,2022_Nov_09_1124,Experiment,2021.1.4,359.7859992981544,
images\S2_M_H_01.png,images\S2_M_H_01_scrambled.png,2,happy,10,male,4,,67,on,2,0.5,0.75,0.5,0.762,3,66,1,1,1,2,2,32,128,164,,,,,,0,97,97,97,,,,,,,,,,,,,,,,,,,,,,,,,,,,,,,,,,,,,,,,,,,,,,,,,,,,,,,,,906.6235660000002,907.1289862000003,907.1289862000003,907.8842691,907.8842691,908.3870434,908.3870434,909.1533828000001,909.1533828000001,None,num_6,0.3558052999997017,909.1533828000001,None,happy,0,Happy,909.5199366599999,None,None,909.5199366599999,None,,,,,,,,,,,,,,,,,,,,,,,,,,,,,,,,,,,,,,,,,,,,,,,,,,,,,38,001,0,20,300,300,2022_Nov_09_1124,Experiment,2021.1.4,359.7859992981544,
images\S2_M_S_02.png,images\S2_M_S_02_scrambled.png,2,sad,-20,male,2,,311,on,2,0.5,0.75,0.5,0.863,3,310,2,2,1,2,2,32,128,162,,,,,,0,98,98,98,,,,,,,,,,,,,,,,,,,,,,,,,,,,,,,,,,,,,,,,,,,,,,,,,,,,,,,,,909.5671279999997,910.0725444999998,910.0725444999998,910.8222913,910.8222913,911.3277650999999,911.3277650999999,912.1941011999997,912.1941011999997,None,num_4,0.32324229999994714,912.1941011999997,None,sad,0,Sad,912.5273760600002,None,None,912.5273760600002,None,,,,,,,,,,,,,,,,,,,,,,,,,,,,,,,,,,,,,,,,,,,,,,,,,,,,,38,001,0,20,300,300,2022_Nov_09_1124,Experiment,2021.1.4,359.7859992981544,
images\S6_M_S_01.png,images\S6_M_S_01_scrambled.png,6,sad,-10,male,3,,574,on,2,0.5,0.75,0.5,0.943,3,573,3,1,1,2,2,32,128,163,,,,,,0,99,99,99,,,,,,,,,,,,,,,,,,,,,,,,,,,,,,,,,,,,,,,,,,,,,,,,,,,,,,,,,912.5939495000002,913.0993731999997,913.0993731999997,913.8520351999996,913.8520351999996,914.3573955000002,914.3573955000002,915.3042218,915.3042218,None,num_6,0.4612780000006751,915.3042218,None,happy,0,Sad,915.7708106799996,None,None,915.7708106799996,None,,,,,,,,,,,,,,,,,,,,,,,,,,,,,,,,,,,,,,,,,,,,,,,,,,,,,38,001,0,20,300,300,2022_Nov_09_1124,Experiment,2021.1.4,359.7859992981544,
images\S1_F_S_03.png,images\S1_F_S_03_scrambled.png,1,sad,-30,female,1,,126,off,1,0.5,0.75,0.5,0.766,3,125,1,1,1,0,0,0,0,1,,,,,,0,100,100,100,,,,,,,,,,,,,,,,,,,,,,,,,,,,,,,,,,,,,,,,,,,,,,,,,,,,,,,,,915.8262693999995,916.3318094999995,916.3318094999995,917.0842591999999,917.0842591999999,917.5896588999994,917.5896588999994,918.3617515999995,918.3617515999995,None,num_4,0.45176549999996496,918.3617515999995,None,sad,0,Sad,918.8365907200001,None,None,918.8365907200001,None,,,,,,,,,,,,,,,,,,,,,,,,,,,,,,,,,,,,,,,,,,,,,,,,,,,,,38,001,0,20,300,300,2022_Nov_09_1124,Experiment,2021.1.4,359.7859992981544,
images\S9_F_H_02.png,images\S9_F_H_02_scrambled.png,9,happy,20,female,5,,50,off,1,0.5,0.75,0.5,0.945,3,49,2,1,1,0,0,0,0,5,,,,,,0,101,101,101,,,,,,,,,,,,,,,,,,,,,,,,,,,,,,,,,,,,,,,,,,,,,,,,,,,,,,,,,918.8948731999999,919.4002005000002,919.4002005000002,920.1499504000003,920.1499504000003,920.6498033999997,920.6498033999997,921.5967582000003,921.5967582000003,None,num_6,0.3685637999997198,921.5967582000003,None,happy,0,Happy,921.9799715600001,None,None,921.9799715600001,None,,,,,,,,,,,,,,,,,,,,,,,,,,,,,,,,,,,,,,,,,,,,,,,,,,,,,38,001,0,20,300,300,2022_Nov_09_1124,Experiment,2021.1.4,359.7859992981544,
images\S1_F_S_02.png,images\S1_F_S_02_scrambled.png,1,sad,-20,female,2,,125,off,1,0.5,0.75,0.5,0.822,3,124,3,1,1,0,0,0,0,2,,,,,,0,102,102,102,,,,,,,,,,,,,,,,,,,,,,,,,,,,,,,,,,,,,,,,,,,,,,,,,,,,,,,,,922.0272237999998,922.5270000999999,922.5270000999999,923.2795662999997,923.2795662999997,923.7821676000003,923.7821676000003,924.6069098999997,924.6069098999997,None,num_6,0.08627470000010362,924.6069098999997,None,happy,0,Sad,924.7013349800004,None,None,924.7013349800004,None,,,,,,,,,,,,,,,,,,,,,,,,,,,,,,,,,,,,,,,,,,,,,,,,,,,,,38,001,0,20,300,300,2022_Nov_09_1124,Experiment,2021.1.4,359.7859992981544,
images\S6_M_S_01.png,images\S6_M_S_01_scrambled.png,6,sad,-10,male,3,,94,on,2,0.5,0.75,0.5,0.947,3,93,1,1,1,2,2,32,128,163,,,,,,0,103,103,103,,,,,,,,,,,,,,,,,,,,,,,,,,,,,,,,,,,,,,,,,,,,,,,,,,,,,,,,,924.7485368999996,925.2539661999999,925.2539661999999,926.0092728,926.0092728,926.5146794000002,926.5146794000002,927.4643882999999,927.4643882999999,None,num_6,0.0691928000005646,927.4643882999999,None,happy,0,Sad,927.5477892200003,None,None,927.5477892200003,None,,,,,,,,,,,,,,,,,,,,,,,,,,,,,,,,,,,,,,,,,,,,,,,,,,,,,38,001,0,20,300,300,2022_Nov_09_1124,Experiment,2021.1.4,359.7859992981544,
images\S10_M_S_03.png,images\S10_M_S_03_scrambled.png,10,sad,-30,male,1,,600,on,2,0.5,0.75,0.5,0.911,3,599,2,1,1,2,2,32,128,161,,,,,,0,104,104,104,,,,,,,,,,,,,,,,,,,,,,,,,,,,,,,,,,,,,,,,,,,,,,,,,,,,,,,,,927.6087998000003,928.1141873999995,928.1141873999995,928.8639592999998,928.8639592999998,929.3693653999999,929.3693653999999,930.2829886,930.2829886,None,num_4,0.29836749999958556,930.2829886,None,sad,0,Sad,930.5939635599997,None,None,930.5939635599997,None,,,,,,,,,,,,,,,,,,,,,,,,,,,,,,,,,,,,,,,,,,,,,,,,,,,,,38,001,0,20,300,300,2022_Nov_09_1124,Experiment,2021.1.4,359.7859992981544,
images\S2_M_H_02.png,images\S2_M_H_02_scrambled.png,2,happy,20,male,5,,8,off,1,0.5,0.75,0.5,0.782,3,7,1,1,1,0,0,0,0,5,,,,,,0,105,105,105,,,,,,,,,,,,,,,,,,,,,,,,,,,,,,,,,,,,,,,,,,,,,,,,,,,,,,,,,930.6411693999999,931.1438367999999,931.1438367999999,931.8935610999997,931.8935610999997,932.3962259,932.3962259,933.1822043000002,933.1822043000002,None,num_4,0.06368159999965428,933.1822043000002,None,sad,0,Happy,933.2570414199996,None,None,933.2570414199996,None,,,,,,,,,,,,,,,,,,,,,,,,,,,,,,,,,,,,,,,,,,,,,,,,,,,,,38,001,0,20,300,300,2022_Nov_09_1124,Experiment,2021.1.4,359.7859992981544,
images\S5_F_S_02.png,images\S5_F_S_02_scrambled.png,5,sad,-20,female,2,,149,off,1,0.5,0.75,0.5,0.924,3,148,2,1,1,0,0,0,0,2,,,,,,0,106,106,106,,,,,,,,,,,,,,,,,,,,,,,,,,,,,,,,,,,,,,,,,,,,,,,,,,,,,,,,,933.3181238999996,933.8207426999998,933.8207426999998,934.5705558999998,934.5705558999998,935.0731826000001,935.0731826000001,935.9978470999995,935.9978470999995,None,num_4,0.23158209999928658,935.9978470999995,None,sad,0,Sad,936.24787554,None,None,936.24787554,None,,,,,,,,,,,,,,,,,,,,,,,,,,,,,,,,,,,,,,,,,,,,,,,,,,,,,38,001,0,20,300,300,2022_Nov_09_1124,Experiment,2021.1.4,359.7859992981544,
images\S8_M_H_03.png,images\S8_M_H_03_scrambled.png,8,happy,30,male,6,,465,on,2,0.5,0.75,0.5,0.876,3,464,1,1,1,2,2,32,128,166,,,,,,0,107,107,107,,,,,,,,,,,,,,,,,,,,,,,,,,,,,,,,,,,,,,,,,,,,,,,,,,,,,,,,,936.2977548999997,936.8032031000002,936.8032031000002,937.5529254000003,937.5529254000003,938.0527985999997,938.0527985999997,938.9331191000001,938.9331191000001,None,num_6,0.28837750000002416,938.9331191000001,None,happy,0,Happy,939.2357344600003,None,None,939.2357344600003,None,,,,,,,,,,,,,,,,,,,,,,,,,,,,,,,,,,,,,,,,,,,,,,,,,,,,,38,001,0,20,300,300,2022_Nov_09_1124,Experiment,2021.1.4,359.7859992981544,
images\S7_F_S_03.png,images\S7_F_S_03_scrambled.png,7,sad,-30,female,1,,162,off,1,0.5,0.75,0.5,0.813,3,161,1,1,1,0,0,0,0,1,,,,,,0,108,108,108,,,,,,,,,,,,,,,,,,,,,,,,,,,,,,,,,,,,,,,,,,,,,,,,,,,,,,,,,939.2829578000001,939.7828139000003,939.7828139000003,940.5381790000001,940.5381790000001,941.0435615999995,941.0435615999995,941.8599641000001,941.8599641000001,None,num_4,0.32955929999934597,941.8599641000001,None,sad,0,Sad,942.2042686599997,None,None,942.2042686599997,None,,,,,,,,,,,,,,,,,,,,,,,,,,,,,,,,,,,,,,,,,,,,,,,,,,,,,38,001,0,20,300,300,2022_Nov_09_1124,Experiment,2021.1.4,359.7859992981544,
images\S4_M_H_02.png,images\S4_M_H_02_scrambled.png,4,happy,20,male,5,,20,off,1,0.5,0.75,0.5,0.756,3,19,2,1,1,0,0,0,0,5,,,,,,0,109,109,109,,,,,,,,,,,,,,,,,,,,,,,,,,,,,,,,,,,,,,,,,,,,,,,,,,,,,,,,,942.2875881,942.7874259,942.7874259,943.5428217999997,943.5428217999997,944.0482093,944.0482093,944.8090584000001,944.8090584000001,None,num_4,0.3404547999998613,944.8090584000001,None,sad,0,Happy,945.1589971199998,None,None,945.1589971199998,None,,,,,,,,,,,,,,,,,,,,,,,,,,,,,,,,,,,,,,,,,,,,,,,,,,,,,38,001,0,20,300,300,2022_Nov_09_1124,Experiment,2021.1.4,359.7859992981544,
images\S3_F_S_02.png,images\S3_F_S_02_scrambled.png,3,sad,-20,female,2,,197,on,2,0.5,0.75,0.5,0.913,3,196,1,1,1,2,2,32,128,162,,,,,,0,110,110,110,,,,,,,,,,,,,,,,,,,,,,,,,,,,,,,,,,,,,,,,,,,,,,,,,,,,,,,,,945.2200114999996,945.7226866999999,945.7226866999999,946.478016,946.478016,946.9806288999998,946.9806288999998,947.8969648000002,947.8969648000002,None,num_4,0.6923923000003924,947.8969648000002,None,sad,0,Sad,948.6190064000002,None,None,948.6190064000002,None,,,,,,,,,,,,,,,,,,,,,,,,,,,,,,,,,,,,,,,,,,,,,,,,,,,,,38,001,0,20,300,300,2022_Nov_09_1124,Experiment,2021.1.4,359.7859992981544,
images\S3_F_H_02.png,images\S3_F_H_02_scrambled.png,3,happy,20,female,5,,374,off,1,0.5,0.75,0.5,0.877,3,373,1,2,1,0,0,0,0,5,,,,,,0,111,111,111,,,,,,,,,,,,,,,,,,,,,,,,,,,,,,,,,,,,,,,,,,,,,,,,,,,,,,,,,948.6745112999997,949.1799222999998,949.1799222999998,949.9326075999998,949.9326075999998,950.4323155000002,950.4323155000002,951.3126593999996,951.3126593999996,None,num_4,0.30061010000008537,951.3126593999996,None,sad,0,Happy,951.6208411800003,None,None,951.6208411800003,None,,,,,,,,,,,,,,,,,,,,,,,,,,,,,,,,,,,,,,,,,,,,,,,,,,,,,38,001,0,20,300,300,2022_Nov_09_1124,Experiment,2021.1.4,359.7859992981544,
images\S2_M_H_01.png,images\S2_M_H_01_scrambled.png,2,happy,10,male,4,,7,off,1,0.5,0.75,0.5,0.916,3,6,2,1,1,0,0,0,0,4,,,,,,0,112,112,112,,,,,,,,,,,,,,,,,,,,,,,,,,,,,,,,,,,,,,,,,,,,,,,,,,,,,,,,,951.6708069999995,952.1734678000003,952.1734678000003,952.9259721999997,952.9259721999997,953.4286382,953.4286382,954.3478138999999,954.3478138999999,None,num_6,0.6415232000008473,954.3478138999999,None,happy,0,Happy,955.0031344600001,None,None,955.0031344600001,None,,,,,,,,,,,,,,,,,,,,,,,,,,,,,,,,,,,,,,,,,,,,,,,,,,,,,38,001,0,20,300,300,2022_Nov_09_1124,Experiment,2021.1.4,359.7859992981544,
images\S4_M_H_02.png,images\S4_M_H_02_scrambled.png,4,happy,20,male,5,,380,off,1,0.5,0.75,0.5,0.862,3,379,3,1,1,0,0,0,0,5,,,,,,0,113,113,113,,,,,,,,,,,,,,,,,,,,,,,,,,,,,,,,,,,,,,,,,,,,,,,,,,,,,,,,,955.0503234999996,955.5501790999997,955.5501790999997,956.3027335999996,956.3027335999996,956.8081638000003,956.8081638000003,957.6717303999994,957.6717303999994,None,num_6,0.06209690000014234,957.6717303999994,None,happy,0,Happy,957.7495086600001,None,None,957.7495086600001,None,,,,,,,,,,,,,,,,,,,,,,,,,,,,,,,,,,,,,,,,,,,,,,,,,,,,,38,001,0,20,300,300,2022_Nov_09_1124,Experiment,2021.1.4,359.7859992981544,
images\blank.jpg,images\blank.jpg,none,none,none,none,0,,609,on,2,0.5,0.75,0.5,0.786,0,608,1,1,1,3,3,48,192,240,,,,,,0,114,114,114,,,,,,,,,,,,,,,,,,,,,,,,,,,,,,,,,,,,,,,,,,,,,,,,,,,,,,,,,957.8357872999995,958.3381890999999,958.3381890999999,959.0879729999997,959.0879729999997,959.5878087000001,959.5878087000001,960.3766116999996,960.3766116999996,960.3766116999996,None,,960.3766116999996,None,miss,0,,963.3783974800003,None,None,963.3783974800003,None,,,,,,,,,,,,,,,,,,,,,,,,,,,,,,,,,,,,,,,,,,,,,,,,,,,,,38,001,0,20,300,300,2022_Nov_09_1124,Experiment,2021.1.4,359.7859992981544,
images\S3_F_H_01.png,images\S3_F_H_01_scrambled.png,3,happy,10,female,4,,13,off,1,0.5,0.75,0.5,0.759,3,12,1,1,1,0,0,0,0,4,,,,,,0,115,115,115,,,,,,,,,,,,,,,,,,,,,,,,,,,,,,,,,,,,,,,,,,,,,,,,,,,,,,,,,963.5007950999998,964.0031618000003,964.0031618000003,964.7556702000002,964.7556702000002,965.2582886999999,965.2582886999999,966.0191616000002,966.0191616000002,None,num_4,0.3142980999991778,966.0191616000002,963.5007950999998,sad,0,Happy,966.3412710799998,None,None,966.3412710799998,None,,,,,,,,,,,,,,,,,,,,,,,,,,,,,,,,,,,,,,,,,,,,,,,,,,,,,38,001,0,20,300,300,2022_Nov_09_1124,Experiment,2021.1.4,359.7859992981544,
images\S1_F_S_03.png,images\S1_F_S_03_scrambled.png,1,sad,-30,female,1,,486,off,1,0.5,0.75,0.5,0.875,3,485,2,1,1,0,0,0,0,1,,,,,,0,116,116,116,,,,,,,,,,,,,,,,,,,,,,,,,,,,,,,,,,,,,,,,,,,,,,,,,,,,,,,,,966.3884996999996,966.8939224999995,966.8939224999995,967.6492455999996,967.6492455999996,968.1519732999996,968.1519732999996,969.0293678999997,969.0293678999997,None,num_6,0.12810420000005251,969.0293678999997,None,happy,0,Sad,969.1682416799999,None,None,969.1682416799999,None,,,,,,,,,,,,,,,,,,,,,,,,,,,,,,,,,,,,,,,,,,,,,,,,,,,,,38,001,0,20,300,300,2022_Nov_09_1124,Experiment,2021.1.4,359.7859992981544,
images\S1_F_S_03.png,images\S1_F_S_03_scrambled.png,1,sad,-30,female,1,,6,off,1,0.5,0.75,0.5,0.871,3,5,3,2,2,0,0,0,0,1,,,,,,0,117,117,117,,,,,,,,,,,,,,,,,,,,,,,,,,,,,,,,,,,,,,,,,,,,,,,,,,,,,,,,,969.2238227999997,969.7291636,969.7291636,970.4818335,970.4818335,970.9872414000001,970.9872414000001,971.8646066000001,971.8646066000001,None,num_4,0.3006438000002163,971.8646066000001,None,sad,0,Sad,972.1756409600001,None,None,972.1756409600001,None,,,,,,,,,,,,,,,,,,,,,,,,,,,,,,,,,,,,,,,,,,,,,,,,,,,,,38,001,0,20,300,300,2022_Nov_09_1124,Experiment,2021.1.4,359.7859992981544,
images\S7_F_S_03.png,images\S7_F_S_03_scrambled.png,7,sad,-30,female,1,,42,off,1,0.5,0.75,0.5,0.789,3,41,4,1,3,0,0,0,0,1,,,,,,0,118,118,118,,,,,,,,,,,,,,,,,,,,,,,,,,,,,,,,,,,,,,,,,,,,,,,,,,,,,,,,,972.2228131000002,972.7282476,972.7282476,973.4835768000003,973.4835768000003,973.9834181999995,973.9834181999995,974.7776567000001,974.7776567000001,None,num_4,0.49993199999971694,974.7776567000001,None,sad,0,Sad,975.2913397600004,None,None,975.2913397600004,None,,,,,,,,,,,,,,,,,,,,,,,,,,,,,,,,,,,,,,,,,,,,,,,,,,,,,38,001,0,20,300,300,2022_Nov_09_1124,Experiment,2021.1.4,359.7859992981544,
images\S10_M_H_02.png,images\S10_M_H_02_scrambled.png,10,happy,20,male,5,,356,on,2,0.5,0.75,0.5,0.855,3,355,1,1,1,2,2,32,128,165,,,,,,0,119,119,119,,,,,,,,,,,,,,,,,,,,,,,,,,,,,,,,,,,,,,,,,,,,,,,,,,,,,,,,,975.3385209999997,975.8383637999996,975.8383637999996,976.5937212999997,976.5937212999997,977.0991191000003,977.0991191000003,977.9599450999995,977.9599450999995,None,num_6,0.3497793000005913,977.9599450999995,None,happy,0,Happy,978.3237069599999,None,None,978.3237069599999,None,,,,,,,,,,,,,,,,,,,,,,,,,,,,,,,,,,,,,,,,,,,,,,,,,,,,,38,001,0,20,300,300,2022_Nov_09_1124,Experiment,2021.1.4,359.7859992981544,
images\S4_M_S_01.png,images\S4_M_S_01_scrambled.png,4,sad,-10,male,3,,502,off,1,0.5,0.75,0.5,0.854,3,501,1,1,1,0,0,0,0,3,,,,,,0,120,120,120,,,,,,,,,,,,,,,,,,,,,,,,,,,,,,,,,,,,,,,,,,,,,,,,,,,,,,,,,978.4377167000002,978.9402037,978.9402037,979.6927316000001,979.6927316000001,980.1981913,980.1981913,981.0562418,981.0562418,None,num_4,0.35723090000010416,981.0562418,None,sad,0,Sad,981.4283364600004,None,None,981.4283364600004,None,,,,,,,,,,,,,,,,,,,,,,,,,,,,,,,,,,,,,,,,,,,,,,,,,,,,,38,001,0,20,300,300,2022_Nov_09_1124,Experiment,2021.1.4,359.7859992981544,
images\S10_M_S_02.png,images\S10_M_S_02_scrambled.png,10,sad,-20,male,2,,599,on,2,0.5,0.75,0.5,0.822,3,598,1,1,1,2,2,32,128,162,,,,,,0,121,121,121,,,,,,,,,,,,,,,,,,,,,,,,,,,,,,,,,,,,,,,,,,,,,,,,,,,,,,,,,981.5144012999999,982.0197908999999,982.0197908999999,982.7695585000001,982.7695585000001,983.2721811000001,983.2721811000001,984.0969722,984.0969722,None,num_6,0.3403779000000213,984.0969722,None,happy,0,Sad,984.4468557799996,None,None,984.4468557799996,None,,,,,,,,,,,,,,,,,,,,,,,,,,,,,,,,,,,,,,,,,,,,,,,,,,,,,38,001,0,20,300,300,2022_Nov_09_1124,Experiment,2021.1.4,359.7859992981544,
images\S8_M_H_02.png,images\S8_M_H_02_scrambled.png,8,happy,20,male,5,,104,on,2,0.5,0.75,0.5,0.949,3,103,2,1,1,2,2,32,128,165,,,,,,0,122,122,122,,,,,,,,,,,,,,,,,,,,,,,,,,,,,,,,,,,,,,,,,,,,,,,,,,,,,,,,,984.4940397,984.9938715999997,984.9938715999997,985.7492095999996,985.7492095999996,986.2546452999995,986.2546452999995,987.2071291000002,987.2071291000002,None,num_6,0.038398099999540136,987.2071291000002,None,happy,0,Happy,987.2738362200004,None,None,987.2738362200004,None,,,,,,,,,,,,,,,,,,,,,,,,,,,,,,,,,,,,,,,,,,,,,,,,,,,,,38,001,0,20,300,300,2022_Nov_09_1124,Experiment,2021.1.4,359.7859992981544,
images\S4_M_H_03.png,images\S4_M_H_03_scrambled.png,4,happy,30,male,6,,501,off,1,0.5,0.75,0.5,0.948,3,500,1,1,1,0,0,0,0,6,,,,,,0,123,123,123,,,,,,,,,,,,,,,,,,,,,,,,,,,,,,,,,,,,,,,,,,,,,,,,,,,,,,,,,987.3319876999994,987.8347113999998,987.8347113999998,988.5900118,988.5900118,989.0954114999995,989.0954114999995,990.0480349999998,990.0480349999998,None,num_6,0.31737169999996695,990.0480349999998,None,happy,0,Happy,990.3811390600002,None,None,990.3811390600002,None,,,,,,,,,,,,,,,,,,,,,,,,,,,,,,,,,,,,,,,,,,,,,,,,,,,,,38,001,0,20,300,300,2022_Nov_09_1124,Experiment,2021.1.4,359.7859992981544,
images\S6_M_H_02.png,images\S6_M_H_02_scrambled.png,6,happy,20,male,5,,452,on,2,0.5,0.75,0.5,0.923,3,451,1,1,1,2,2,32,128,165,,,,,,0,124,124,124,,,,,,,,,,,,,,,,,,,,,,,,,,,,,,,,,,,,,,,,,,,,,,,,,,,,,,,,,990.4283177999996,990.9337998000001,990.9337998000001,991.6834793999997,991.6834793999997,992.1889295000001,992.1889295000001,993.1192123999999,993.1192123999999,None,num_6,0.3982685000000856,993.1192123999999,None,happy,0,Happy,993.5497039000002,None,None,993.5497039000002,None,,,,,,,,,,,,,,,,,,,,,,,,,,,,,,,,,,,,,,,,,,,,,,,,,,,,,38,001,0,20,300,300,2022_Nov_09_1124,Experiment,2021.1.4,359.7859992981544,
images\blank.jpg,images\blank.jpg,none,none,none,none,0,,614,on,2,0.5,0.75,0.5,0.881,0,613,2,1,1,3,3,48,192,240,,,,,,0,125,125,125,,,,,,,,,,,,,,,,,,,,,,,,,,,,,,,,,,,,,,,,,,,,,,,,,,,,,,,,,993.6497203999998,994.1521642999996,994.1521642999996,994.9019433000003,994.9019433000003,995.4046014999994,995.4046014999994,996.2877520000002,996.2877520000002,996.2877520000002,None,,996.2877520000002,None,miss,0,,999.29228704,None,None,999.29228704,None,,,,,,,,,,,,,,,,,,,,,,,,,,,,,,,,,,,,,,,,,,,,,,,,,,,,,38,001,0,20,300,300,2022_Nov_09_1124,Experiment,2021.1.4,359.7859992981544,
images\S5_F_H_02.png,images\S5_F_H_02_scrambled.png,5,happy,20,female,5,,506,off,1,0.5,0.75,0.5,0.899,3,505,1,1,1,0,0,0,0,5,,,,,,0,126,126,126,,,,,,,,,,,,,,,,,,,,,,,,,,,,,,,,,,,,,,,,,,,,,,,,,,,,,,,,,999.4091468999995,999.9143039,999.9143039,1000.6668559999998,1000.6668559999998,1001.1722877000002,1001.1722877000002,1002.0747302999998,1002.0747302999998,None,num_6,0.31462310000006255,1002.0747302999998,999.4091468999995,happy,0,Happy,1002.4080238999995,None,None,1002.4080238999995,None,,,,,,,,,,,,,,,,,,,,,,,,,,,,,,,,,,,,,,,,,,,,,,,,,,,,,38,001,0,20,300,300,2022_Nov_09_1124,Experiment,2021.1.4,359.7859992981544,
images\S9_F_H_03.png,images\S9_F_H_03_scrambled.png,9,happy,30,female,6,,411,off,1,0.5,0.75,0.5,0.891,3,410,2,1,1,0,0,0,0,6,,,,,,0,127,127,127,,,,,,,,,,,,,,,,,,,,,,,,,,,,,,,,,,,,,,,,,,,,,,,,,,,,,,,,,1002.4580483,1002.9633837000001,1002.9633837000001,1003.7158895000002,1003.7158895000002,1004.2185561999995,1004.2185561999995,1005.1099152999996,1005.1099152999996,None,num_6,0.3912133999992875,1005.1099152999996,None,happy,0,Happy,1005.5153349600004,None,None,1005.5153349600004,None,,,,,,,,,,,,,,,,,,,,,,,,,,,,,,,,,,,,,,,,,,,,,,,,,,,,,38,001,0,20,300,300,2022_Nov_09_1124,Experiment,2021.1.4,359.7859992981544,
images\S8_M_S_02.png,images\S8_M_S_02_scrambled.png,8,sad,-20,male,2,,287,off,1,0.5,0.75,0.5,0.854,3,286,3,1,1,0,0,0,0,2,,,,,,0,128,128,128,,,,,,,,,,,,,,,,,,,,,,,,,,,,,,,,,,,,,,,,,,,,,,,,,,,,,,,,,1005.5625491000001,1006.0624062999996,1006.0624062999996,1006.8177918000001,1006.8177918000001,1007.3231569,1007.3231569,1008.1839939000001,1008.1839939000001,None,num_4,0.9733882999998968,1008.1839939000001,None,sad,0,Sad,1009.1725409600002,None,None,1009.1725409600002,None,,,,,,,,,,,,,,,,,,,,,,,,,,,,,,,,,,,,,,,,,,,,,,,,,,,,,38,001,0,20,300,300,2022_Nov_09_1124,Experiment,2021.1.4,359.7859992981544,
images\S4_M_H_01.png,images\S4_M_H_01_scrambled.png,4,happy,10,male,4,,79,on,2,0.5,0.75,0.5,0.943,3,78,1,1,1,2,2,32,128,164,,,,,,0,129,129,129,,,,,,,,,,,,,,,,,,,,,,,,,,,,,,,,,,,,,,,,,,,,,,,,,,,,,,,,,1009.2225342000002,1009.7251911000003,1009.7251911000003,1010.4749173999999,1010.4749173999999,1010.9803666999996,1010.9803666999996,1011.9300197000002,1011.9300197000002,None,num_4,0.3631703999999445,1011.9300197000002,None,sad,0,Happy,1012.2994671800002,None,None,1012.2994671800002,None,,,,,,,,,,,,,,,,,,,,,,,,,,,,,,,,,,,,,,,,,,,,,,,,,,,,,38,001,0,20,300,300,2022_Nov_09_1124,Experiment,2021.1.4,359.7859992981544,
images\S8_M_S_02.png,images\S8_M_S_02_scrambled.png,8,sad,-20,male,2,,107,on,2,0.5,0.75,0.5,0.934,3,106,2,1,1,2,2,32,128,162,,,,,,0,130,130,130,,,,,,,,,,,,,,,,,,,,,,,,,,,,,,,,,,,,,,,,,,,,,,,,,,,,,,,,,1012.3465602999995,1012.8491869,1012.8491869,1013.6045981999996,1013.6045981999996,1014.1071506999997,1014.1071506999997,1015.0457525000002,1015.0457525000002,None,num_4,0.39958039999964967,1015.0457525000002,None,sad,0,Sad,1015.4622767999999,None,space,1015.4622767999999,None,145.6784050999995,,,,,,,,,,,,,,,,,,,,,,,,,,,,,,,,,,,,,,,,,,,,,,,,,,,,38,001,0,20,300,300,2022_Nov_09_1124,Experiment,2021.1.4,359.7859992981544,
images\S2_M_H_01.png,images\S2_M_H_01_scrambled.png,2,happy,10,male,4,,427,on,2,0.5,0.75,0.5,0.774,3,426,3,1,1,2,2,32,128,164,,,,,,0,131,131,131,,,,,,,,,,,,,,,,,,,,,,,,,,,,,,,,,,,,,,,,,,,,,,,,,,,,,,,,,1161.1951886999996,1161.6978344999998,1161.6978344999998,1162.4531446,1162.4531446,1162.9558879999995,1162.9558879999995,1163.7305065,1163.7305065,None,num_6,0.32249680000040826,1163.7305065,None,happy,0,Happy,1164.0664897599997,None,None,1164.0664897599997,None,,,,,,,,,,,,,,,,,,,,,,,,,,,,,,,,,,,,,,,,,,,,,,,,,,,,,38,001,0,20,300,300,2022_Nov_09_1124,Experiment,2021.1.4,359.7859992981544,
images\S10_M_S_02.png,images\S10_M_S_02_scrambled.png,10,sad,-20,male,2,,419,off,1,0.5,0.75,0.5,0.885,3,418,1,1,1,0,0,0,0,2,,,,,,0,132,132,132,,,,,,,,,,,,,,,,,,,,,,,,,,,,,,,,,,,,,,,,,,,,,,,,,,,,,,,,,1164.1359452999995,1164.638583,1164.638583,1165.3911274000002,1165.3911274000002,1165.8966001999997,1165.8966001999997,1166.7879231999996,1166.7879231999996,None,num_6,0.24951680000049237,1166.7879231999996,None,happy,0,Sad,1167.0462429200004,None,None,1167.0462429200004,None,,,,,,,,,,,,,,,,,,,,,,,,,,,,,,,,,,,,,,,,,,,,,,,,,,,,,38,001,0,20,300,300,2022_Nov_09_1124,Experiment,2021.1.4,359.7859992981544,
images\S6_M_S_03.png,images\S6_M_S_03_scrambled.png,6,sad,-30,male,1,,396,off,1,0.5,0.75,0.5,0.866,3,395,2,1,1,0,0,0,0,1,,,,,,0,133,133,133,,,,,,,,,,,,,,,,,,,,,,,,,,,,,,,,,,,,,,,,,,,,,,,,,,,,,,,,,1167.1072478999995,1167.6098802999995,1167.6098802999995,1168.3596458000002,1168.3596458000002,1168.8623003000002,1168.8623003000002,1169.7315526000002,1169.7315526000002,None,num_4,0.2576345000006768,1169.7315526000002,None,sad,0,Sad,1170.0036142,None,None,1170.0036142,None,,,,,,,,,,,,,,,,,,,,,,,,,,,,,,,,,,,,,,,,,,,,,,,,,,,,,38,001,0,20,300,300,2022_Nov_09_1124,Experiment,2021.1.4,359.7859992981544,
images\S5_F_S_01.png,images\S5_F_S_01_scrambled.png,5,sad,-10,female,3,,148,off,1,0.5,0.75,0.5,0.823,3,147,3,1,1,0,0,0,0,3,,,,,,0,134,134,134,,,,,,,,,,,,,,,,,,,,,,,,,,,,,,,,,,,,,,,,,,,,,,,,,,,,,,,,,1170.0535609999997,1170.5563242999997,1170.5563242999997,1171.3059839999996,1171.3059839999996,1171.8114530000003,1171.8114530000003,1172.6417362000002,1172.6417362000002,None,num_6,0.18797080000058486,1172.6417362000002,None,happy,0,Sad,1172.8416711200005,None,None,1172.8416711200005,None,,,,,,,,,,,,,,,,,,,,,,,,,,,,,,,,,,,,,,,,,,,,,,,,,,,,,38,001,0,20,300,300,2022_Nov_09_1124,Experiment,2021.1.4,359.7859992981544,
images\S9_F_S_03.png,images\S9_F_S_03_scrambled.png,9,sad,-30,female,1,,294,off,1,0.5,0.75,0.5,0.85,3,293,4,1,1,0,0,0,0,1,,,,,,0,135,135,135,,,,,,,,,,,,,,,,,,,,,,,,,,,,,,,,,,,,,,,,,,,,,,,,,,,,,,,,,1172.9026850999999,1173.4054722,1173.4054722,1174.1550801000003,1174.1550801000003,1174.6549212999998,1174.6549212999998,1175.5074814,1175.5074814,None,num_4,0.37006990000008955,1175.5074814,None,sad,0,Sad,1175.8991227400004,None,None,1175.8991227400004,None,,,,,,,,,,,,,,,,,,,,,,,,,,,,,,,,,,,,,,,,,,,,,,,,,,,,,38,001,0,20,300,300,2022_Nov_09_1124,Experiment,2021.1.4,359.7859992981544,
images\blank.jpg,images\blank.jpg,none,none,none,none,0,,647,on,2,0.5,0.75,0.5,0.796,0,646,1,1,1,3,3,48,192,240,,,,,,0,136,136,136,,,,,,,,,,,,,,,,,,,,,,,,,,,,,,,,,,,,,,,,,,,,,,,,,,,,,,,,,1175.9880566000002,1176.4876933999994,1176.4876933999994,1177.2430429999995,1177.2430429999995,1177.7457617999999,1177.7457617999999,1178.5454216999997,1178.5454216999997,1178.5454216999997,None,,1178.5454216999997,None,miss,0,,1181.54726754,None,None,1181.54726754,None,,,,,,,,,,,,,,,,,,,,,,,,,,,,,,,,,,,,,,,,,,,,,,,,,,,,,38,001,0,20,300,300,2022_Nov_09_1124,Experiment,2021.1.4,359.7859992981544,
images\S7_F_H_02.png,images\S7_F_H_02_scrambled.png,7,happy,20,female,5,,158,off,1,0.5,0.75,0.5,0.886,3,157,1,1,1,0,0,0,0,5,,,,,,0,137,137,137,,,,,,,,,,,,,,,,,,,,,,,,,,,,,,,,,,,,,,,,,,,,,,,,,,,,,,,,,1181.6613637,1182.1637362000001,1182.1637362000001,1182.9134886000002,1182.9134886000002,1183.4161272000001,1183.4161272000001,1184.3075524999995,1184.3075524999995,None,num_6,0.3297175999996398,1184.3075524999995,1181.6613637,happy,0,Happy,1184.65466026,None,None,1184.65466026,None,,,,,,,,,,,,,,,,,,,,,,,,,,,,,,,,,,,,,,,,,,,,,,,,,,,,,38,001,0,20,300,300,2022_Nov_09_1124,Experiment,2021.1.4,359.7859992981544,
images\S10_M_H_02.png,images\S10_M_H_02_scrambled.png,10,happy,20,male,5,,416,off,1,0.5,0.75,0.5,0.827,3,415,2,1,2,0,0,0,0,5,,,,,,0,138,138,138,,,,,,,,,,,,,,,,,,,,,,,,,,,,,,,,,,,,,,,,,,,,,,,,,,,,,,,,,1184.7018314999996,1185.2044608999995,1185.2044608999995,1185.9570080000003,1185.9570080000003,1186.4596273999996,1186.4596273999996,1187.2927275000002,1187.2927275000002,None,num_6,0.2723931000000448,1187.2927275000002,None,happy,0,Happy,1187.5759542599997,None,None,1187.5759542599997,None,,,,,,,,,,,,,,,,,,,,,,,,,,,,,,,,,,,,,,,,,,,,,,,,,,,,,38,001,0,20,300,300,2022_Nov_09_1124,Experiment,2021.1.4,359.7859992981544,
images\S4_M_S_02.png,images\S4_M_S_02_scrambled.png,4,sad,-20,male,2,,143,off,1,0.5,0.75,0.5,0.898,3,142,3,1,1,0,0,0,0,2,,,,,,0,139,139,139,,,,,,,,,,,,,,,,,,,,,,,,,,,,,,,,,,,,,,,,,,,,,,,,,,,,,,,,,1187.6231532000002,1188.1257735,1188.1257735,1188.8811595999996,1188.8811595999996,1189.3837179000002,1189.3837179000002,1190.2863459999999,1190.2863459999999,None,num_4,0.43104570000014064,1190.2863459999999,None,sad,0,Sad,1190.7333348600002,None,None,1190.7333348600002,None,,,,,,,,,,,,,,,,,,,,,,,,,,,,,,,,,,,,,,,,,,,,,,,,,,,,,38,001,0,20,300,300,2022_Nov_09_1124,Experiment,2021.1.4,359.7859992981544,
images\S3_F_S_01.png,images\S3_F_S_01_scrambled.png,3,sad,-10,female,3,,256,off,1,0.5,0.75,0.5,0.909,3,255,4,1,1,0,0,0,0,3,,,,,,0,140,140,140,,,,,,,,,,,,,,,,,,,,,,,,,,,,,,,,,,,,,,,,,,,,,,,,,,,,,,,,,1190.8166161999998,1191.3164748,1191.3164748,1192.0718287,1192.0718287,1192.5716519999996,1192.5716519999996,1193.4824876000002,1193.4824876000002,None,num_4,0.6427434000006542,1193.4824876000002,None,sad,0,Sad,1194.1490619400004,None,None,1194.1490619400004,None,,,,,,,,,,,,,,,,,,,,,,,,,,,,,,,,,,,,,,,,,,,,,,,,,,,,,38,001,0,20,300,300,2022_Nov_09_1124,Experiment,2021.1.4,359.7859992981544,
images\S7_F_S_02.png,images\S7_F_S_02_scrambled.png,7,sad,-20,female,2,,101,on,2,0.5,0.75,0.5,0.775,3,100,1,1,1,2,2,32,128,162,,,,,,0,141,141,141,,,,,,,,,,,,,,,,,,,,,,,,,,,,,,,,,,,,,,,,,,,,,,,,,,,,,,,,,1194.2016837,1194.7071225,1194.7071225,1195.4568609999997,1195.4568609999997,1195.9622942999995,1195.9622942999995,1196.7397965999999,1196.7397965999999,None,num_4,0.4424539999999979,1196.7397965999999,None,sad,0,Sad,1197.20657896,None,None,1197.20657896,None,,,,,,,,,,,,,,,,,,,,,,,,,,,,,,,,,,,,,,,,,,,,,,,,,,,,,38,001,0,20,300,300,2022_Nov_09_1124,Experiment,2021.1.4,359.7859992981544,
