image_face,image_scram,avatar,emo,emotion,sex,trigeeg,dac,trial_no,NMES,stimtime,baseline,iti,face,scr_face,resp_time,index,count_NMES,count_avatar,count_emotion,dac1,dac2,dac1_output,dac2_output,trigs_out,nmes,practice_trials.thisRepN,practice_trials.thisTrialN,practice_trials.thisN,practice_trials.thisIndex,real_trials.thisRepN,real_trials.thisTrialN,real_trials.thisN,real_trials.thisIndex,trials.thisRepN,trials.thisTrialN,trials.thisN,trials.thisIndex,position,Welcome.started,Welcome.stopped,Welcome_resp.keys,Welcome_resp.rt,text_2.started,text_2.stopped,form_2.index,form_2.itemText,form_2.type,form_2.response,form_2.rt,key_resp_4.keys,key_resp_4.rt,key_resp_4.started,key_resp_4.stopped,instructions.started,instructions.stopped,end_instr.keys,end_instr.rt,instructions_2.started,instructions_2.stopped,end_instr_2.keys,end_instr_2.rt,end_instr_2.started,end_instr_2.stopped,instruct_keypress.started,instruct_keypress.stopped,end_instruct_keypress.keys,end_instruct_keypress.rt,start_practice.started,start_practice.stopped,start_practice_resp.keys,start_practice_resp.rt,prac_baseline.started,prac_baseline.stopped,prac_iti.started,prac_iti.stopped,prac_stimulus.started,prac_stimulus.stopped,prac_scram_stim.started,prac_scram_stim.stopped,prac_stimulus_resp.started,prac_stimulus_resp.stopped,prac_resp.keys,prac_resp.started,prac_resp.stopped,prac_resp.rt,transition_to_real.started,transition_to_real.stopped,end_transition_to_real.keys,end_transition_to_real.rt,fixation_cross.started,fixation_cross.stopped,tr_iti.started,tr_iti.stopped,stimulus.started,stimulus.stopped,scram_stim.started,scram_stim.stopped,response_txt.started,response_txt.stopped,response.keys,response.rt,response.started,response.stopped,participant_Resp,grouping,corAnswer,break_msg.started,break_msg.stopped,end_break.keys,end_break.started,end_break.stopped,end_break.rt,text.started,text.stopped,key_resp_3.keys,key_resp_3.rt,key_resp_3.started,key_resp_3.stopped,fix_cross_comf.started,fix_cross_comf.stopped,stimulation_comf.started,stimulation_comf.stopped,rate_instr.started,rate_instr.stopped,comfort_rating.response,comfort_rating.rt,comfort_rating.started,comfort_rating.stopped,resp_form.keys,resp_form.rt,resp_form.started,resp_form.stopped,survey_instructions.started,survey_instructions.stopped,key_resp_2.keys,key_resp_2.rt,key_resp_2.started,key_resp_2.stopped,form.index,form.itemText,form.type,form.response,form.rt,key_resp.keys,key_resp.rt,key_resp.started,key_resp.stopped,text_3.started,text_3.stopped,rate_smile.response,rate_smile.rt,rate_smile.started,rate_smile.stopped,key_resp_5.keys,key_resp_5.rt,key_resp_5.started,key_resp_5.stopped,end_msg.started,end_msg.stopped,end_resp.keys,end_resp.rt,end_resp.started,end_resp.stopped,participant,session,gender,age,LEFT,RIGHT,date,expName,psychopyVersion,frameRate,
,,,,,,,,,,,,,,,,,,,,,,,,,,,,,,,,,,,,,,H-S,39.85815400000138,None,num_add,4.3238609,,,,,,,,,,,,,,,,,,,,,,,,,,,,,,,,,,,,,,,,,,,,,,,,,,,,,,,,,,,,,,,,,,,,,,,,,,,,,,,,,,,,,,,,,,,,,,,,,,,,,,,,,,,,,,,,,,,,,,,,,,39,001,1,21,650,700,2022_Nov_09_1344,Experiment,2021.1.4,360.23314289876737,
,,,,,,,,,,,,,,,,,,,,,,,,,,,,,,,,,,,,,,,,,,,44.19179009999971,46.23281990000032,1,"This scale consistes of a number of words that describe different feelings and emotion. Read each item and then list the number from the scale below each word. Indicate (by clicking) to what extend you feel this way RIGHT NOW, that is, AT THE PRESENT MOMENT.",description,,,,,,,,,,,,,,,,,,,,,,,,,,,,,,,,,,,,,,,,,,,,,,,,,,,,,,,,,,,,,,,,,,,,,,,,,,,,,,,,,,,,,,,,,,,,,,,,,,,,,,,,,,,,,,,,,,,,,39,001,1,21,650,700,2022_Nov_09_1344,Experiment,2021.1.4,360.23314289876737,
,,,,,,,,,,,,,,,,,,,,,,,,,,,,,,,,,,,,,,,,,,,,,2,Interested,rating,4.0,10.312657899999977,,,,,,,,,,,,,,,,,,,,,,,,,,,,,,,,,,,,,,,,,,,,,,,,,,,,,,,,,,,,,,,,,,,,,,,,,,,,,,,,,,,,,,,,,,,,,,,,,,,,,,,,,,,,,,,,,,,39,001,1,21,650,700,2022_Nov_09_1344,Experiment,2021.1.4,360.23314289876737,
,,,,,,,,,,,,,,,,,,,,,,,,,,,,,,,,,,,,,,,,,,,,,3,Distressed,rating,2.0,14.278095799998482,,,,,,,,,,,,,,,,,,,,,,,,,,,,,,,,,,,,,,,,,,,,,,,,,,,,,,,,,,,,,,,,,,,,,,,,,,,,,,,,,,,,,,,,,,,,,,,,,,,,,,,,,,,,,,,,,,,39,001,1,21,650,700,2022_Nov_09_1344,Experiment,2021.1.4,360.23314289876737,
,,,,,,,,,,,,,,,,,,,,,,,,,,,,,,,,,,,,,,,,,,,,,4,Excited,rating,5.0,15.556885899999543,,,,,,,,,,,,,,,,,,,,,,,,,,,,,,,,,,,,,,,,,,,,,,,,,,,,,,,,,,,,,,,,,,,,,,,,,,,,,,,,,,,,,,,,,,,,,,,,,,,,,,,,,,,,,,,,,,,39,001,1,21,650,700,2022_Nov_09_1344,Experiment,2021.1.4,360.23314289876737,
,,,,,,,,,,,,,,,,,,,,,,,,,,,,,,,,,,,,,,,,,,,,,5,Upset,rating,1.0,22.53755690000071,,,,,,,,,,,,,,,,,,,,,,,,,,,,,,,,,,,,,,,,,,,,,,,,,,,,,,,,,,,,,,,,,,,,,,,,,,,,,,,,,,,,,,,,,,,,,,,,,,,,,,,,,,,,,,,,,,,39,001,1,21,650,700,2022_Nov_09_1344,Experiment,2021.1.4,360.23314289876737,
,,,,,,,,,,,,,,,,,,,,,,,,,,,,,,,,,,,,,,,,,,,,,6,Strong,rating,4.0,24.247472900000503,,,,,,,,,,,,,,,,,,,,,,,,,,,,,,,,,,,,,,,,,,,,,,,,,,,,,,,,,,,,,,,,,,,,,,,,,,,,,,,,,,,,,,,,,,,,,,,,,,,,,,,,,,,,,,,,,,,39,001,1,21,650,700,2022_Nov_09_1344,Experiment,2021.1.4,360.23314289876737,
,,,,,,,,,,,,,,,,,,,,,,,,,,,,,,,,,,,,,,,,,,,,,7,Guilty,rating,2.0,10.743748499999128,,,,,,,,,,,,,,,,,,,,,,,,,,,,,,,,,,,,,,,,,,,,,,,,,,,,,,,,,,,,,,,,,,,,,,,,,,,,,,,,,,,,,,,,,,,,,,,,,,,,,,,,,,,,,,,,,,,39,001,1,21,650,700,2022_Nov_09_1344,Experiment,2021.1.4,360.23314289876737,
,,,,,,,,,,,,,,,,,,,,,,,,,,,,,,,,,,,,,,,,,,,,,8,Scared,rating,2.0,13.724187899999379,,,,,,,,,,,,,,,,,,,,,,,,,,,,,,,,,,,,,,,,,,,,,,,,,,,,,,,,,,,,,,,,,,,,,,,,,,,,,,,,,,,,,,,,,,,,,,,,,,,,,,,,,,,,,,,,,,,39,001,1,21,650,700,2022_Nov_09_1344,Experiment,2021.1.4,360.23314289876737,
,,,,,,,,,,,,,,,,,,,,,,,,,,,,,,,,,,,,,,,,,,,,,9,Hostile,rating,2.0,16.58782429999883,,,,,,,,,,,,,,,,,,,,,,,,,,,,,,,,,,,,,,,,,,,,,,,,,,,,,,,,,,,,,,,,,,,,,,,,,,,,,,,,,,,,,,,,,,,,,,,,,,,,,,,,,,,,,,,,,,,39,001,1,21,650,700,2022_Nov_09_1344,Experiment,2021.1.4,360.23314289876737,
,,,,,,,,,,,,,,,,,,,,,,,,,,,,,,,,,,,,,,,,,,,,,10,Enthusiastic,rating,4.0,18.06135859999995,,,,,,,,,,,,,,,,,,,,,,,,,,,,,,,,,,,,,,,,,,,,,,,,,,,,,,,,,,,,,,,,,,,,,,,,,,,,,,,,,,,,,,,,,,,,,,,,,,,,,,,,,,,,,,,,,,,39,001,1,21,650,700,2022_Nov_09_1344,Experiment,2021.1.4,360.23314289876737,
,,,,,,,,,,,,,,,,,,,,,,,,,,,,,,,,,,,,,,,,,,,,,11,Proud,rating,4.0,21.122772200000327,,,,,,,,,,,,,,,,,,,,,,,,,,,,,,,,,,,,,,,,,,,,,,,,,,,,,,,,,,,,,,,,,,,,,,,,,,,,,,,,,,,,,,,,,,,,,,,,,,,,,,,,,,,,,,,,,,,39,001,1,21,650,700,2022_Nov_09_1344,Experiment,2021.1.4,360.23314289876737,
,,,,,,,,,,,,,,,,,,,,,,,,,,,,,,,,,,,,,,,,,,,,,12,Irritable,rating,2.0,8.985920700000861,,,,,,,,,,,,,,,,,,,,,,,,,,,,,,,,,,,,,,,,,,,,,,,,,,,,,,,,,,,,,,,,,,,,,,,,,,,,,,,,,,,,,,,,,,,,,,,,,,,,,,,,,,,,,,,,,,,39,001,1,21,650,700,2022_Nov_09_1344,Experiment,2021.1.4,360.23314289876737,
,,,,,,,,,,,,,,,,,,,,,,,,,,,,,,,,,,,,,,,,,,,,,13,Alert,rating,3.0,7.333872100000008,,,,,,,,,,,,,,,,,,,,,,,,,,,,,,,,,,,,,,,,,,,,,,,,,,,,,,,,,,,,,,,,,,,,,,,,,,,,,,,,,,,,,,,,,,,,,,,,,,,,,,,,,,,,,,,,,,,39,001,1,21,650,700,2022_Nov_09_1344,Experiment,2021.1.4,360.23314289876737,
,,,,,,,,,,,,,,,,,,,,,,,,,,,,,,,,,,,,,,,,,,,,,14,Ashamed,rating,1.0,8.545229199999085,,,,,,,,,,,,,,,,,,,,,,,,,,,,,,,,,,,,,,,,,,,,,,,,,,,,,,,,,,,,,,,,,,,,,,,,,,,,,,,,,,,,,,,,,,,,,,,,,,,,,,,,,,,,,,,,,,,39,001,1,21,650,700,2022_Nov_09_1344,Experiment,2021.1.4,360.23314289876737,
,,,,,,,,,,,,,,,,,,,,,,,,,,,,,,,,,,,,,,,,,,,,,15,Inspired,rating,4.0,8.010686399999031,,,,,,,,,,,,,,,,,,,,,,,,,,,,,,,,,,,,,,,,,,,,,,,,,,,,,,,,,,,,,,,,,,,,,,,,,,,,,,,,,,,,,,,,,,,,,,,,,,,,,,,,,,,,,,,,,,,39,001,1,21,650,700,2022_Nov_09_1344,Experiment,2021.1.4,360.23314289876737,
,,,,,,,,,,,,,,,,,,,,,,,,,,,,,,,,,,,,,,,,,,,,,16,Nervous,rating,3.0,6.9064847999998165,,,,,,,,,,,,,,,,,,,,,,,,,,,,,,,,,,,,,,,,,,,,,,,,,,,,,,,,,,,,,,,,,,,,,,,,,,,,,,,,,,,,,,,,,,,,,,,,,,,,,,,,,,,,,,,,,,,39,001,1,21,650,700,2022_Nov_09_1344,Experiment,2021.1.4,360.23314289876737,
,,,,,,,,,,,,,,,,,,,,,,,,,,,,,,,,,,,,,,,,,,,,,17,Determined,rating,4.0,7.157322299999578,,,,,,,,,,,,,,,,,,,,,,,,,,,,,,,,,,,,,,,,,,,,,,,,,,,,,,,,,,,,,,,,,,,,,,,,,,,,,,,,,,,,,,,,,,,,,,,,,,,,,,,,,,,,,,,,,,,39,001,1,21,650,700,2022_Nov_09_1344,Experiment,2021.1.4,360.23314289876737,
,,,,,,,,,,,,,,,,,,,,,,,,,,,,,,,,,,,,,,,,,,,,,18,Attentive,rating,4.0,6.520153100000243,,,,,,,,,,,,,,,,,,,,,,,,,,,,,,,,,,,,,,,,,,,,,,,,,,,,,,,,,,,,,,,,,,,,,,,,,,,,,,,,,,,,,,,,,,,,,,,,,,,,,,,,,,,,,,,,,,,39,001,1,21,650,700,2022_Nov_09_1344,Experiment,2021.1.4,360.23314289876737,
,,,,,,,,,,,,,,,,,,,,,,,,,,,,,,,,,,,,,,,,,,,,,19,Jittery,rating,2.0,7.487209299999449,,,,,,,,,,,,,,,,,,,,,,,,,,,,,,,,,,,,,,,,,,,,,,,,,,,,,,,,,,,,,,,,,,,,,,,,,,,,,,,,,,,,,,,,,,,,,,,,,,,,,,,,,,,,,,,,,,,39,001,1,21,650,700,2022_Nov_09_1344,Experiment,2021.1.4,360.23314289876737,
,,,,,,,,,,,,,,,,,,,,,,,,,,,,,,,,,,,,,,,,,,,,,20,Active,rating,4.0,7.477270999999746,,,,,,,,,,,,,,,,,,,,,,,,,,,,,,,,,,,,,,,,,,,,,,,,,,,,,,,,,,,,,,,,,,,,,,,,,,,,,,,,,,,,,,,,,,,,,,,,,,,,,,,,,,,,,,,,,,,39,001,1,21,650,700,2022_Nov_09_1344,Experiment,2021.1.4,360.23314289876737,
,,,,,,,,,,,,,,,,,,,,,,,,,,,,,,,,,,,,,,,,,,,,,21,Afraid,rating,2.0,7.394475900000543,,,,,,,,,,,,,,,,,,,,,,,,,,,,,,,,,,,,,,,,,,,,,,,,,,,,,,,,,,,,,,,,,,,,,,,,,,,,,,,,,,,,,,,,,,,,,,,,,,,,,,,,,,,,,,,,,,,39,001,1,21,650,700,2022_Nov_09_1344,Experiment,2021.1.4,360.23314289876737,
,,,,,,,,,,,,,,,,,,,,,,,,,,,,,,,,,,,,,,,,,,,,,22,Press the + button to submit your answers,description,,,,,,,,,,,,,,,,,,,,,,,,,,,,,,,,,,,,,,,,,,,,,,,,,,,,,,,,,,,,,,,,,,,,,,,,,,,,,,,,,,,,,,,,,,,,,,,,,,,,,,,,,,,,,,,,,,,,,39,001,1,21,650,700,2022_Nov_09_1344,Experiment,2021.1.4,360.23314289876737,
,,,,,,,,,,,,,,,,,,,,,,,,,,,,,,,,,,,,,,,,,,,,,,,,,,num_add,51.93604480000067,54.222061100001156,None,,,,,,,,,,,,,,,,,,,,,,,,,,,,,,,,,,,,,,,,,,,,,,,,,,,,,,,,,,,,,,,,,,,,,,,,,,,,,,,,,,,,,,,,,,,,,,,,,,,,,,,,,,,,,,,39,001,1,21,650,700,2022_Nov_09_1344,Experiment,2021.1.4,360.23314289876737,
,,,,,,,,,,,,,,,,,,,,,,,,,,,,,,,,,,,,,,,,,,,,,,,,,,,,,,106.18658390000019,None,num_add,17.635505700000067,,,,,,,,,,,,,,,,,,,,,,,,,,,,,,,,,,,,,,,,,,,,,,,,,,,,,,,,,,,,,,,,,,,,,,,,,,,,,,,,,,,,,,,,,,,,,,,,,,,,,,,,,,,39,001,1,21,650,700,2022_Nov_09_1344,Experiment,2021.1.4,360.23314289876737,
,,,,,,,,,,,,,,,,,,,,,,,,,,,,,,,,,,,,,,,,,,,,,,,,,,,,,,,,,,123.83115420000104,None,num_add,13.694824100000915,123.83115420000104,None,,,,,,,,,,,,,,,,,,,,,,,,,,,,,,,,,,,,,,,,,,,,,,,,,,,,,,,,,,,,,,,,,,,,,,,,,,,,,,,,,,,,,,,,,,,,,,,,,,,,,39,001,1,21,650,700,2022_Nov_09_1344,Experiment,2021.1.4,360.23314289876737,
,,,,,,,,,,,,,,,,,,,,,,,,,,,,,,,,,,,,,,,,,,,,,,,,,,,,,,,,,,,,,,,,137.54638520000117,None,num_add,9.451782899999671,,,,,,,,,,,,,,,,,,,,,,,,,,,,,,,,,,,,,,,,,,,,,,,,,,,,,,,,,,,,,,,,,,,,,,,,,,,,,,,,,,,,,,,,,,,,,,,,,39,001,1,21,650,700,2022_Nov_09_1344,Experiment,2021.1.4,360.23314289876737,
,,,,,,,,,,,,,,,,,,,,,,,,,,,,,,,,,,,,,,,,,,,,,,,,,,,,,,,,,,,,,,,,,,,,147.01013760000023,None,space,372.97157719999996,,,,,,,,,,,,,,,,,,,,,,,,,,,,,,,,,,,,,,,,,,,,,,,,,,,,,,,,,,,,,,,,,,,,,,,,,,,,,,,,,,,,,,,,,,,,,39,001,1,21,650,700,2022_Nov_09_1344,Experiment,2021.1.4,360.23314289876737,
images\S22_M_S_03.png,images\S22_M_S_03_scrambled.png,22,Sad,0.3,M,0,0,practice,on,2,0.5,0.75,0.5,0.794,3,,,,,,,,,,,0,0,0,7,,,,,,,,,,,,,,,,,,,,,,,,,,,,,,,,,,,,,,,,,,,520.1063684000001,520.6091119000012,520.6091119000012,521.3644299000007,521.3644299000007,521.8697358999998,521.8697358999998,522.6695503999999,522.6695503999999,None,None,522.6695503999999,None,,,,,,,,,,,,,,,,,,,,,,,,,,,,,,,,,,,,,,,,,,,,,,,,,,,,,,,,,,,,,,,,,,,,,,,,,,,,,,,,39,001,1,21,650,700,2022_Nov_09_1344,Experiment,2021.1.4,360.23314289876737,
images\S22_M_S_01.png,images\S22_M_S_01_scrambled.png,22,Sad,0.1,M,0,0,practice,on,2,0.5,0.75,0.5,0.867,3,,,,,,,,,,,0,1,1,5,,,,,,,,,,,,,,,,,,,,,,,,,,,,,,,,,,,,,,,,,,,525.7157619999998,526.2155996000001,526.2155996000001,526.9653618000011,526.9653618000011,527.4652483999998,527.4652483999998,528.3372132000004,528.3372132000004,525.7157619999998,num_4,528.3372132000004,525.7157619999998,0.5730137999998988,,,,,,,,,,,,,,,,,,,,,,,,,,,,,,,,,,,,,,,,,,,,,,,,,,,,,,,,,,,,,,,,,,,,,,,,,,,,,,,39,001,1,21,650,700,2022_Nov_09_1344,Experiment,2021.1.4,360.23314289876737,
images\S22_M_H_02.png,images\S22_M_H_02_scrambled.png,22,Happy,-0.2,M,0,0,practice,off,1,0.5,0.75,0.5,0.883,3,,,,,,,,,,,0,2,2,2,,,,,,,,,,,,,,,,,,,,,,,,,,,,,,,,,,,,,,,,,,,528.9619739999998,529.4674154000004,529.4674154000004,530.2227270000003,530.2227270000003,530.7281199000008,530.7281199000008,531.6167674999997,531.6167674999997,None,num_4,531.6167674999997,None,0.397904200000994,,,,,,,,,,,,,,,,,,,,,,,,,,,,,,,,,,,,,,,,,,,,,,,,,,,,,,,,,,,,,,,,,,,,,,,,,,,,,,,39,001,1,21,650,700,2022_Nov_09_1344,Experiment,2021.1.4,360.23314289876737,
images\S21_F_H_01.png,images\S21_F_H_01_scrambled.png,21,Happy,-0.1,F,0,0,practice,off,1,0.5,0.75,0.5,0.853,3,,,,,,,,,,,0,3,3,0,,,,,,,,,,,,,,,,,,,,,,,,,,,,,,,,,,,,,,,,,,,532.0860154000002,532.5915175000009,532.5915175000009,533.3467872000001,533.3467872000001,533.8466086000008,533.8466086000008,534.7019292000004,534.7019292000004,None,num_4,534.7019292000004,None,0.48053690000051574,,,,,,,,,,,,,,,,,,,,,,,,,,,,,,,,,,,,,,,,,,,,,,,,,,,,,,,,,,,,,,,,,,,,,,,,,,,,,,,39,001,1,21,650,700,2022_Nov_09_1344,Experiment,2021.1.4,360.23314289876737,
images\S22_M_S_02.png,images\S22_M_S_02_scrambled.png,22,Sad,0.2,M,0,0,practice,on,2,0.5,0.75,0.5,0.783,3,,,,,,,,,,,0,4,4,6,,,,,,,,,,,,,,,,,,,,,,,,,,,,,,,,,,,,,,,,,,,535.2517102000002,535.7571449000006,535.7571449000006,536.5124622000003,536.5124622000003,537.0122676999999,537.0122676999999,537.7981656000011,537.7981656000011,None,num_4,537.7981656000011,None,0.5364169999993464,,,,,,,,,,,,,,,,,,,,,,,,,,,,,,,,,,,,,,,,,,,,,,,,,,,,,,,,,,,,,,,,,,,,,,,,,,,,,,,39,001,1,21,650,700,2022_Nov_09_1344,Experiment,2021.1.4,360.23314289876737,
images\S22_M_S_03.png,images\S22_M_S_03_scrambled.png,22,Sad,0.3,M,0,0,practice,on,2,0.5,0.75,0.5,0.87,3,,,,,,,,,,,0,5,5,4,,,,,,,,,,,,,,,,,,,,,,,,,,,,,,,,,,,,,,,,,,,538.3840763999997,538.8867418999998,538.8867418999998,539.6420589000008,539.6420589000008,540.1474568000012,540.1474568000012,541.019368700001,541.019368700001,None,num_4,541.019368700001,None,0.9308386000011524,,,,,,,,,,,,,,,,,,,,,,,,,,,,,,,,,,,,,,,,,,,,,,,,,,,,,,,,,,,,,,,,,,,,,,,,,,,,,,,39,001,1,21,650,700,2022_Nov_09_1344,Experiment,2021.1.4,360.23314289876737,
images\S21_F_H_02.png,images\S21_F_H_02_scrambled.png,21,Happy,-0.2,F,0,0,practice,off,1,0.5,0.75,0.5,0.91,3,,,,,,,,,,,0,6,6,1,,,,,,,,,,,,,,,,,,,,,,,,,,,,,,,,,,,,,,,,,,,541.9996299000013,542.5022458000003,542.5022458000003,543.2548435000008,543.2548435000008,543.7574542000002,543.7574542000002,544.6738192000012,544.6738192000012,None,num_4,544.6738192000012,None,0.9164693000002444,,,,,,,,,,,,,,,,,,,,,,,,,,,,,,,,,,,,,,,,,,,,,,,,,,,,,,,,,,,,,,,,,,,,,,,,,,,,,,,39,001,1,21,650,700,2022_Nov_09_1344,Experiment,2021.1.4,360.23314289876737,
images\S22_M_S_02.png,images\S22_M_S_02_scrambled.png,22,Sad,0.2,M,0,0,practice,off,1,0.5,0.75,0.5,0.751,3,,,,,,,,,,,0,7,7,3,,,,,,,,,,,,,,,,,,,,,,,,,,,,,,,,,,,,,,,,,,,545.6401796999999,546.1428231000009,546.1428231000009,546.8981221000013,546.8981221000013,547.4008597000011,547.4008597000011,548.1589253000002,548.1589253000002,None,num_4,548.1589253000002,None,0.967659800000547,,,,,,,,,,,,,,,,,,,,,,,,,,,,,,,,,,,,,,,,,,,,,,,,,,,,,,,,,,,,,,,,,,,,,,,,,,,,,,,39,001,1,21,650,700,2022_Nov_09_1344,Experiment,2021.1.4,360.23314289876737,
,,,,,,,,,,,,,,,,,,,,,,,,,,,,,,,,,,,,,,,,,,,,,,,,,,,,,,,,,,,,,,,,,,,,,,,,,,,,,,,,,,,,,,549.1529847000002,None,space,52.94064109999999,,,,,,,,,,,,,,,,,,,,,,,,,,,,,,,,,,,,,,,,,,,,,,,,,,,,,,,,,,,,,,,,,,,,,,,,,,,39,001,1,21,650,700,2022_Nov_09_1344,Experiment,2021.1.4,360.23314289876737,
images\S1_F_S_03.png,images\S1_F_S_03_scrambled.png,1,sad,-30,female,1,,366,off,1,0.5,0.75,0.5,0.802,3,365,1,1,1,0,0,0,0,1,,,,,,0,0,0,0,,,,,,,,,,,,,,,,,,,,,,,,,,,,,,,,,,,,,,,,,,,,,,,,,,,,,,,,,602.5865310999998,603.0892860000004,603.0892860000004,603.8445358999998,603.8445358999998,604.3499165000012,604.3499165000012,605.1579835000011,605.1579835000011,None,num_6,0.43207259999871894,605.1579835000011,None,sad,1,Sad,605.6245086299999,None,None,605.6245086299999,None,,,,,,,,,,,,,,,,,,,,,,,,,,,,,,,,,,,,,,,,,,,,,,,,,,,,,39,001,1,21,650,700,2022_Nov_09_1344,Experiment,2021.1.4,360.23314289876737,
images\S2_M_S_01.png,images\S2_M_S_01_scrambled.png,2,sad,-10,male,3,,10,off,1,0.5,0.75,0.5,0.947,3,9,2,1,1,0,0,0,0,3,,,,,,0,1,1,1,,,,,,,,,,,,,,,,,,,,,,,,,,,,,,,,,,,,,,,,,,,,,,,,,,,,,,,,,605.6772462000008,606.1799133000004,606.1799133000004,606.9352230000004,606.9352230000004,607.4406245999999,607.4406245999999,608.3903362000001,608.3903362000001,None,num_6,0.43217899999945075,608.3903362000001,None,sad,1,Sad,608.8373905200002,None,None,608.8373905200002,None,,,,,,,,,,,,,,,,,,,,,,,,,,,,,,,,,,,,,,,,,,,,,,,,,,,,,39,001,1,21,650,700,2022_Nov_09_1344,Experiment,2021.1.4,360.23314289876737,
images\S4_M_H_01.png,images\S4_M_H_01_scrambled.png,4,happy,10,male,4,,139,off,1,0.5,0.75,0.5,0.91,3,138,3,1,1,0,0,0,0,4,,,,,,0,2,2,2,,,,,,,,,,,,,,,,,,,,,,,,,,,,,,,,,,,,,,,,,,,,,,,,,,,,,,,,,608.8845918000006,609.3900455000003,609.3900455000003,610.1397601000008,610.1397601000008,610.6396339000003,610.6396339000003,611.5532495999996,611.5532495999996,None,num_6,0.39705010000034235,611.5532495999996,None,sad,1,Happy,611.9586425599998,None,None,611.9586425599998,None,,,,,,,,,,,,,,,,,,,,,,,,,,,,,,,,,,,,,,,,,,,,,,,,,,,,,39,001,1,21,650,700,2022_Nov_09_1344,Experiment,2021.1.4,360.23314289876737,
images\S1_F_S_02.png,images\S1_F_S_02_scrambled.png,1,sad,-20,female,2,,485,off,1,0.5,0.75,0.5,0.819,3,484,4,1,1,0,0,0,0,2,,,,,,0,3,3,3,,,,,,,,,,,,,,,,,,,,,,,,,,,,,,,,,,,,,,,,,,,,,,,,,,,,,,,,,612.0114783999998,612.5141765999997,612.5141765999997,613.2665900000011,613.2665900000011,613.7693335000004,613.7693335000004,614.5911802999999,614.5911802999999,None,num_4,0.4388749999998254,614.5911802999999,None,happy,1,Sad,615.0354694599998,None,None,615.0354694599998,None,,,,,,,,,,,,,,,,,,,,,,,,,,,,,,,,,,,,,,,,,,,,,,,,,,,,,39,001,1,21,650,700,2022_Nov_09_1344,Experiment,2021.1.4,360.23314289876737,
images\blank.jpg,images\blank.jpg,none,none,none,none,0,,605,on,2,0.5,0.75,0.5,0.94,0,604,1,1,1,3,3,48,192,240,,,,,,0,4,4,4,,,,,,,,,,,,,,,,,,,,,,,,,,,,,,,,,,,,,,,,,,,,,,,,,,,,,,,,,615.1192409000014,615.6243110000014,615.6243110000014,616.3795671999997,616.3795671999997,616.8849401999996,616.8849401999996,617.8292010000005,617.8292010000005,617.8292010000005,None,,617.8292010000005,None,miss,1,,620.83094913,None,None,620.83094913,None,,,,,,,,,,,,,,,,,,,,,,,,,,,,,,,,,,,,,,,,,,,,,,,,,,,,,39,001,1,21,650,700,2022_Nov_09_1344,Experiment,2021.1.4,360.23314289876737,
images\S3_F_S_01.png,images\S3_F_S_01_scrambled.png,3,sad,-10,female,3,,16,off,1,0.5,0.75,0.5,0.812,3,15,1,1,1,0,0,0,0,3,,,,,,0,5,5,5,,,,,,,,,,,,,,,,,,,,,,,,,,,,,,,,,,,,,,,,,,,,,,,,,,,,,,,,,620.9478251,621.4474012999999,621.4474012999999,622.2027503000008,622.2027503000008,622.7081505000006,622.7081505000006,623.5245443000003,623.5245443000003,None,num_6,0.4577319999989413,623.5245443000003,620.9478251,sad,1,Sad,623.9966081199997,None,None,623.9966081199997,None,,,,,,,,,,,,,,,,,,,,,,,,,,,,,,,,,,,,,,,,,,,,,,,,,,,,,39,001,1,21,650,700,2022_Nov_09_1344,Experiment,2021.1.4,360.23314289876737,
images\S6_M_S_01.png,images\S6_M_S_01_scrambled.png,6,sad,-10,male,3,,394,off,1,0.5,0.75,0.5,0.767,3,393,2,1,2,0,0,0,0,3,,,,,,0,6,6,6,,,,,,,,,,,,,,,,,,,,,,,,,,,,,,,,,,,,,,,,,,,,,,,,,,,,,,,,,624.0465889000006,624.5492188000007,624.5492188000007,625.3018909000002,625.3018909000002,625.8043945999998,625.8043945999998,626.5764743,626.5764743,None,num_6,0.5896652000010363,626.5764743,None,sad,1,Sad,627.1789633200002,None,None,627.1789633200002,None,,,,,,,,,,,,,,,,,,,,,,,,,,,,,,,,,,,,,,,,,,,,,,,,,,,,,39,001,1,21,650,700,2022_Nov_09_1344,Experiment,2021.1.4,360.23314289876737,
images\S8_M_S_01.png,images\S8_M_S_01_scrambled.png,8,sad,-10,male,3,,346,on,2,0.5,0.75,0.5,0.773,3,345,1,1,3,2,2,32,128,163,,,,,,0,7,7,7,,,,,,,,,,,,,,,,,,,,,,,,,,,,,,,,,,,,,,,,,,,,,,,,,,,,,,,,,627.2261713999997,627.7260086000006,627.7260086000006,628.4757867000008,628.4757867000008,628.9784415000013,628.9784415000013,629.7559839000005,629.7559839000005,None,num_6,0.5221251000002667,629.7559839000005,None,sad,1,Sad,630.2891279200009,None,None,630.2891279200009,None,,,,,,,,,,,,,,,,,,,,,,,,,,,,,,,,,,,,,,,,,,,,,,,,,,,,,39,001,1,21,650,700,2022_Nov_09_1344,Experiment,2021.1.4,360.23314289876737,
images\S5_F_H_01.png,images\S5_F_H_01_scrambled.png,5,happy,10,female,4,,205,on,2,0.5,0.75,0.5,0.9,3,204,2,1,1,2,2,32,128,164,,,,,,0,8,8,8,,,,,,,,,,,,,,,,,,,,,,,,,,,,,,,,,,,,,,,,,,,,,,,,,,,,,,,,,630.3363225000012,630.8389653000013,630.8389653000013,631.5942778000008,631.5942778000008,632.0970224000012,632.0970224000012,633.0050093000009,633.0050093000009,None,num_4,0.33719139999993786,633.0050093000009,None,happy,1,Happy,633.3548499200002,None,None,633.3548499200002,None,,,,,,,,,,,,,,,,,,,,,,,,,,,,,,,,,,,,,,,,,,,,,,,,,,,,,39,001,1,21,650,700,2022_Nov_09_1344,Experiment,2021.1.4,360.23314289876737,
images\S6_M_S_03.png,images\S6_M_S_03_scrambled.png,6,sad,-30,male,1,,96,on,2,0.5,0.75,0.5,0.876,3,95,3,1,1,2,2,32,128,161,,,,,,0,9,9,9,,,,,,,,,,,,,,,,,,,,,,,,,,,,,,,,,,,,,,,,,,,,,,,,,,,,,,,,,633.4048244000005,633.9075309,633.9075309,634.6628098000001,634.6628098000001,635.1626073000007,635.1626073000007,636.0429374000014,636.0429374000014,None,num_6,0.4673558000013145,636.0429374000014,None,sad,1,Sad,636.5233094200008,None,None,636.5233094200008,None,,,,,,,,,,,,,,,,,,,,,,,,,,,,,,,,,,,,,,,,,,,,,,,,,,,,,39,001,1,21,650,700,2022_Nov_09_1344,Experiment,2021.1.4,360.23314289876737,
images\S9_F_H_03.png,images\S9_F_H_03_scrambled.png,9,happy,30,female,6,,471,on,2,0.5,0.75,0.5,0.923,3,470,4,1,1,2,2,32,128,166,,,,,,0,10,10,10,,,,,,,,,,,,,,,,,,,,,,,,,,,,,,,,,,,,,,,,,,,,,,,,,,,,,,,,,636.5732850000004,637.0787192000007,637.0787192000007,637.8312690000002,637.8312690000002,638.3338480000002,638.3338480000002,639.2614747000007,639.2614747000007,None,num_4,0.33670339999844145,639.2614747000007,None,happy,1,Happy,639.6112471200009,None,None,639.6112471200009,None,,,,,,,,,,,,,,,,,,,,,,,,,,,,,,,,,,,,,,,,,,,,,,,,,,,,,39,001,1,21,650,700,2022_Nov_09_1344,Experiment,2021.1.4,360.23314289876737,
images\S3_F_H_01.png,images\S3_F_H_01_scrambled.png,3,happy,10,female,4,,433,on,2,0.5,0.75,0.5,0.865,3,432,5,1,1,2,2,32,128,164,,,,,,0,11,11,11,,,,,,,,,,,,,,,,,,,,,,,,,,,,,,,,,,,,,,,,,,,,,,,,,,,,,,,,,639.6612278000011,640.161073700001,640.161073700001,640.9136312999999,640.9136312999999,641.4190450000006,641.4190450000006,642.2882300000001,642.2882300000001,None,num_6,0.4140931999991153,642.2882300000001,None,sad,1,Happy,642.7131277600008,None,None,642.7131277600008,None,,,,,,,,,,,,,,,,,,,,,,,,,,,,,,,,,,,,,,,,,,,,,,,,,,,,,39,001,1,21,650,700,2022_Nov_09_1344,Experiment,2021.1.4,360.23314289876737,
images\S9_F_H_02.png,images\S9_F_H_02_scrambled.png,9,happy,20,female,5,,110,on,2,0.5,0.75,0.5,0.815,3,109,6,1,1,2,2,32,128,165,,,,,,0,12,12,12,,,,,,,,,,,,,,,,,,,,,,,,,,,,,,,,,,,,,,,,,,,,,,,,,,,,,,,,,642.7658288000002,643.2656686000009,643.2656686000009,644.0154332000002,644.0154332000002,644.5180548999997,644.5180548999997,645.3373986000006,645.3373986000006,None,num_4,0.34876729999996314,645.3373986000006,None,happy,1,Happy,645.7010650200006,None,None,645.7010650200006,None,,,,,,,,,,,,,,,,,,,,,,,,,,,,,,,,,,,,,,,,,,,,,,,,,,,,,39,001,1,21,650,700,2022_Nov_09_1344,Experiment,2021.1.4,360.23314289876737,
images\S7_F_H_01.png,images\S7_F_H_01_scrambled.png,7,happy,10,female,4,,577,on,2,0.5,0.75,0.5,0.858,3,576,7,1,1,2,2,32,128,164,,,,,,0,13,13,13,,,,,,,,,,,,,,,,,,,,,,,,,,,,,,,,,,,,,,,,,,,,,,,,,,,,,,,,,645.7510281000013,646.2536369000009,646.2536369000009,647.0089951999998,647.0089951999998,647.5143755000008,647.5143755000008,648.3780201999998,648.3780201999998,None,num_6,0.3404903999999078,648.3780201999998,None,sad,1,Happy,648.7280191600009,None,None,648.7280191600009,None,,,,,,,,,,,,,,,,,,,,,,,,,,,,,,,,,,,,,,,,,,,,,,,,,,,,,39,001,1,21,650,700,2022_Nov_09_1344,Experiment,2021.1.4,360.23314289876737,
images\S1_F_H_01.png,images\S1_F_H_01_scrambled.png,1,happy,10,female,4,,361,off,1,0.5,0.75,0.5,0.815,3,360,1,1,2,0,0,0,0,4,,,,,,0,14,14,14,,,,,,,,,,,,,,,,,,,,,,,,,,,,,,,,,,,,,,,,,,,,,,,,,,,,,,,,,648.786191000001,649.2888433000007,649.2888433000007,650.0413967000004,650.0413967000004,650.5468368000002,650.5468368000002,651.3687817000009,651.3687817000009,None,num_4,0.4538690999997925,651.3687817000009,None,happy,1,Happy,651.8492146399996,None,None,651.8492146399996,None,,,,,,,,,,,,,,,,,,,,,,,,,,,,,,,,,,,,,,,,,,,,,,,,,,,,,39,001,1,21,650,700,2022_Nov_09_1344,Experiment,2021.1.4,360.23314289876737,
images\S9_F_S_01.png,images\S9_F_S_01_scrambled.png,9,sad,-10,female,3,,412,off,1,0.5,0.75,0.5,0.876,3,411,2,1,1,0,0,0,0,3,,,,,,0,15,15,15,,,,,,,,,,,,,,,,,,,,,,,,,,,,,,,,,,,,,,,,,,,,,,,,,,,,,,,,,651.9019023000001,652.4073934000007,652.4073934000007,653.1626738000014,653.1626738000014,653.6680778000009,653.6680778000009,654.5455297999997,654.5455297999997,None,num_4,0.34056129999953555,654.5455297999997,None,happy,1,Sad,654.8982007899996,None,None,654.8982007899996,None,,,,,,,,,,,,,,,,,,,,,,,,,,,,,,,,,,,,,,,,,,,,,,,,,,,,,39,001,1,21,650,700,2022_Nov_09_1344,Experiment,2021.1.4,360.23314289876737,
images\S9_F_S_01.png,images\S9_F_S_01_scrambled.png,9,sad,-10,female,3,,172,off,1,0.5,0.75,0.5,0.777,3,171,3,2,2,0,0,0,0,3,,,,,,0,16,16,16,,,,,,,,,,,,,,,,,,,,,,,,,,,,,,,,,,,,,,,,,,,,,,,,,,,,,,,,,654.9620719000013,655.4675426000013,655.4675426000013,656.2172320000009,656.2172320000009,656.7226805000009,656.7226805000009,657.502993600001,657.502993600001,None,num_4,0.4712651999998343,657.502993600001,None,happy,1,Sad,657.9833642600013,None,None,657.9833642600013,None,,,,,,,,,,,,,,,,,,,,,,,,,,,,,,,,,,,,,,,,,,,,,,,,,,,,,39,001,1,21,650,700,2022_Nov_09_1344,Experiment,2021.1.4,360.23314289876737,
images\S6_M_H_01.png,images\S6_M_H_01_scrambled.png,6,happy,10,male,4,,571,on,2,0.5,0.75,0.5,0.849,3,570,1,1,1,2,2,32,128,164,,,,,,0,17,17,17,,,,,,,,,,,,,,,,,,,,,,,,,,,,,,,,,,,,,,,,,,,,,,,,,,,,,,,,,658.0305685000003,658.5361172000012,658.5361172000012,659.2857285999999,659.2857285999999,659.7855789000005,659.7855789000005,660.6381375000001,660.6381375000001,None,num_6,0.3839503999988665,660.6381375000001,None,sad,1,Happy,661.0268840600008,None,None,661.0268840600008,None,,,,,,,,,,,,,,,,,,,,,,,,,,,,,,,,,,,,,,,,,,,,,,,,,,,,,39,001,1,21,650,700,2022_Nov_09_1344,Experiment,2021.1.4,360.23314289876737,
images\S5_F_S_02.png,images\S5_F_S_02_scrambled.png,5,sad,-20,female,2,,329,on,2,0.5,0.75,0.5,0.894,3,328,2,1,1,2,2,32,128,162,,,,,,0,18,18,18,,,,,,,,,,,,,,,,,,,,,,,,,,,,,,,,,,,,,,,,,,,,,,,,,,,,,,,,,661.0740760999997,661.5766936,661.5766936,662.3292523,662.3292523,662.8319953000009,662.8319953000009,663.7288294000009,663.7288294000009,None,num_6,0.3574914999990142,663.7288294000009,None,sad,1,Sad,664.1148292700005,None,None,664.1148292700005,None,,,,,,,,,,,,,,,,,,,,,,,,,,,,,,,,,,,,,,,,,,,,,,,,,,,,,39,001,1,21,650,700,2022_Nov_09_1344,Experiment,2021.1.4,360.23314289876737,
images\S5_F_H_02.png,images\S5_F_H_02_scrambled.png,5,happy,20,female,5,,506,off,1,0.5,0.75,0.5,0.899,3,505,1,2,1,0,0,0,0,5,,,,,,0,19,19,19,,,,,,,,,,,,,,,,,,,,,,,,,,,,,,,,,,,,,,,,,,,,,,,,,,,,,,,,,664.1730939000008,664.6757378000002,664.6757378000002,665.4255087000001,665.4255087000001,665.9281741000013,665.9281741000013,666.8334534000005,666.8334534000005,None,num_4,0.3810778000006394,666.8334534000005,None,happy,1,Happy,667.2277492200006,None,None,667.2277492200006,None,,,,,,,,,,,,,,,,,,,,,,,,,,,,,,,,,,,,,,,,,,,,,,,,,,,,,39,001,1,21,650,700,2022_Nov_09_1344,Experiment,2021.1.4,360.23314289876737,
images\S3_F_H_01.png,images\S3_F_H_01_scrambled.png,3,happy,10,female,4,,73,on,2,0.5,0.75,0.5,0.768,3,72,1,1,1,2,2,32,128,164,,,,,,0,20,20,20,,,,,,,,,,,,,,,,,,,,,,,,,,,,,,,,,,,,,,,,,,,,,,,,,,,,,,,,,667.2749516000003,667.7747852000011,667.7747852000011,668.5245768000004,668.5245768000004,669.0272873000013,669.0272873000013,669.7991768000011,669.7991768000011,None,num_6,0.3588218000004417,669.7991768000011,None,sad,1,Happy,670.1629711600006,None,None,670.1629711600006,None,,,,,,,,,,,,,,,,,,,,,,,,,,,,,,,,,,,,,,,,,,,,,,,,,,,,,39,001,1,21,650,700,2022_Nov_09_1344,Experiment,2021.1.4,360.23314289876737,
images\S10_M_S_02.png,images\S10_M_S_02_scrambled.png,10,sad,-20,male,2,,59,off,1,0.5,0.75,0.5,0.81,3,58,1,1,1,0,0,0,0,2,,,,,,0,21,21,21,,,,,,,,,,,,,,,,,,,,,,,,,,,,,,,,,,,,,,,,,,,,,,,,,,,,,,,,,670.2101561,670.7155534000012,670.7155534000012,671.468101800001,671.468101800001,671.9735311000004,671.9735311000004,672.7871281000007,672.7871281000007,None,num_4,0.4992443999999523,672.7871281000007,None,happy,1,Sad,673.2980923899996,None,None,673.2980923899996,None,,,,,,,,,,,,,,,,,,,,,,,,,,,,,,,,,,,,,,,,,,,,,,,,,,,,,39,001,1,21,650,700,2022_Nov_09_1344,Experiment,2021.1.4,360.23314289876737,
images\S1_F_S_01.png,images\S1_F_S_01_scrambled.png,1,sad,-10,female,3,,304,on,2,0.5,0.75,0.5,0.782,3,303,1,1,1,2,2,32,128,163,,,,,,0,22,22,22,,,,,,,,,,,,,,,,,,,,,,,,,,,,,,,,,,,,,,,,,,,,,,,,,,,,,,,,,673.3619666000013,673.8618012000006,673.8618012000006,674.6172344000006,674.6172344000006,675.1225914000006,675.1225914000006,675.9056226000012,675.9056226000012,None,num_4,0.3409795999996277,675.9056226000012,None,happy,1,Sad,676.2556623900001,None,None,676.2556623900001,None,,,,,,,,,,,,,,,,,,,,,,,,,,,,,,,,,,,,,,,,,,,,,,,,,,,,,39,001,1,21,650,700,2022_Nov_09_1344,Experiment,2021.1.4,360.23314289876737,
images\S3_F_S_02.png,images\S3_F_S_02_scrambled.png,3,sad,-20,female,2,,377,off,1,0.5,0.75,0.5,0.916,3,376,1,1,1,0,0,0,0,2,,,,,,0,23,23,23,,,,,,,,,,,,,,,,,,,,,,,,,,,,,,,,,,,,,,,,,,,,,,,,,,,,,,,,,676.3110536000004,676.8137002000003,676.8137002000003,677.566256600001,677.566256600001,678.0717474000012,678.0717474000012,678.9935827000008,678.9935827000008,None,num_6,0.4205234000000928,678.9935827000008,None,sad,1,Sad,679.4379312400007,None,None,679.4379312400007,None,,,,,,,,,,,,,,,,,,,,,,,,,,,,,,,,,,,,,,,,,,,,,,,,,,,,,39,001,1,21,650,700,2022_Nov_09_1344,Experiment,2021.1.4,360.23314289876737,
images\S5_F_H_02.png,images\S5_F_H_02_scrambled.png,5,happy,20,female,5,,146,off,1,0.5,0.75,0.5,0.84,3,145,2,1,1,0,0,0,0,5,,,,,,0,24,24,24,,,,,,,,,,,,,,,,,,,,,,,,,,,,,,,,,,,,,,,,,,,,,,,,,,,,,,,,,679.5017415000002,680.0015799000012,680.0015799000012,680.7513796000003,680.7513796000003,681.2539830000005,681.2539830000005,682.0981564000012,682.0981564000012,None,num_4,0.4041685000011057,682.0981564000012,None,happy,1,Happy,682.525820210001,None,None,682.525820210001,None,,,,,,,,,,,,,,,,,,,,,,,,,,,,,,,,,,,,,,,,,,,,,,,,,,,,,39,001,1,21,650,700,2022_Nov_09_1344,Experiment,2021.1.4,360.23314289876737,
images\S3_F_H_02.png,images\S3_F_H_02_scrambled.png,3,happy,20,female,5,,194,on,2,0.5,0.75,0.5,0.879,3,193,1,1,2,2,2,32,128,165,,,,,,0,25,25,25,,,,,,,,,,,,,,,,,,,,,,,,,,,,,,,,,,,,,,,,,,,,,,,,,,,,,,,,,682.5924475000011,683.0978771999999,683.0978771999999,683.8476245000002,683.8476245000002,684.3530578000009,684.3530578000009,685.2388870000013,685.2388870000013,None,num_4,0.31174470000041765,685.2388870000013,None,happy,1,Happy,685.5694098799999,None,None,685.5694098799999,None,,,,,,,,,,,,,,,,,,,,,,,,,,,,,,,,,,,,,,,,,,,,,,,,,,,,,39,001,1,21,650,700,2022_Nov_09_1344,Experiment,2021.1.4,360.23314289876737,
images\blank.jpg,images\blank.jpg,none,none,none,none,0,,608,on,2,0.5,0.75,0.5,0.944,0,607,2,1,1,3,3,48,192,240,,,,,,0,26,26,26,,,,,,,,,,,,,,,,,,,,,,,,,,,,,,,,,,,,,,,,,,,,,,,,,,,,,,,,,685.6555740000003,686.1580591000002,686.1580591000002,686.9133805000001,686.9133805000001,687.4159961000005,687.4159961000005,688.3629486000009,688.3629486000009,688.3629486000009,None,,688.3629486000009,None,miss,1,,691.36476523,None,None,691.36476523,None,,,,,,,,,,,,,,,,,,,,,,,,,,,,,,,,,,,,,,,,,,,,,,,,,,,,,39,001,1,21,650,700,2022_Nov_09_1344,Experiment,2021.1.4,360.23314289876737,
images\S6_M_H_01.png,images\S6_M_H_01_scrambled.png,6,happy,10,male,4,,151,off,1,0.5,0.75,0.5,0.775,3,150,1,1,1,0,0,0,0,4,,,,,,0,27,27,27,,,,,,,,,,,,,,,,,,,,,,,,,,,,,,,,,,,,,,,,,,,,,,,,,,,,,,,,,691.4760715000011,691.9785979000008,691.9785979000008,692.7309875999999,692.7309875999999,693.2337509999998,693.2337509999998,694.0111675000007,694.0111675000007,None,num_4,1.1389794999995502,694.0111675000007,691.4760715000011,happy,1,Happy,695.1802724999998,None,None,695.1802724999998,None,,,,,,,,,,,,,,,,,,,,,,,,,,,,,,,,,,,,,,,,,,,,,,,,,,,,,39,001,1,21,650,700,2022_Nov_09_1344,Experiment,2021.1.4,360.23314289876737,
images\S1_F_S_02.png,images\S1_F_S_02_scrambled.png,1,sad,-20,female,2,,245,off,1,0.5,0.75,0.5,0.869,3,244,2,1,1,0,0,0,0,2,,,,,,0,28,28,28,,,,,,,,,,,,,,,,,,,,,,,,,,,,,,,,,,,,,,,,,,,,,,,,,,,,,,,,,695.2357853000012,695.7356228000008,695.7356228000008,696.4882197000006,696.4882197000006,696.9908198000012,696.9908198000012,697.8655536000006,697.8655536000006,None,num_4,0.26861169999938284,697.8655536000006,None,happy,1,Sad,698.1432196600006,None,None,698.1432196600006,None,,,,,,,,,,,,,,,,,,,,,,,,,,,,,,,,,,,,,,,,,,,,,,,,,,,,,39,001,1,21,650,700,2022_Nov_09_1344,Experiment,2021.1.4,360.23314289876737,
images\blank.jpg,images\blank.jpg,none,none,none,none,0,,634,on,2,0.5,0.75,0.5,0.782,0,633,1,1,1,3,3,48,192,240,,,,,,0,29,29,29,,,,,,,,,,,,,,,,,,,,,,,,,,,,,,,,,,,,,,,,,,,,,,,,,,,,,,,,,698.2267931000006,698.7292863000002,698.7292863000002,699.4816902000002,699.4816902000002,699.9844105000011,699.9844105000011,700.7674764000003,700.7674764000003,700.7674764000003,None,,700.7674764000003,None,miss,1,,703.7720930599996,None,None,703.7720930599996,None,,,,,,,,,,,,,,,,,,,,,,,,,,,,,,,,,,,,,,,,,,,,,,,,,,,,,39,001,1,21,650,700,2022_Nov_09_1344,Experiment,2021.1.4,360.23314289876737,
images\S6_M_S_03.png,images\S6_M_S_03_scrambled.png,6,sad,-30,male,1,,336,on,2,0.5,0.75,0.5,0.866,3,335,2,1,1,2,2,32,128,161,,,,,,0,30,30,30,,,,,,,,,,,,,,,,,,,,,,,,,,,,,,,,,,,,,,,,,,,,,,,,,,,,,,,,,703.8889134000001,704.3885134000011,704.3885134000011,705.1438436999997,705.1438436999997,705.6436876000007,705.6436876000007,706.5128566000003,706.5128566000003,None,num_6,0.3254703000002337,706.5128566000003,703.8889134000001,sad,1,Sad,706.8655545700009,None,None,706.8655545700009,None,,,,,,,,,,,,,,,,,,,,,,,,,,,,,,,,,,,,,,,,,,,,,,,,,,,,,39,001,1,21,650,700,2022_Nov_09_1344,Experiment,2021.1.4,360.23314289876737,
images\S2_M_H_03.png,images\S2_M_H_03_scrambled.png,2,happy,30,male,6,,369,off,1,0.5,0.75,0.5,0.85,3,368,1,1,1,0,0,0,0,6,,,,,,0,31,31,31,,,,,,,,,,,,,,,,,,,,,,,,,,,,,,,,,,,,,,,,,,,,,,,,,,,,,,,,,706.9182983999999,707.420961400001,707.420961400001,708.1707158000008,708.1707158000008,708.6761982999997,708.6761982999997,709.5286175000001,709.5286175000001,None,num_4,0.29358610000053886,709.5286175000001,None,happy,1,Happy,709.8368501199999,None,None,709.8368501199999,None,,,,,,,,,,,,,,,,,,,,,,,,,,,,,,,,,,,,,,,,,,,,,,,,,,,,,39,001,1,21,650,700,2022_Nov_09_1344,Experiment,2021.1.4,360.23314289876737,
images\S1_F_S_03.png,images\S1_F_S_03_scrambled.png,1,sad,-30,female,1,,306,on,2,0.5,0.75,0.5,0.785,3,305,1,1,1,2,2,32,128,161,,,,,,0,32,32,32,,,,,,,,,,,,,,,,,,,,,,,,,,,,,,,,,,,,,,,,,,,,,,,,,,,,,,,,,709.8840541999998,710.3866724,710.3866724,711.1364472000005,711.1364472000005,711.6418957000005,711.6418957000005,712.4306249000001,712.4306249000001,None,num_6,0.37581610000052024,712.4306249000001,None,sad,1,Sad,712.8277033800008,None,None,712.8277033800008,None,,,,,,,,,,,,,,,,,,,,,,,,,,,,,,,,,,,,,,,,,,,,,,,,,,,,,39,001,1,21,650,700,2022_Nov_09_1344,Experiment,2021.1.4,360.23314289876737,
images\S6_M_H_03.png,images\S6_M_H_03_scrambled.png,6,happy,30,male,6,,213,on,2,0.5,0.75,0.5,0.896,3,212,2,1,1,2,2,32,128,166,,,,,,0,33,33,33,,,,,,,,,,,,,,,,,,,,,,,,,,,,,,,,,,,,,,,,,,,,,,,,,,,,,,,,,712.8775822000007,713.3803378000011,713.3803378000011,714.1327359000006,714.1327359000006,714.6325830000005,714.6325830000005,715.5323464000012,715.5323464000012,None,num_4,0.29793980000067677,715.5323464000012,None,happy,1,Happy,715.8405834199999,None,None,715.8405834199999,None,,,,,,,,,,,,,,,,,,,,,,,,,,,,,,,,,,,,,,,,,,,,,,,,,,,,,39,001,1,21,650,700,2022_Nov_09_1344,Experiment,2021.1.4,360.23314289876737,
images\S2_M_S_01.png,images\S2_M_S_01_scrambled.png,2,sad,-10,male,3,,310,on,2,0.5,0.75,0.5,0.852,3,309,3,1,1,2,2,32,128,163,,,,,,0,34,34,34,,,,,,,,,,,,,,,,,,,,,,,,,,,,,,,,,,,,,,,,,,,,,,,,,,,,,,,,,715.8877570000004,716.3875960000005,716.3875960000005,717.137369,717.137369,717.637211700001,717.637211700001,718.4925051000009,718.4925051000009,None,num_4,0.6097943999993731,718.4925051000009,None,happy,1,Sad,719.1145773600008,None,None,719.1145773600008,None,,,,,,,,,,,,,,,,,,,,,,,,,,,,,,,,,,,,,,,,,,,,,,,,,,,,,39,001,1,21,650,700,2022_Nov_09_1344,Experiment,2021.1.4,360.23314289876737,
images\S5_F_H_01.png,images\S5_F_H_01_scrambled.png,5,happy,10,female,4,,85,on,2,0.5,0.75,0.5,0.897,3,84,4,1,1,2,2,32,128,164,,,,,,0,35,35,35,,,,,,,,,,,,,,,,,,,,,,,,,,,,,,,,,,,,,,,,,,,,,,,,,,,,,,,,,719.1617504000005,719.6671714000004,719.6671714000004,720.4224935000002,720.4224935000002,720.9278984000011,720.9278984000011,721.8275979999999,721.8275979999999,None,num_4,0.35474210000029416,721.8275979999999,None,happy,1,Happy,722.2053712100003,None,None,722.2053712100003,None,,,,,,,,,,,,,,,,,,,,,,,,,,,,,,,,,,,,,,,,,,,,,,,,,,,,,39,001,1,21,650,700,2022_Nov_09_1344,Experiment,2021.1.4,360.23314289876737,
images\S6_M_H_03.png,images\S6_M_H_03_scrambled.png,6,happy,30,male,6,,33,off,1,0.5,0.75,0.5,0.788,3,32,1,1,1,0,0,0,0,6,,,,,,0,36,36,36,,,,,,,,,,,,,,,,,,,,,,,,,,,,,,,,,,,,,,,,,,,,,,,,,,,,,,,,,722.2580212000012,722.7607767999998,722.7607767999998,723.5160913,723.5160913,724.0185803000004,724.0185803000004,724.8072303999998,724.8072303999998,None,num_4,0.42296969999915746,724.8072303999998,None,happy,1,Happy,725.2460019200004,None,None,725.2460019200004,None,,,,,,,,,,,,,,,,,,,,,,,,,,,,,,,,,,,,,,,,,,,,,,,,,,,,,39,001,1,21,650,700,2022_Nov_09_1344,Experiment,2021.1.4,360.23314289876737,
images\S7_F_H_03.png,images\S7_F_H_03_scrambled.png,7,happy,30,female,6,,39,off,1,0.5,0.75,0.5,0.798,3,38,2,1,2,0,0,0,0,6,,,,,,0,37,37,37,,,,,,,,,,,,,,,,,,,,,,,,,,,,,,,,,,,,,,,,,,,,,,,,,,,,,,,,,725.2932008999996,725.7959644000002,725.7959644000002,726.5512436000008,726.5512436000008,727.0537608000013,727.0537608000013,727.8564426000012,727.8564426000012,None,num_4,0.3018242000016471,727.8564426000012,None,happy,1,Happy,728.1868202400011,None,None,728.1868202400011,None,,,,,,,,,,,,,,,,,,,,,,,,,,,,,,,,,,,,,,,,,,,,,,,,,,,,,39,001,1,21,650,700,2022_Nov_09_1344,Experiment,2021.1.4,360.23314289876737,
images\S8_M_S_01.png,images\S8_M_S_01_scrambled.png,8,sad,-10,male,3,,286,off,1,0.5,0.75,0.5,0.851,3,285,3,1,1,0,0,0,0,3,,,,,,0,38,38,38,,,,,,,,,,,,,,,,,,,,,,,,,,,,,,,,,,,,,,,,,,,,,,,,,,,,,,,,,728.2395109000008,728.7421712000014,728.7421712000014,729.4974789999997,729.4974789999997,730.002887300001,730.002887300001,730.8610401000005,730.8610401000005,None,num_6,1.2411678999997093,730.8610401000005,None,sad,1,Sad,732.11610712,None,None,732.11610712,None,,,,,,,,,,,,,,,,,,,,,,,,,,,,,,,,,,,,,,,,,,,,,,,,,,,,,39,001,1,21,650,700,2022_Nov_09_1344,Experiment,2021.1.4,360.23314289876737,
images\S1_F_H_01.png,images\S1_F_H_01_scrambled.png,1,happy,10,female,4,,421,on,2,0.5,0.75,0.5,0.85,3,420,1,1,1,2,2,32,128,164,,,,,,0,39,39,39,,,,,,,,,,,,,,,,,,,,,,,,,,,,,,,,,,,,,,,,,,,,,,,,,,,,,,,,,732.166079300001,732.6687266999998,732.6687266999998,733.4212717999999,733.4212717999999,733.9210906999997,733.9210906999997,734.7736334000001,734.7736334000001,None,num_4,0.272894499999893,734.7736334000001,None,happy,1,Happy,735.0680683800005,None,None,735.0680683800005,None,,,,,,,,,,,,,,,,,,,,,,,,,,,,,,,,,,,,,,,,,,,,,,,,,,,,,39,001,1,21,650,700,2022_Nov_09_1344,Experiment,2021.1.4,360.23314289876737,
images\S6_M_S_02.png,images\S6_M_S_02_scrambled.png,6,sad,-20,male,2,,455,on,2,0.5,0.75,0.5,0.751,3,454,2,1,1,2,2,32,128,162,,,,,,0,40,40,40,,,,,,,,,,,,,,,,,,,,,,,,,,,,,,,,,,,,,,,,,,,,,,,,,,,,,,,,,735.1179475999998,735.6177954000013,735.6177954000013,736.3675613000014,736.3675613000014,736.8729985000009,736.8729985000009,737.6283254000009,737.6283254000009,None,num_6,0.3379045000001497,737.6283254000009,None,sad,1,Sad,737.9810134500012,None,None,737.9810134500012,None,,,,,,,,,,,,,,,,,,,,,,,,,,,,,,,,,,,,,,,,,,,,,,,,,,,,,39,001,1,21,650,700,2022_Nov_09_1344,Experiment,2021.1.4,360.23314289876737,
images\S8_M_H_01.png,images\S8_M_H_01_scrambled.png,8,happy,10,male,4,,403,off,1,0.5,0.75,0.5,0.903,3,402,1,1,1,0,0,0,0,4,,,,,,0,41,41,41,,,,,,,,,,,,,,,,,,,,,,,,,,,,,,,,,,,,,,,,,,,,,,,,,,,,,,,,,738.0309414000003,738.5335854000004,738.5335854000004,739.2861469,739.2861469,739.7887549000006,739.7887549000006,740.6940394000012,740.6940394000012,None,num_4,0.4003337999984069,740.6940394000012,None,happy,1,Happy,741.1050897199999,None,None,741.1050897199999,None,,,,,,,,,,,,,,,,,,,,,,,,,,,,,,,,,,,,,,,,,,,,,,,,,,,,,39,001,1,21,650,700,2022_Nov_09_1344,Experiment,2021.1.4,360.23314289876737,
images\S5_F_H_03.png,images\S5_F_H_03_scrambled.png,5,happy,30,female,6,,27,off,1,0.5,0.75,0.5,0.825,3,26,2,1,1,0,0,0,0,6,,,,,,0,42,42,42,,,,,,,,,,,,,,,,,,,,,,,,,,,,,,,,,,,,,,,,,,,,,,,,,,,,,,,,,741.1549840999996,741.6576433999999,741.6576433999999,742.4129592999998,742.4129592999998,742.9127727000014,742.9127727000014,743.7431131000012,743.7431131000012,None,num_4,0.37507670000013604,743.7431131000012,None,happy,1,Happy,744.1318521200006,None,None,744.1318521200006,None,,,,,,,,,,,,,,,,,,,,,,,,,,,,,,,,,,,,,,,,,,,,,,,,,,,,,39,001,1,21,650,700,2022_Nov_09_1344,Experiment,2021.1.4,360.23314289876737,
images\S6_M_S_01.png,images\S6_M_S_01_scrambled.png,6,sad,-10,male,3,,274,off,1,0.5,0.75,0.5,0.925,3,273,3,1,1,0,0,0,0,3,,,,,,0,43,43,43,,,,,,,,,,,,,,,,,,,,,,,,,,,,,,,,,,,,,,,,,,,,,,,,,,,,,,,,,744.1790449,744.6817874999997,744.6817874999997,745.4371191000009,745.4371191000009,745.9396092000006,745.9396092000006,746.8671529000003,746.8671529000003,None,num_6,0.3788507999997819,746.8671529000003,None,sad,1,Sad,747.27545841,None,None,747.27545841,None,,,,,,,,,,,,,,,,,,,,,,,,,,,,,,,,,,,,,,,,,,,,,,,,,,,,,39,001,1,21,650,700,2022_Nov_09_1344,Experiment,2021.1.4,360.23314289876737,
images\S7_F_S_02.png,images\S7_F_S_02_scrambled.png,7,sad,-20,female,2,,581,on,2,0.5,0.75,0.5,0.908,3,580,1,1,1,2,2,32,128,162,,,,,,0,44,44,44,,,,,,,,,,,,,,,,,,,,,,,,,,,,,,,,,,,,,,,,,,,,,,,,,,,,,,,,,747.3280806000002,747.8335414000012,747.8335414000012,748.5888430000014,748.5888430000014,749.0942229000011,749.0942229000011,750.0050558000003,750.0050558000003,None,num_6,0.30563059999985853,750.0050558000003,None,sad,1,Sad,750.330061680001,None,None,750.330061680001,None,,,,,,,,,,,,,,,,,,,,,,,,,,,,,,,,,,,,,,,,,,,,,,,,,,,,,39,001,1,21,650,700,2022_Nov_09_1344,Experiment,2021.1.4,360.23314289876737,
images\S3_F_H_03.png,images\S3_F_H_03_scrambled.png,3,happy,30,female,6,,195,on,2,0.5,0.75,0.5,0.802,3,194,2,1,1,2,2,32,128,166,,,,,,0,45,45,45,,,,,,,,,,,,,,,,,,,,,,,,,,,,,,,,,,,,,,,,,,,,,,,,,,,,,,,,,750.3826949000013,750.8853283000008,750.8853283000008,751.6379775000005,751.6379775000005,752.1405018000005,752.1405018000005,752.9486113000003,752.9486113000003,None,num_4,0.34595619999890914,752.9486113000003,None,happy,1,Happy,753.3180361100001,None,None,753.3180361100001,None,,,,,,,,,,,,,,,,,,,,,,,,,,,,,,,,,,,,,,,,,,,,,,,,,,,,,39,001,1,21,650,700,2022_Nov_09_1344,Experiment,2021.1.4,360.23314289876737,
images\S9_F_S_01.png,images\S9_F_S_01_scrambled.png,9,sad,-10,female,3,,292,off,1,0.5,0.75,0.5,0.821,3,291,1,1,1,0,0,0,0,3,,,,,,0,46,46,46,,,,,,,,,,,,,,,,,,,,,,,,,,,,,,,,,,,,,,,,,,,,,,,,,,,,,,,,,753.3678921999999,753.870518400001,753.870518400001,754.6202739,754.6202739,755.1229891000003,755.1229891000003,755.9504396000011,755.9504396000011,None,num_4,0.6398946000008436,755.9504396000011,None,happy,1,Sad,756.6002077900013,None,None,756.6002077900013,None,,,,,,,,,,,,,,,,,,,,,,,,,,,,,,,,,,,,,,,,,,,,,,,,,,,,,39,001,1,21,650,700,2022_Nov_09_1344,Experiment,2021.1.4,360.23314289876737,
images\S9_F_H_03.png,images\S9_F_H_03_scrambled.png,9,happy,30,female,6,,591,on,2,0.5,0.75,0.5,0.814,3,590,1,2,1,2,2,32,128,166,,,,,,0,47,47,47,,,,,,,,,,,,,,,,,,,,,,,,,,,,,,,,,,,,,,,,,,,,,,,,,,,,,,,,,756.6613096000001,757.1611606000006,757.1611606000006,757.9137590000009,757.9137590000009,758.4135545999998,758.4135545999998,759.2299899999998,759.2299899999998,None,num_4,0.3998742999992828,759.2299899999998,None,happy,1,Happy,759.6409587200011,None,None,759.6409587200011,None,,,,,,,,,,,,,,,,,,,,,,,,,,,,,,,,,,,,,,,,,,,,,,,,,,,,,39,001,1,21,650,700,2022_Nov_09_1344,Experiment,2021.1.4,360.23314289876737,
images\S7_F_H_03.png,images\S7_F_H_03_scrambled.png,7,happy,30,female,6,,399,off,1,0.5,0.75,0.5,0.875,3,398,1,1,2,0,0,0,0,6,,,,,,0,48,48,48,,,,,,,,,,,,,,,,,,,,,,,,,,,,,,,,,,,,,,,,,,,,,,,,,,,,,,,,,759.6881622000001,760.1908144000008,760.1908144000008,760.9461287000013,760.9461287000013,761.4488271000009,761.4488271000009,762.3262517000003,762.3262517000003,None,num_4,0.3760521999993216,762.3262517000003,None,happy,1,Happy,762.7234591400003,None,None,762.7234591400003,None,,,,,,,,,,,,,,,,,,,,,,,,,,,,,,,,,,,,,,,,,,,,,,,,,,,,,39,001,1,21,650,700,2022_Nov_09_1344,Experiment,2021.1.4,360.23314289876737,
images\S2_M_H_01.png,images\S2_M_H_01_scrambled.png,2,happy,10,male,4,,187,on,2,0.5,0.75,0.5,0.927,3,186,1,1,1,2,2,32,128,164,,,,,,0,49,49,49,,,,,,,,,,,,,,,,,,,,,,,,,,,,,,,,,,,,,,,,,,,,,,,,,,,,,,,,,762.7760998000012,763.2814909999997,763.2814909999997,764.0368230000004,764.0368230000004,764.5395194000012,764.5395194000012,765.4697735999998,765.4697735999998,None,num_4,0.41674200000124983,765.4697735999998,None,happy,1,Happy,765.9086099100002,None,None,765.9086099100002,None,,,,,,,,,,,,,,,,,,,,,,,,,,,,,,,,,,,,,,,,,,,,,,,,,,,,,39,001,1,21,650,700,2022_Nov_09_1344,Experiment,2021.1.4,360.23314289876737,
images\S10_M_S_01.png,images\S10_M_S_01_scrambled.png,10,sad,-10,male,3,,238,on,2,0.5,0.75,0.5,0.811,3,237,2,1,1,2,2,32,128,163,,,,,,0,50,50,50,,,,,,,,,,,,,,,,,,,,,,,,,,,,,,,,,,,,,,,,,,,,,,,,,,,,,,,,,765.9584511000012,766.4639939000008,766.4639939000008,767.2136444000007,767.2136444000007,767.7134586000011,767.7134586000011,768.5243231000004,768.5243231000004,None,num_4,0.3698509000005288,768.5243231000004,None,happy,1,Sad,768.90201176,None,None,768.90201176,None,,,,,,,,,,,,,,,,,,,,,,,,,,,,,,,,,,,,,,,,,,,,,,,,,,,,,39,001,1,21,650,700,2022_Nov_09_1344,Experiment,2021.1.4,360.23314289876737,
images\S4_M_S_03.png,images\S4_M_S_03_scrambled.png,4,sad,-30,male,1,,264,off,1,0.5,0.75,0.5,0.844,3,263,1,1,1,0,0,0,0,1,,,,,,0,51,51,51,,,,,,,,,,,,,,,,,,,,,,,,,,,,,,,,,,,,,,,,,,,,,,,,,,,,,,,,,768.9519775000008,769.4546588000012,769.4546588000012,770.2071550000001,770.2071550000001,770.7098033000002,770.7098033000002,771.5595721000009,771.5595721000009,None,num_6,1.0707046000006812,771.5595721000009,None,sad,1,Sad,772.645292320001,None,None,772.645292320001,None,,,,,,,,,,,,,,,,,,,,,,,,,,,,,,,,,,,,,,,,,,,,,,,,,,,,,39,001,1,21,650,700,2022_Nov_09_1344,Experiment,2021.1.4,360.23314289876737,
images\S6_M_S_01.png,images\S6_M_S_01_scrambled.png,6,sad,-10,male,3,,154,off,1,0.5,0.75,0.5,0.85,3,153,2,1,1,0,0,0,0,3,,,,,,0,52,52,52,,,,,,,,,,,,,,,,,,,,,,,,,,,,,,,,,,,,,,,,,,,,,,,,,,,,,,,,,772.6924954000006,773.1923323999999,773.1923323999999,773.9450431000005,773.9450431000005,774.4503660999999,774.4503660999999,775.3028018000005,775.3028018000005,None,num_4,1.2314186000003247,775.3028018000005,None,happy,1,Sad,776.5440863600004,None,None,776.5440863600004,None,,,,,,,,,,,,,,,,,,,,,,,,,,,,,,,,,,,,,,,,,,,,,,,,,,,,,39,001,1,21,650,700,2022_Nov_09_1344,Experiment,2021.1.4,360.23314289876737,
images\S1_F_S_02.png,images\S1_F_S_02_scrambled.png,1,sad,-20,female,2,,365,off,1,0.5,0.75,0.5,0.81,3,364,3,1,1,0,0,0,0,2,,,,,,0,53,53,53,,,,,,,,,,,,,,,,,,,,,,,,,,,,,,,,,,,,,,,,,,,,,,,,,,,,,,,,,776.5912934999997,777.0939381000007,777.0939381000007,777.8492377000002,777.8492377000002,778.3518921000014,778.3518921000014,779.1654919000011,779.1654919000011,None,num_4,0.2486823999988701,779.1654919000011,None,happy,1,Sad,779.4237477600007,None,None,779.4237477600007,None,,,,,,,,,,,,,,,,,,,,,,,,,,,,,,,,,,,,,,,,,,,,,,,,,,,,,39,001,1,21,650,700,2022_Nov_09_1344,Experiment,2021.1.4,360.23314289876737,
images\S7_F_S_01.png,images\S7_F_S_01_scrambled.png,7,sad,-10,female,3,,520,off,1,0.5,0.75,0.5,0.923,3,519,4,1,1,0,0,0,0,3,,,,,,0,54,54,54,,,,,,,,,,,,,,,,,,,,,,,,,,,,,,,,,,,,,,,,,,,,,,,,,,,,,,,,,779.4876287000006,779.993158700001,779.993158700001,780.748428500001,780.748428500001,781.2537943999996,781.2537943999996,782.1785369000008,782.1785369000008,None,num_4,0.4274505000012141,782.1785369000008,None,happy,1,Sad,782.6144602900005,None,None,782.6144602900005,None,,,,,,,,,,,,,,,,,,,,,,,,,,,,,,,,,,,,,,,,,,,,,,,,,,,,,39,001,1,21,650,700,2022_Nov_09_1344,Experiment,2021.1.4,360.23314289876737,
images\S6_M_H_03.png,images\S6_M_H_03_scrambled.png,6,happy,30,male,6,,333,on,2,0.5,0.75,0.5,0.937,3,332,1,1,1,2,2,32,128,166,,,,,,0,55,55,55,,,,,,,,,,,,,,,,,,,,,,,,,,,,,,,,,,,,,,,,,,,,,,,,,,,,,,,,,782.6866377000006,783.1892994000009,783.1892994000009,783.9390202000013,783.9390202000013,784.4444495999996,784.4444495999996,785.3886331000012,785.3886331000012,None,num_4,0.3455584999992425,785.3886331000012,None,happy,1,Happy,785.7580243800006,None,None,785.7580243800006,None,,,,,,,,,,,,,,,,,,,,,,,,,,,,,,,,,,,,,,,,,,,,,,,,,,,,,39,001,1,21,650,700,2022_Nov_09_1344,Experiment,2021.1.4,360.23314289876737,
images\S9_F_S_01.png,images\S9_F_S_01_scrambled.png,9,sad,-10,female,3,,112,on,2,0.5,0.75,0.5,0.906,3,111,2,1,1,2,2,32,128,163,,,,,,0,56,56,56,,,,,,,,,,,,,,,,,,,,,,,,,,,,,,,,,,,,,,,,,,,,,,,,,,,,,,,,,785.8078966000012,786.3105238000007,786.3105238000007,787.0631864000006,787.0631864000006,787.5685372000007,787.5685372000007,788.4793343000001,788.4793343000001,None,num_4,0.34287659999972675,788.4793343000001,None,happy,1,Sad,788.8292906900007,None,None,788.8292906900007,None,,,,,,,,,,,,,,,,,,,,,,,,,,,,,,,,,,,,,,,,,,,,,,,,,,,,,39,001,1,21,650,700,2022_Nov_09_1344,Experiment,2021.1.4,360.23314289876737,
images\S1_F_S_01.png,images\S1_F_S_01_scrambled.png,1,sad,-10,female,3,,184,on,2,0.5,0.75,0.5,0.826,3,183,3,1,2,2,2,32,128,163,,,,,,0,57,57,57,,,,,,,,,,,,,,,,,,,,,,,,,,,,,,,,,,,,,,,,,,,,,,,,,,,,,,,,,788.8819589000013,789.3845715000007,789.3845715000007,790.1398989000008,790.1398989000008,790.6426502000013,790.6426502000013,791.4756095000012,791.4756095000012,None,num_4,0.4267374999999447,791.4756095000012,None,happy,1,Sad,791.9115770600008,None,None,791.9115770600008,None,,,,,,,,,,,,,,,,,,,,,,,,,,,,,,,,,,,,,,,,,,,,,,,,,,,,,39,001,1,21,650,700,2022_Nov_09_1344,Experiment,2021.1.4,360.23314289876737,
images\S10_M_S_03.png,images\S10_M_S_03_scrambled.png,10,sad,-30,male,1,,540,off,1,0.5,0.75,0.5,0.867,3,539,1,1,1,0,0,0,0,1,,,,,,0,58,58,58,,,,,,,,,,,,,,,,,,,,,,,,,,,,,,,,,,,,,,,,,,,,,,,,,,,,,,,,,791.9587819999997,792.4642196000004,792.4642196000004,793.2195272999998,793.2195272999998,793.7249284000009,793.7249284000009,794.5941198,794.5941198,None,num_6,0.3560481999993499,794.5941198,None,sad,1,Sad,794.9661931200004,None,None,794.9661931200004,None,,,,,,,,,,,,,,,,,,,,,,,,,,,,,,,,,,,,,,,,,,,,,,,,,,,,,39,001,1,21,650,700,2022_Nov_09_1344,Experiment,2021.1.4,360.23314289876737,
images\S10_M_H_01.png,images\S10_M_H_01_scrambled.png,10,happy,10,male,4,,475,on,2,0.5,0.75,0.5,0.796,3,474,1,2,1,2,2,32,128,164,,,,,,0,59,59,59,,,,,,,,,,,,,,,,,,,,,,,,,,,,,,,,,,,,,,,,,,,,,,,,,,,,,,,,,795.0134006999997,795.5160248000011,795.5160248000011,796.2685708999998,796.2685708999998,796.7712397000014,796.7712397000014,797.5737773000001,797.5737773000001,None,num_4,0.3603207000014663,797.5737773000001,None,happy,1,Happy,797.9458217200005,None,None,797.9458217200005,None,,,,,,,,,,,,,,,,,,,,,,,,,,,,,,,,,,,,,,,,,,,,,,,,,,,,,39,001,1,21,650,700,2022_Nov_09_1344,Experiment,2021.1.4,360.23314289876737,
images\S6_M_H_02.png,images\S6_M_H_02_scrambled.png,6,happy,20,male,5,,92,on,2,0.5,0.75,0.5,0.808,3,91,2,1,1,2,2,32,128,165,,,,,,0,60,60,60,,,,,,,,,,,,,,,,,,,,,,,,,,,,,,,,,,,,,,,,,,,,,,,,,,,,,,,,,797.9930364000011,798.4985510000006,798.4985510000006,799.2538146000006,799.2538146000006,799.7591916000001,799.7591916000001,800.5700268,800.5700268,None,num_4,0.3880031000007875,800.5700268,None,happy,1,Happy,800.9726746200009,None,None,800.9726746200009,None,,,,,,,,,,,,,,,,,,,,,,,,,,,,,,,,,,,,,,,,,,,,,,,,,,,,,39,001,1,21,650,700,2022_Nov_09_1344,Experiment,2021.1.4,360.23314289876737,
images\S3_F_S_01.png,images\S3_F_S_01_scrambled.png,3,sad,-10,female,3,,556,on,2,0.5,0.75,0.5,0.909,3,555,3,1,1,2,2,32,128,163,,,,,,0,61,61,61,,,,,,,,,,,,,,,,,,,,,,,,,,,,,,,,,,,,,,,,,,,,,,,,,,,,,,,,,801.0198816000011,801.525295200001,801.525295200001,802.2778409000002,802.2778409000002,802.7833042000002,802.7833042000002,803.6968257999997,803.6968257999997,None,num_6,0.2937621000000945,803.6968257999997,None,sad,1,Sad,804.0107318800004,None,None,804.0107318800004,None,,,,,,,,,,,,,,,,,,,,,,,,,,,,,,,,,,,,,,,,,,,,,,,,,,,,,39,001,1,21,650,700,2022_Nov_09_1344,Experiment,2021.1.4,360.23314289876737,
images\S7_F_S_01.png,images\S7_F_S_01_scrambled.png,7,sad,-10,female,3,,580,on,2,0.5,0.75,0.5,0.827,3,579,4,1,2,2,2,32,128,163,,,,,,0,62,62,62,,,,,,,,,,,,,,,,,,,,,,,,,,,,,,,,,,,,,,,,,,,,,,,,,,,,,,,,,804.0633902000009,804.5632427,804.5632427,805.3186028,805.3186028,805.8240108999998,805.8240108999998,806.6514736000008,806.6514736000008,None,num_4,0.298758100001578,806.6514736000008,None,happy,1,Sad,806.9598273900011,None,None,806.9598273900011,None,,,,,,,,,,,,,,,,,,,,,,,,,,,,,,,,,,,,,,,,,,,,,,,,,,,,,39,001,1,21,650,700,2022_Nov_09_1344,Experiment,2021.1.4,360.23314289876737,
images\S1_F_H_03.png,images\S1_F_H_03_scrambled.png,1,happy,30,female,6,,543,on,2,0.5,0.75,0.5,0.848,3,542,5,1,1,2,2,32,128,166,,,,,,0,63,63,63,,,,,,,,,,,,,,,,,,,,,,,,,,,,,,,,,,,,,,,,,,,,,,,,,,,,,,,,,807.0208032999999,807.5234638000002,807.5234638000002,808.2759846000008,808.2759846000008,808.7786539999997,808.7786539999997,809.6284374000006,809.6284374000006,None,num_4,0.24182719999953406,809.6284374000006,None,happy,1,Happy,809.8866804800003,None,None,809.8866804800003,None,,,,,,,,,,,,,,,,,,,,,,,,,,,,,,,,,,,,,,,,,,,,,,,,,,,,,39,001,1,21,650,700,2022_Nov_09_1344,Experiment,2021.1.4,360.23314289876737,
images\S2_M_H_01.png,images\S2_M_H_01_scrambled.png,2,happy,10,male,4,,487,off,1,0.5,0.75,0.5,0.926,3,486,1,1,1,0,0,0,0,4,,,,,,0,64,64,64,,,,,,,,,,,,,,,,,,,,,,,,,,,,,,,,,,,,,,,,,,,,,,,,,,,,,,,,,809.9393541000009,810.4447814000014,810.4447814000014,811.1974449999998,811.1974449999998,811.6999498000005,811.6999498000005,812.6274079000013,812.6274079000013,None,num_4,0.2745452999988629,812.6274079000013,None,happy,1,Happy,812.9134405199999,None,None,812.9134405199999,None,,,,,,,,,,,,,,,,,,,,,,,,,,,,,,,,,,,,,,,,,,,,,,,,,,,,,39,001,1,21,650,700,2022_Nov_09_1344,Experiment,2021.1.4,360.23314289876737,
images\S3_F_H_02.png,images\S3_F_H_02_scrambled.png,3,happy,20,female,5,,554,on,2,0.5,0.75,0.5,0.826,3,553,1,1,1,2,2,32,128,165,,,,,,0,65,65,65,,,,,,,,,,,,,,,,,,,,,,,,,,,,,,,,,,,,,,,,,,,,,,,,,,,,,,,,,812.9606515000014,813.4660604000001,813.4660604000001,814.2158262000012,814.2158262000012,814.7185124999996,814.7185124999996,815.5487329000007,815.5487329000007,None,num_6,0.3535191000009945,815.5487329000007,None,sad,1,Happy,815.9069681600001,None,None,815.9069681600001,None,,,,,,,,,,,,,,,,,,,,,,,,,,,,,,,,,,,,,,,,,,,,,,,,,,,,,39,001,1,21,650,700,2022_Nov_09_1344,Experiment,2021.1.4,360.23314289876737,
images\S1_F_H_02.png,images\S1_F_H_02_scrambled.png,1,happy,20,female,5,,62,on,2,0.5,0.75,0.5,0.788,3,61,2,1,2,2,2,32,128,165,,,,,,0,66,66,66,,,,,,,,,,,,,,,,,,,,,,,,,,,,,,,,,,,,,,,,,,,,,,,,,,,,,,,,,815.954170500001,816.4567858999999,816.4567858999999,817.2065663000012,817.2065663000012,817.7092212999996,817.7092212999996,818.5034726000013,818.5034726000013,None,num_4,0.36682180000025255,818.5034726000013,None,happy,1,Happy,818.8922584399999,None,None,818.8922584399999,None,,,,,,,,,,,,,,,,,,,,,,,,,,,,,,,,,,,,,,,,,,,,,,,,,,,,,39,001,1,21,650,700,2022_Nov_09_1344,Experiment,2021.1.4,360.23314289876737,
images\S2_M_H_01.png,images\S2_M_H_01_scrambled.png,2,happy,10,male,4,,7,off,1,0.5,0.75,0.5,0.916,3,6,1,1,1,0,0,0,0,4,,,,,,0,67,67,67,,,,,,,,,,,,,,,,,,,,,,,,,,,,,,,,,,,,,,,,,,,,,,,,,,,,,,,,,818.9449216000012,819.4503299000007,819.4503299000007,820.202991600001,820.202991600001,820.7054988,820.7054988,821.6246624000014,821.6246624000014,None,num_4,0.2694359000015538,821.6246624000014,None,happy,1,Happy,821.9106752200001,None,None,821.9106752200001,None,,,,,,,,,,,,,,,,,,,,,,,,,,,,,,,,,,,,,,,,,,,,,,,,,,,,,39,001,1,21,650,700,2022_Nov_09_1344,Experiment,2021.1.4,360.23314289876737,
images\S4_M_S_02.png,images\S4_M_S_02_scrambled.png,4,sad,-20,male,2,,443,on,2,0.5,0.75,0.5,0.894,3,442,1,1,1,2,2,32,128,162,,,,,,0,68,68,68,,,,,,,,,,,,,,,,,,,,,,,,,,,,,,,,,,,,,,,,,,,,,,,,,,,,,,,,,821.9606538000007,822.4632860000002,822.4632860000002,823.2186547000001,823.2186547000001,823.7240564000003,823.7240564000003,824.6209555000005,824.6209555000005,None,num_6,0.29704149999997753,824.6209555000005,None,sad,1,Sad,824.929181520001,None,None,824.929181520001,None,,,,,,,,,,,,,,,,,,,,,,,,,,,,,,,,,,,,,,,,,,,,,,,,,,,,,39,001,1,21,650,700,2022_Nov_09_1344,Experiment,2021.1.4,360.23314289876737,
images\S4_M_S_01.png,images\S4_M_S_01_scrambled.png,4,sad,-10,male,3,,562,on,2,0.5,0.75,0.5,0.754,3,561,2,2,1,2,2,32,128,163,,,,,,0,69,69,69,,,,,,,,,,,,,,,,,,,,,,,,,,,,,,,,,,,,,,,,,,,,,,,,,,,,,,,,,824.9791741000008,825.4817887999998,825.4817887999998,826.2343349000002,826.2343349000002,826.7341858,826.7341858,827.492400000001,827.492400000001,None,num_6,0.30576839999957883,827.492400000001,None,sad,1,Sad,827.8200457799998,None,None,827.8200457799998,None,,,,,,,,,,,,,,,,,,,,,,,,,,,,,,,,,,,,,,,,,,,,,,,,,,,,,39,001,1,21,650,700,2022_Nov_09_1344,Experiment,2021.1.4,360.23314289876737,
images\S9_F_S_03.png,images\S9_F_S_03_scrambled.png,9,sad,-30,female,1,,54,off,1,0.5,0.75,0.5,0.949,3,53,1,1,1,0,0,0,0,1,,,,,,0,70,70,70,,,,,,,,,,,,,,,,,,,,,,,,,,,,,,,,,,,,,,,,,,,,,,,,,,,,,,,,,827.8921354000013,828.3948067000001,828.3948067000001,829.1501224000003,829.1501224000003,829.6527567000012,829.6527567000012,830.6052326999998,830.6052326999998,None,num_4,1.3446258999993006,830.6052326999998,None,happy,1,Sad,831.9603532600001,None,None,831.9603532600001,None,,,,,,,,,,,,,,,,,,,,,,,,,,,,,,,,,,,,,,,,,,,,,,,,,,,,,39,001,1,21,650,700,2022_Nov_09_1344,Experiment,2021.1.4,360.23314289876737,
images\S5_F_H_01.png,images\S5_F_H_01_scrambled.png,5,happy,10,female,4,,25,off,1,0.5,0.75,0.5,0.755,3,24,2,1,1,0,0,0,0,4,,,,,,0,71,71,71,,,,,,,,,,,,,,,,,,,,,,,,,,,,,,,,,,,,,,,,,,,,,,,,,,,,,,,,,832.0103326999997,832.5157476000004,832.5157476000004,833.2655020000002,833.2655020000002,833.7682396,833.7682396,834.5234651999999,834.5234651999999,None,num_4,0.24267800000052375,834.5234651999999,None,happy,1,Happy,834.7817160200008,None,None,834.7817160200008,None,,,,,,,,,,,,,,,,,,,,,,,,,,,,,,,,,,,,,,,,,,,,,,,,,,,,,39,001,1,21,650,700,2022_Nov_09_1344,Experiment,2021.1.4,360.23314289876737,
images\S2_M_S_03.png,images\S2_M_S_03_scrambled.png,2,sad,-30,male,1,,552,on,2,0.5,0.75,0.5,0.782,3,551,1,1,1,2,2,32,128,161,,,,,,0,72,72,72,,,,,,,,,,,,,,,,,,,,,,,,,,,,,,,,,,,,,,,,,,,,,,,,,,,,,,,,,834.8316957000006,835.3344097000008,835.3344097000008,836.0896877000014,836.0896877000014,836.5950759000007,836.5950759000007,837.3809344000001,837.3809344000001,None,num_6,0.20896859999993467,837.3809344000001,None,sad,1,Sad,837.6058416200009,None,None,837.6058416200009,None,,,,,,,,,,,,,,,,,,,,,,,,,,,,,,,,,,,,,,,,,,,,,,,,,,,,,39,001,1,21,650,700,2022_Nov_09_1344,Experiment,2021.1.4,360.23314289876737,
images\S8_M_S_01.png,images\S8_M_S_01_scrambled.png,8,sad,-10,male,3,,406,off,1,0.5,0.75,0.5,0.848,3,405,1,1,1,0,0,0,0,3,,,,,,0,73,73,73,,,,,,,,,,,,,,,,,,,,,,,,,,,,,,,,,,,,,,,,,,,,,,,,,,,,,,,,,837.6558253000003,838.1585977000013,838.1585977000013,838.9082402000004,838.9082402000004,839.4080950999996,839.4080950999996,840.2605992999997,840.2605992999997,None,num_4,0.2096715999996377,840.2605992999997,None,happy,1,Sad,840.4800133600008,None,None,840.4800133600008,None,,,,,,,,,,,,,,,,,,,,,,,,,,,,,,,,,,,,,,,,,,,,,,,,,,,,,39,001,1,21,650,700,2022_Nov_09_1344,Experiment,2021.1.4,360.23314289876737,
images\S10_M_H_02.png,images\S10_M_H_02_scrambled.png,10,happy,20,male,5,,116,on,2,0.5,0.75,0.5,0.778,3,115,1,1,1,2,2,32,128,165,,,,,,0,74,74,74,,,,,,,,,,,,,,,,,,,,,,,,,,,,,,,,,,,,,,,,,,,,,,,,,,,,,,,,,840.5354884999997,841.0382502000011,841.0382502000011,841.7906799000011,841.7906799000011,842.2960798000004,842.2960798000004,843.0792471000004,843.0792471000004,None,num_4,0.21490799999992305,843.0792471000004,None,happy,1,Happy,843.3041205200003,None,None,843.3041205200003,None,,,,,,,,,,,,,,,,,,,,,,,,,,,,,,,,,,,,,,,,,,,,,,,,,,,,,39,001,1,21,650,700,2022_Nov_09_1344,Experiment,2021.1.4,360.23314289876737,
images\S7_F_S_01.png,images\S7_F_S_01_scrambled.png,7,sad,-10,female,3,,400,off,1,0.5,0.75,0.5,0.92,3,399,1,1,1,0,0,0,0,3,,,,,,0,75,75,75,,,,,,,,,,,,,,,,,,,,,,,,,,,,,,,,,,,,,,,,,,,,,,,,,,,,,,,,,843.3540752000008,843.8539277,843.8539277,844.6092851000012,844.6092851000012,845.1146922000007,845.1146922000007,846.0394128999997,846.0394128999997,None,num_6,0.5828182999994169,846.0394128999997,None,sad,1,Sad,846.6364039200013,None,None,846.6364039200013,None,,,,,,,,,,,,,,,,,,,,,,,,,,,,,,,,,,,,,,,,,,,,,,,,,,,,,39,001,1,21,650,700,2022_Nov_09_1344,Experiment,2021.1.4,360.23314289876737,
images\S3_F_S_02.png,images\S3_F_S_02_scrambled.png,3,sad,-20,female,2,,497,off,1,0.5,0.75,0.5,0.803,3,496,2,1,1,0,0,0,0,2,,,,,,0,76,76,76,,,,,,,,,,,,,,,,,,,,,,,,,,,,,,,,,,,,,,,,,,,,,,,,,,,,,,,,,846.6863774000012,847.1891305000008,847.1891305000008,847.9443865000012,847.9443865000012,848.4497803000013,848.4497803000013,849.2550588000013,849.2550588000013,None,num_6,0.1911309999995865,849.2550588000013,None,sad,1,Sad,849.4605357200013,None,None,849.4605357200013,None,,,,,,,,,,,,,,,,,,,,,,,,,,,,,,,,,,,,,,,,,,,,,,,,,,,,,39,001,1,21,650,700,2022_Nov_09_1344,Experiment,2021.1.4,360.23314289876737,
images\S7_F_S_01.png,images\S7_F_S_01_scrambled.png,7,sad,-10,female,3,,280,off,1,0.5,0.75,0.5,0.918,3,279,3,1,1,0,0,0,0,3,,,,,,0,77,77,77,,,,,,,,,,,,,,,,,,,,,,,,,,,,,,,,,,,,,,,,,,,,,,,,,,,,,,,,,849.5105062000002,850.0103503999999,850.0103503999999,850.7601173000003,850.7601173000003,851.2627857999996,851.2627857999996,852.1847463000013,852.1847463000013,None,num_6,0.22144500000104017,852.1847463000013,None,sad,1,Sad,852.4346209400002,None,None,852.4346209400002,None,,,,,,,,,,,,,,,,,,,,,,,,,,,,,,,,,,,,,,,,,,,,,,,,,,,,,39,001,1,21,650,700,2022_Nov_09_1344,Experiment,2021.1.4,360.23314289876737,
images\S10_M_H_02.png,images\S10_M_H_02_scrambled.png,10,happy,20,male,5,,296,off,1,0.5,0.75,0.5,0.758,3,295,4,1,1,0,0,0,0,5,,,,,,0,78,78,78,,,,,,,,,,,,,,,,,,,,,,,,,,,,,,,,,,,,,,,,,,,,,,,,,,,,,,,,,852.4873688000007,852.9900292000002,852.9900292000002,853.7453476999999,853.7453476999999,854.2507366000009,854.2507366000009,855.0144419999997,855.0144419999997,None,num_4,0.2556223999999929,855.0144419999997,None,happy,1,Happy,855.2949245400006,None,None,855.2949245400006,None,,,,,,,,,,,,,,,,,,,,,,,,,,,,,,,,,,,,,,,,,,,,,,,,,,,,,39,001,1,21,650,700,2022_Nov_09_1344,Experiment,2021.1.4,360.23314289876737,
images\S10_M_S_02.png,images\S10_M_S_02_scrambled.png,10,sad,-20,male,2,,539,off,1,0.5,0.75,0.5,0.776,3,538,5,2,1,0,0,0,0,2,,,,,,0,79,79,79,,,,,,,,,,,,,,,,,,,,,,,,,,,,,,,,,,,,,,,,,,,,,,,,,,,,,,,,,855.3615212000004,855.8641987999999,855.8641987999999,856.6139006000012,856.6139006000012,857.1193610000009,857.1193610000009,857.8996493000013,857.8996493000013,None,num_4,0.274563400000261,857.8996493000013,None,happy,1,Sad,858.1829498600007,None,None,858.1829498600007,None,,,,,,,,,,,,,,,,,,,,,,,,,,,,,,,,,,,,,,,,,,,,,,,,,,,,,39,001,1,21,650,700,2022_Nov_09_1344,Experiment,2021.1.4,360.23314289876737,
images\S8_M_H_01.png,images\S8_M_H_01_scrambled.png,8,happy,10,male,4,,343,on,2,0.5,0.75,0.5,0.844,3,342,1,1,1,2,2,32,128,164,,,,,,0,80,80,80,,,,,,,,,,,,,,,,,,,,,,,,,,,,,,,,,,,,,,,,,,,,,,,,,,,,,,,,,858.2411566999999,858.7439106000002,858.7439106000002,859.4992112,859.4992112,860.0045482000005,860.0045482000005,860.8543277999997,860.8543277999997,None,num_4,0.22412630000144418,860.8543277999997,None,happy,1,Happy,861.0987656100003,None,None,861.0987656100003,None,,,,,,,,,,,,,,,,,,,,,,,,,,,,,,,,,,,,,,,,,,,,,,,,,,,,,39,001,1,21,650,700,2022_Nov_09_1344,Experiment,2021.1.4,360.23314289876737,
images\S7_F_H_03.png,images\S7_F_H_03_scrambled.png,7,happy,30,female,6,,519,off,1,0.5,0.75,0.5,0.856,3,518,1,1,1,0,0,0,0,6,,,,,,0,81,81,81,,,,,,,,,,,,,,,,,,,,,,,,,,,,,,,,,,,,,,,,,,,,,,,,,,,,,,,,,861.1513625999996,861.6541135000007,861.6541135000007,862.4093989000012,862.4093989000012,862.9147711000005,862.9147711000005,863.7727756000004,863.7727756000004,None,num_4,0.24930979999953706,863.7727756000004,None,happy,1,Happy,864.0450003400011,None,None,864.0450003400011,None,,,,,,,,,,,,,,,,,,,,,,,,,,,,,,,,,,,,,,,,,,,,,,,,,,,,,39,001,1,21,650,700,2022_Nov_09_1344,Experiment,2021.1.4,360.23314289876737,
images\S10_M_H_02.png,images\S10_M_H_02_scrambled.png,10,happy,20,male,5,,356,on,2,0.5,0.75,0.5,0.855,3,355,1,1,1,2,2,32,128,165,,,,,,0,82,82,82,,,,,,,,,,,,,,,,,,,,,,,,,,,,,,,,,,,,,,,,,,,,,,,,,,,,,,,,,864.1087953000006,864.6142845000013,864.6142845000013,865.3667420000002,865.3667420000002,865.8665908000003,865.8665908000003,866.7247095000002,866.7247095000002,None,num_4,0.25778949999948964,866.7247095000002,None,happy,1,Happy,866.9968000200003,None,None,866.9968000200003,None,,,,,,,,,,,,,,,,,,,,,,,,,,,,,,,,,,,,,,,,,,,,,,,,,,,,,39,001,1,21,650,700,2022_Nov_09_1344,Experiment,2021.1.4,360.23314289876737,
images\S9_F_S_03.png,images\S9_F_S_03_scrambled.png,9,sad,-30,female,1,,414,off,1,0.5,0.75,0.5,0.81,3,413,1,1,1,0,0,0,0,1,,,,,,0,83,83,83,,,,,,,,,,,,,,,,,,,,,,,,,,,,,,,,,,,,,,,,,,,,,,,,,,,,,,,,,867.0440060000001,867.5494687999999,867.5494687999999,868.3047674000009,868.3047674000009,868.8101526999999,868.8101526999999,869.6266211000002,869.6266211000002,None,num_6,0.28365819999999076,869.6266211000002,None,sad,1,Sad,869.9209975200007,None,None,869.9209975200007,None,,,,,,,,,,,,,,,,,,,,,,,,,,,,,,,,,,,,,,,,,,,,,,,,,,,,,39,001,1,21,650,700,2022_Nov_09_1344,Experiment,2021.1.4,360.23314289876737,
images\S7_F_S_03.png,images\S7_F_S_03_scrambled.png,7,sad,-30,female,1,,102,on,2,0.5,0.75,0.5,0.813,3,101,1,1,2,2,2,32,128,161,,,,,,0,84,84,84,,,,,,,,,,,,,,,,,,,,,,,,,,,,,,,,,,,,,,,,,,,,,,,,,,,,,,,,,869.9708719000009,870.4736556999997,870.4736556999997,871.2260575,871.2260575,871.7286569999997,871.7286569999997,872.5451057999999,872.5451057999999,None,num_6,0.34901910000007774,872.5451057999999,None,sad,1,Sad,872.9199876400008,None,None,872.9199876400008,None,,,,,,,,,,,,,,,,,,,,,,,,,,,,,,,,,,,,,,,,,,,,,,,,,,,,,39,001,1,21,650,700,2022_Nov_09_1344,Experiment,2021.1.4,360.23314289876737,
images\S7_F_H_01.png,images\S7_F_H_01_scrambled.png,7,happy,10,female,4,,157,off,1,0.5,0.75,0.5,0.938,3,156,1,2,1,0,0,0,0,4,,,,,,0,85,85,85,,,,,,,,,,,,,,,,,,,,,,,,,,,,,,,,,,,,,,,,,,,,,,,,,,,,,,,,,872.9838419999996,873.489328900001,873.489328900001,874.2417831000002,874.2417831000002,874.7444775000004,874.7444775000004,875.6857735000012,875.6857735000012,None,num_6,0.19239489999927173,875.6857735000012,None,sad,1,Happy,875.8830029600001,None,None,875.8830029600001,None,,,,,,,,,,,,,,,,,,,,,,,,,,,,,,,,,,,,,,,,,,,,,,,,,,,,,39,001,1,21,650,700,2022_Nov_09_1344,Experiment,2021.1.4,360.23314289876737,
images\S10_M_H_01.png,images\S10_M_H_01_scrambled.png,10,happy,10,male,4,,415,off,1,0.5,0.75,0.5,0.819,3,414,2,1,2,0,0,0,0,4,,,,,,0,86,86,86,,,,,,,,,,,,,,,,,,,,,,,,,,,,,,,,,,,,,,,,,,,,,,,,,,,,,,,,,875.9301506000011,876.4329011000009,876.4329011000009,877.1853453000003,877.1853453000003,877.685163600001,877.685163600001,878.5099516000009,878.5099516000009,None,num_4,0.2319110999997065,878.5099516000009,None,happy,1,Happy,878.7709754000007,None,None,878.7709754000007,None,,,,,,,,,,,,,,,,,,,,,,,,,,,,,,,,,,,,,,,,,,,,,,,,,,,,,39,001,1,21,650,700,2022_Nov_09_1344,Experiment,2021.1.4,360.23314289876737,
images\S5_F_H_02.png,images\S5_F_H_02_scrambled.png,5,happy,20,female,5,,326,on,2,0.5,0.75,0.5,0.894,3,325,1,1,1,2,2,32,128,165,,,,,,0,87,87,87,,,,,,,,,,,,,,,,,,,,,,,,,,,,,,,,,,,,,,,,,,,,,,,,,,,,,,,,,878.8320389,879.3347095000008,879.3347095000008,880.0900184000002,880.0900184000002,880.592594400001,880.592594400001,881.4895964999996,881.4895964999996,None,num_4,0.21231520000037563,881.4895964999996,None,happy,1,Happy,881.7201092800009,None,None,881.7201092800009,None,,,,,,,,,,,,,,,,,,,,,,,,,,,,,,,,,,,,,,,,,,,,,,,,,,,,,39,001,1,21,650,700,2022_Nov_09_1344,Experiment,2021.1.4,360.23314289876737,
images\S4_M_S_03.png,images\S4_M_S_03_scrambled.png,4,sad,-30,male,1,,384,off,1,0.5,0.75,0.5,0.844,3,383,1,1,1,0,0,0,0,1,,,,,,0,88,88,88,,,,,,,,,,,,,,,,,,,,,,,,,,,,,,,,,,,,,,,,,,,,,,,,,,,,,,,,,881.7951021999997,882.3004529000009,882.3004529000009,883.0501749000014,883.0501749000014,883.5528403999997,883.5528403999997,884.399816000001,884.399816000001,None,num_6,0.1822640999998839,884.399816000001,None,sad,1,Sad,884.5969438200005,None,None,884.5969438200005,None,,,,,,,,,,,,,,,,,,,,,,,,,,,,,,,,,,,,,,,,,,,,,,,,,,,,,39,001,1,21,650,700,2022_Nov_09_1344,Experiment,2021.1.4,360.23314289876737,
images\S3_F_S_02.png,images\S3_F_S_02_scrambled.png,3,sad,-20,female,2,,77,on,2,0.5,0.75,0.5,0.781,3,76,1,1,1,2,2,32,128,162,,,,,,0,89,89,89,,,,,,,,,,,,,,,,,,,,,,,,,,,,,,,,,,,,,,,,,,,,,,,,,,,,,,,,,884.6469078999999,885.1495782000002,885.1495782000002,885.9048801999998,885.9048801999998,886.4102813999998,886.4102813999998,887.1934904000009,887.1934904000009,None,num_6,0.21264100000007602,887.1934904000009,None,sad,1,Sad,887.4210594200009,None,None,887.4210594200009,None,,,,,,,,,,,,,,,,,,,,,,,,,,,,,,,,,,,,,,,,,,,,,,,,,,,,,39,001,1,21,650,700,2022_Nov_09_1344,Experiment,2021.1.4,360.23314289876737,
images\S4_M_H_03.png,images\S4_M_H_03_scrambled.png,4,happy,30,male,6,,561,on,2,0.5,0.75,0.5,0.82,3,560,2,1,1,2,2,32,128,166,,,,,,0,90,90,90,,,,,,,,,,,,,,,,,,,,,,,,,,,,,,,,,,,,,,,,,,,,,,,,,,,,,,,,,887.4682647000009,887.9708812000008,887.9708812000008,888.7262255000005,888.7262255000005,889.2289627000009,889.2289627000009,890.0564422999996,890.0564422999996,None,num_4,0.22976679999919725,890.0564422999996,None,happy,1,Happy,890.3146302400011,None,None,890.3146302400011,None,,,,,,,,,,,,,,,,,,,,,,,,,,,,,,,,,,,,,,,,,,,,,,,,,,,,,39,001,1,21,650,700,2022_Nov_09_1344,Experiment,2021.1.4,360.23314289876737,
images\S2_M_S_03.png,images\S2_M_S_03_scrambled.png,2,sad,-30,male,1,,12,off,1,0.5,0.75,0.5,0.776,3,11,1,1,1,0,0,0,0,1,,,,,,0,91,91,91,,,,,,,,,,,,,,,,,,,,,,,,,,,,,,,,,,,,,,,,,,,,,,,,,,,,,,,,,890.367379700001,890.8700399000008,890.8700399000008,891.6253586000003,891.6253586000003,892.1252015999999,892.1252015999999,892.9055040000003,892.9055040000003,None,num_6,0.6126519999997981,892.9055040000003,None,sad,1,Sad,893.5331111200009,None,None,893.5331111200009,None,,,,,,,,,,,,,,,,,,,,,,,,,,,,,,,,,,,,,,,,,,,,,,,,,,,,,39,001,1,21,650,700,2022_Nov_09_1344,Experiment,2021.1.4,360.23314289876737,
images\blank.jpg,images\blank.jpg,none,none,none,none,0,,636,on,2,0.5,0.75,0.5,0.804,0,635,1,1,1,3,3,48,192,240,,,,,,0,92,92,92,,,,,,,,,,,,,,,,,,,,,,,,,,,,,,,,,,,,,,,,,,,,,,,,,,,,,,,,,893.6166645000012,894.1191312999999,894.1191312999999,894.8715546000003,894.8715546000003,895.3742559000002,895.3742559000002,896.1794714000007,896.1794714000007,896.1794714000007,None,,896.1794714000007,None,miss,1,,899.1813773600013,None,None,899.1813773600013,None,,,,,,,,,,,,,,,,,,,,,,,,,,,,,,,,,,,,,,,,,,,,,,,,,,,,,39,001,1,21,650,700,2022_Nov_09_1344,Experiment,2021.1.4,360.23314289876737,
images\S10_M_S_01.png,images\S10_M_S_01_scrambled.png,10,sad,-10,male,3,,178,off,1,0.5,0.75,0.5,0.853,3,177,1,1,1,0,0,0,0,3,,,,,,0,93,93,93,,,,,,,,,,,,,,,,,,,,,,,,,,,,,,,,,,,,,,,,,,,,,,,,,,,,,,,,,899.2982029000013,899.8005697999997,899.8005697999997,900.5531418999999,900.5531418999999,901.0558758000006,901.0558758000006,901.9111274000006,901.9111274000006,None,num_4,0.2468619999999646,901.9111274000006,899.2982029000013,happy,1,Sad,902.1637399600011,None,None,902.1637399600011,None,,,,,,,,,,,,,,,,,,,,,,,,,,,,,,,,,,,,,,,,,,,,,,,,,,,,,39,001,1,21,650,700,2022_Nov_09_1344,Experiment,2021.1.4,360.23314289876737,
images\S2_M_S_01.png,images\S2_M_S_01_scrambled.png,2,sad,-10,male,3,,250,off,1,0.5,0.75,0.5,0.778,3,249,2,1,2,0,0,0,0,3,,,,,,0,94,94,94,,,,,,,,,,,,,,,,,,,,,,,,,,,,,,,,,,,,,,,,,,,,,,,,,,,,,,,,,902.2166042999997,902.7163412000009,902.7163412000009,903.4717055000001,903.4717055000001,903.9770926000001,903.9770926000001,904.7546058999997,904.7546058999997,None,num_6,0.2675276000009035,904.7546058999997,None,sad,1,Sad,905.040802610001,None,None,905.040802610001,None,,,,,,,,,,,,,,,,,,,,,,,,,,,,,,,,,,,,,,,,,,,,,,,,,,,,,39,001,1,21,650,700,2022_Nov_09_1344,Experiment,2021.1.4,360.23314289876737,
images\S5_F_S_02.png,images\S5_F_S_02_scrambled.png,5,sad,-20,female,2,,149,off,1,0.5,0.75,0.5,0.924,3,148,3,1,1,0,0,0,0,2,,,,,,0,95,95,95,,,,,,,,,,,,,,,,,,,,,,,,,,,,,,,,,,,,,,,,,,,,,,,,,,,,,,,,,905.0906234000013,905.5961434000001,905.5961434000001,906.3514200000009,906.3514200000009,906.856793500001,906.856793500001,907.7842273000006,907.7842273000006,None,num_6,0.22218790000079025,907.7842273000006,None,sad,1,Sad,908.0259279100007,None,None,908.0259279100007,None,,,,,,,,,,,,,,,,,,,,,,,,,,,,,,,,,,,,,,,,,,,,,,,,,,,,,39,001,1,21,650,700,2022_Nov_09_1344,Experiment,2021.1.4,360.23314289876737,
images\S7_F_S_02.png,images\S7_F_S_02_scrambled.png,7,sad,-20,female,2,,101,on,2,0.5,0.75,0.5,0.775,3,100,1,1,2,2,2,32,128,162,,,,,,0,96,96,96,,,,,,,,,,,,,,,,,,,,,,,,,,,,,,,,,,,,,,,,,,,,,,,,,,,,,,,,,908.0758120999999,908.5812905000003,908.5812905000003,909.3365876999997,909.3365876999997,909.8363750999997,909.8363750999997,910.6166829000013,910.6166829000013,None,num_6,0.33322839999891585,910.6166829000013,None,sad,1,Sad,910.9777179000012,None,None,910.9777179000012,None,,,,,,,,,,,,,,,,,,,,,,,,,,,,,,,,,,,,,,,,,,,,,,,,,,,,,39,001,1,21,650,700,2022_Nov_09_1344,Experiment,2021.1.4,360.23314289876737,
images\S6_M_S_02.png,images\S6_M_S_02_scrambled.png,6,sad,-20,male,2,,35,off,1,0.5,0.75,0.5,0.914,3,34,1,1,3,0,0,0,0,2,,,,,,0,97,97,97,,,,,,,,,,,,,,,,,,,,,,,,,,,,,,,,,,,,,,,,,,,,,,,,,,,,,,,,,911.0304585000013,911.5359805999997,911.5359805999997,912.2884171000005,912.2884171000005,912.7911514000007,912.7911514000007,913.7102960000011,913.7102960000011,None,num_6,0.19944949999990058,913.7102960000011,None,sad,1,Sad,913.9240163200008,None,None,913.9240163200008,None,,,,,,,,,,,,,,,,,,,,,,,,,,,,,,,,,,,,,,,,,,,,,,,,,,,,,39,001,1,21,650,700,2022_Nov_09_1344,Experiment,2021.1.4,360.23314289876737,
images\S8_M_S_03.png,images\S8_M_S_03_scrambled.png,8,sad,-30,male,1,,168,off,1,0.5,0.75,0.5,0.89,3,167,2,1,1,0,0,0,0,1,,,,,,0,98,98,98,,,,,,,,,,,,,,,,,,,,,,,,,,,,,,,,,,,,,,,,,,,,,,,,,,,,,,,,,913.9712195000011,914.4766593000004,914.4766593000004,915.2291617999999,915.2291617999999,915.7318676000014,915.7318676000014,916.6260594000014,916.6260594000014,None,num_6,0.26814829999966605,916.6260594000014,None,sad,1,Sad,916.909211920001,None,None,916.909211920001,None,,,,,,,,,,,,,,,,,,,,,,,,,,,,,,,,,,,,,,,,,,,,,,,,,,,,,39,001,1,21,650,700,2022_Nov_09_1344,Experiment,2021.1.4,360.23314289876737,
images\S9_F_S_02.png,images\S9_F_S_02_scrambled.png,9,sad,-20,female,2,,413,off,1,0.5,0.75,0.5,0.791,3,412,3,1,1,0,0,0,0,2,,,,,,0,99,99,99,,,,,,,,,,,,,,,,,,,,,,,,,,,,,,,,,,,,,,,,,,,,,,,,,,,,,,,,,916.9591872000001,917.4590316000013,917.4590316000013,918.2116158999997,918.2116158999997,918.7170029999997,918.7170029999997,919.511265000001,919.511265000001,None,num_4,0.7185650000010355,919.511265000001,None,happy,1,Sad,920.2387433900004,None,None,920.2387433900004,None,,,,,,,,,,,,,,,,,,,,,,,,,,,,,,,,,,,,,,,,,,,,,,,,,,,,,39,001,1,21,650,700,2022_Nov_09_1344,Experiment,2021.1.4,360.23314289876737,
images\S2_M_H_03.png,images\S2_M_H_03_scrambled.png,2,happy,30,male,6,,9,off,1,0.5,0.75,0.5,0.834,3,8,4,1,1,0,0,0,0,6,,,,,,0,100,100,100,,,,,,,,,,,,,,,,,,,,,,,,,,,,,,,,,,,,,,,,,,,,,,,,,,,,,,,,,920.3026057000006,920.8053599000013,920.8053599000013,921.5606807000004,921.5606807000004,922.0660408000003,922.0660408000003,922.9018262999998,922.9018262999998,None,num_4,0.16855579999901238,922.9018262999998,None,happy,1,Happy,923.0906713499999,None,None,923.0906713499999,None,,,,,,,,,,,,,,,,,,,,,,,,,,,,,,,,,,,,,,,,,,,,,,,,,,,,,39,001,1,21,650,700,2022_Nov_09_1344,Experiment,2021.1.4,360.23314289876737,
images\S4_M_H_01.png,images\S4_M_H_01_scrambled.png,4,happy,10,male,4,,319,on,2,0.5,0.75,0.5,0.788,3,318,1,1,1,2,2,32,128,164,,,,,,0,101,101,101,,,,,,,,,,,,,,,,,,,,,,,,,,,,,,,,,,,,,,,,,,,,,,,,,,,,,,,,,923.1406177999997,923.6461018000009,923.6461018000009,924.4014087000014,924.4014087000014,924.9067895000007,924.9067895000007,925.7010393,925.7010393,None,num_6,0.23313909999887983,925.7010393,None,sad,1,Happy,925.9481564899999,None,None,925.9481564899999,None,,,,,,,,,,,,,,,,,,,,,,,,,,,,,,,,,,,,,,,,,,,,,,,,,,,,,39,001,1,21,650,700,2022_Nov_09_1344,Experiment,2021.1.4,360.23314289876737,
images\S10_M_S_01.png,images\S10_M_S_01_scrambled.png,10,sad,-10,male,3,,118,on,2,0.5,0.75,0.5,0.832,3,117,2,1,1,2,2,32,128,163,,,,,,0,102,102,102,,,,,,,,,,,,,,,,,,,,,,,,,,,,,,,,,,,,,,,,,,,,,,,,,,,,,,,,,926.0064039000008,926.5062447,926.5062447,927.2616183999999,927.2616183999999,927.767021900001,927.767021900001,928.6028545999998,928.6028545999998,None,num_4,1.1471364999997604,928.6028545999998,None,happy,1,Sad,929.7552615600005,None,None,929.7552615600005,None,,,,,,,,,,,,,,,,,,,,,,,,,,,,,,,,,,,,,,,,,,,,,,,,,,,,,39,001,1,21,650,700,2022_Nov_09_1344,Experiment,2021.1.4,360.23314289876737,
images\blank.jpg,images\blank.jpg,none,none,none,none,0,,629,on,2,0.5,0.75,0.5,0.906,0,628,3,1,1,3,3,48,192,240,,,,,,0,103,103,103,,,,,,,,,,,,,,,,,,,,,,,,,,,,,,,,,,,,,,,,,,,,,,,,,,,,,,,,,929.8388007000012,930.3439631000001,930.3439631000001,931.0964949000008,931.0964949000008,931.6019224000011,931.6019224000011,932.5071668,932.5071668,932.5071668,None,,932.5071668,None,miss,1,,935.5091011600005,None,None,935.5091011600005,None,,,,,,,,,,,,,,,,,,,,,,,,,,,,,,,,,,,,,,,,,,,,,,,,,,,,,39,001,1,21,650,700,2022_Nov_09_1344,Experiment,2021.1.4,360.23314289876737,
images\S8_M_H_02.png,images\S8_M_H_02_scrambled.png,8,happy,20,male,5,,404,off,1,0.5,0.75,0.5,0.795,3,403,1,1,1,0,0,0,0,5,,,,,,0,104,104,104,,,,,,,,,,,,,,,,,,,,,,,,,,,,,,,,,,,,,,,,,,,,,,,,,,,,,,,,,935.6259683000007,936.128326,936.128326,936.8808292000012,936.8808292000012,937.3863662000003,937.3863662000003,938.1832479000004,938.1832479000004,None,num_4,0.53467659999842,938.1832479000004,935.6259683000007,happy,1,Happy,938.7330519200001,None,None,938.7330519200001,None,,,,,,,,,,,,,,,,,,,,,,,,,,,,,,,,,,,,,,,,,,,,,,,,,,,,,39,001,1,21,650,700,2022_Nov_09_1344,Experiment,2021.1.4,360.23314289876737,
images\S10_M_S_02.png,images\S10_M_S_02_scrambled.png,10,sad,-20,male,2,,419,off,1,0.5,0.75,0.5,0.885,3,418,2,1,1,0,0,0,0,2,,,,,,0,105,105,105,,,,,,,,,,,,,,,,,,,,,,,,,,,,,,,,,,,,,,,,,,,,,,,,,,,,,,,,,938.7830231000007,939.288443200001,939.288443200001,940.0410061000002,940.0410061000002,940.5435854999996,940.5435854999996,941.4323463000001,941.4323463000001,None,num_4,0.31780130000151985,941.4323463000001,None,happy,1,Sad,941.76562579,None,None,941.76562579,None,,,,,,,,,,,,,,,,,,,,,,,,,,,,,,,,,,,,,,,,,,,,,,,,,,,,,39,001,1,21,650,700,2022_Nov_09_1344,Experiment,2021.1.4,360.23314289876737,
images\S3_F_S_03.png,images\S3_F_S_03_scrambled.png,3,sad,-30,female,1,,438,on,2,0.5,0.75,0.5,0.766,3,437,1,1,1,2,2,32,128,161,,,,,,0,106,106,106,,,,,,,,,,,,,,,,,,,,,,,,,,,,,,,,,,,,,,,,,,,,,,,,,,,,,,,,,941.8209807000003,942.323626200001,942.323626200001,943.0733622999996,943.0733622999996,943.5787938000012,943.5787938000012,944.3480130999997,944.3480130999997,None,num_6,0.3381616999995458,944.3480130999997,None,sad,1,Sad,944.7118013400005,None,None,944.7118013400005,None,,,,,,,,,,,,,,,,,,,,,,,,,,,,,,,,,,,,,,,,,,,,,,,,,,,,,39,001,1,21,650,700,2022_Nov_09_1344,Experiment,2021.1.4,360.23314289876737,
images\S8_M_S_03.png,images\S8_M_S_03_scrambled.png,8,sad,-30,male,1,,408,off,1,0.5,0.75,0.5,0.89,3,407,1,1,2,0,0,0,0,1,,,,,,0,107,107,107,,,,,,,,,,,,,,,,,,,,,,,,,,,,,,,,,,,,,,,,,,,,,,,,,,,,,,,,,944.7645155000009,945.2672840000014,945.2672840000014,946.0169227000006,946.0169227000006,946.5167799999999,946.5167799999999,947.4137262000004,947.4137262000004,None,num_6,0.21604389999993145,947.4137262000004,None,sad,1,Sad,947.655326570001,None,None,947.655326570001,None,,,,,,,,,,,,,,,,,,,,,,,,,,,,,,,,,,,,,,,,,,,,,,,,,,,,,39,001,1,21,650,700,2022_Nov_09_1344,Experiment,2021.1.4,360.23314289876737,
images\S5_F_S_02.png,images\S5_F_S_02_scrambled.png,5,sad,-20,female,2,,89,on,2,0.5,0.75,0.5,0.769,3,88,1,1,1,2,2,32,128,162,,,,,,0,108,108,108,,,,,,,,,,,,,,,,,,,,,,,,,,,,,,,,,,,,,,,,,,,,,,,,,,,,,,,,,947.7080561000002,948.213476500001,948.213476500001,948.9687682000003,948.9687682000003,949.4741900000008,949.4741900000008,950.2462722,950.2462722,None,num_4,0.23152459999982966,950.2462722,None,happy,1,Sad,950.4877543600003,None,None,950.4877543600003,None,,,,,,,,,,,,,,,,,,,,,,,,,,,,,,,,,,,,,,,,,,,,,,,,,,,,,39,001,1,21,650,700,2022_Nov_09_1344,Experiment,2021.1.4,360.23314289876737,
images\blank.jpg,images\blank.jpg,none,none,none,none,0,,616,on,2,0.5,0.75,0.5,0.871,0,615,2,1,1,3,3,48,192,240,,,,,,0,109,109,109,,,,,,,,,,,,,,,,,,,,,,,,,,,,,,,,,,,,,,,,,,,,,,,,,,,,,,,,,950.5712344000003,951.0737074000008,951.0737074000008,951.8234472000004,951.8234472000004,952.328878100001,952.328878100001,953.2035808,953.2035808,953.2035808,None,,953.2035808,None,miss,1,,956.2082963600012,None,None,956.2082963600012,None,,,,,,,,,,,,,,,,,,,,,,,,,,,,,,,,,,,,,,,,,,,,,,,,,,,,,39,001,1,21,650,700,2022_Nov_09_1344,Experiment,2021.1.4,360.23314289876737,
images\S1_F_H_02.png,images\S1_F_H_02_scrambled.png,1,happy,20,female,5,,482,off,1,0.5,0.75,0.5,0.886,3,481,1,1,1,0,0,0,0,5,,,,,,0,110,110,110,,,,,,,,,,,,,,,,,,,,,,,,,,,,,,,,,,,,,,,,,,,,,,,,,,,,,,,,,956.3278804000001,956.8302658000011,956.8302658000011,957.5856029000006,957.5856029000006,958.0910064,958.0910064,958.9795776999999,958.9795776999999,None,num_4,0.23456219999934547,958.9795776999999,956.3278804000001,happy,1,Happy,959.2351227800012,None,None,959.2351227800012,None,,,,,,,,,,,,,,,,,,,,,,,,,,,,,,,,,,,,,,,,,,,,,,,,,,,,,39,001,1,21,650,700,2022_Nov_09_1344,Experiment,2021.1.4,360.23314289876737,
images\S3_F_S_01.png,images\S3_F_S_01_scrambled.png,3,sad,-10,female,3,,316,on,2,0.5,0.75,0.5,0.941,3,315,1,1,1,2,2,32,128,163,,,,,,0,111,111,111,,,,,,,,,,,,,,,,,,,,,,,,,,,,,,,,,,,,,,,,,,,,,,,,,,,,,,,,,959.2850450000005,959.7876761000007,959.7876761000007,960.5402202000005,960.5402202000005,961.0428401999998,961.0428401999998,961.9870061000001,961.9870061000001,None,num_4,0.11559889999989537,961.9870061000001,None,happy,1,Sad,962.1148448900004,None,None,962.1148448900004,None,,,,,,,,,,,,,,,,,,,,,,,,,,,,,,,,,,,,,,,,,,,,,,,,,,,,,39,001,1,21,650,700,2022_Nov_09_1344,Experiment,2021.1.4,360.23314289876737,
images\S10_M_H_03.png,images\S10_M_H_03_scrambled.png,10,happy,30,male,6,,417,off,1,0.5,0.75,0.5,0.88,3,416,1,1,1,0,0,0,0,6,,,,,,0,112,112,112,,,,,,,,,,,,,,,,,,,,,,,,,,,,,,,,,,,,,,,,,,,,,,,,,,,,,,,,,962.1786005000013,962.6841390999998,962.6841390999998,963.4337679,963.4337679,963.9392951999998,963.9392951999998,964.8278523999998,964.8278523999998,None,num_4,0.21856560000014724,964.8278523999998,None,happy,1,Happy,965.0667438800014,None,None,965.0667438800014,None,,,,,,,,,,,,,,,,,,,,,,,,,,,,,,,,,,,,,,,,,,,,,,,,,,,,,39,001,1,21,650,700,2022_Nov_09_1344,Experiment,2021.1.4,360.23314289876737,
images\S9_F_H_03.png,images\S9_F_H_03_scrambled.png,9,happy,30,female,6,,411,off,1,0.5,0.75,0.5,0.891,3,410,2,1,2,0,0,0,0,6,,,,,,0,113,113,113,,,,,,,,,,,,,,,,,,,,,,,,,,,,,,,,,,,,,,,,,,,,,,,,,,,,,,,,,965.1193715999998,965.6219918000006,965.6219918000006,966.3746624000014,966.3746624000014,966.8800697000006,966.8800697000006,967.7713190000013,967.7713190000013,None,num_4,0.1947442000000592,967.7713190000013,None,happy,1,Happy,967.9907001399998,None,None,967.9907001399998,None,,,,,,,,,,,,,,,,,,,,,,,,,,,,,,,,,,,,,,,,,,,,,,,,,,,,,39,001,1,21,650,700,2022_Nov_09_1344,Experiment,2021.1.4,360.23314289876737,
images\S7_F_H_03.png,images\S7_F_H_03_scrambled.png,7,happy,30,female,6,,219,on,2,0.5,0.75,0.5,0.931,3,218,1,1,3,2,2,32,128,166,,,,,,0,114,114,114,,,,,,,,,,,,,,,,,,,,,,,,,,,,,,,,,,,,,,,,,,,,,,,,,,,,,,,,,968.0573399000004,968.5600934000013,968.5600934000013,969.3153617999997,969.3153617999997,969.8207469999998,969.8207469999998,970.7537616000009,970.7537616000009,None,num_4,0.22061030000077153,970.7537616000009,None,happy,1,Happy,970.995435180001,None,None,970.995435180001,None,,,,,,,,,,,,,,,,,,,,,,,,,,,,,,,,,,,,,,,,,,,,,,,,,,,,,39,001,1,21,650,700,2022_Nov_09_1344,Experiment,2021.1.4,360.23314289876737,
images\S3_F_H_01.png,images\S3_F_H_01_scrambled.png,3,happy,10,female,4,,253,off,1,0.5,0.75,0.5,0.776,3,252,1,1,1,0,0,0,0,4,,,,,,0,115,115,115,,,,,,,,,,,,,,,,,,,,,,,,,,,,,,,,,,,,,,,,,,,,,,,,,,,,,,,,,971.0480907000001,971.5507658000006,971.5507658000006,972.3004766000013,972.3004766000013,972.8031093000009,972.8031093000009,973.5834233000005,973.5834233000005,None,num_6,0.8386864999993122,973.5834233000005,None,sad,1,Happy,974.4303876600013,None,None,974.4303876600013,None,,,,,,,,,,,,,,,,,,,,,,,,,,,,,,,,,,,,,,,,,,,,,,,,,,,,,39,001,1,21,650,700,2022_Nov_09_1344,Experiment,2021.1.4,360.23314289876737,
images\S8_M_H_01.png,images\S8_M_H_01_scrambled.png,8,happy,10,male,4,,43,off,1,0.5,0.75,0.5,0.837,3,42,2,1,2,0,0,0,0,4,,,,,,0,116,116,116,,,,,,,,,,,,,,,,,,,,,,,,,,,,,,,,,,,,,,,,,,,,,,,,,,,,,,,,,974.4803690000008,974.9829972000007,974.9829972000007,975.7383389000006,975.7383389000006,976.2410741000003,976.2410741000003,977.0852532999997,977.0852532999997,None,num_4,0.7928386000003229,977.0852532999997,None,happy,1,Happy,977.893218320001,None,None,977.893218320001,None,,,,,,,,,,,,,,,,,,,,,,,,,,,,,,,,,,,,,,,,,,,,,,,,,,,,,39,001,1,21,650,700,2022_Nov_09_1344,Experiment,2021.1.4,360.23314289876737,
images\blank.jpg,images\blank.jpg,none,none,none,none,0,,640,on,2,0.5,0.75,0.5,0.841,0,639,1,1,1,3,3,48,192,240,,,,,,0,117,117,117,,,,,,,,,,,,,,,,,,,,,,,,,,,,,,,,,,,,,,,,,,,,,,,,,,,,,,,,,977.9766883000011,978.479223100001,978.479223100001,979.2345129000005,979.2345129000005,979.7398958000012,979.7398958000012,980.5841421000005,980.5841421000005,980.5841421000005,None,,980.5841421000005,None,miss,1,,983.5859625600012,None,None,983.5859625600012,None,,,,,,,,,,,,,,,,,,,,,,,,,,,,,,,,,,,,,,,,,,,,,,,,,,,,,39,001,1,21,650,700,2022_Nov_09_1344,Experiment,2021.1.4,360.23314289876737,
images\S9_F_H_03.png,images\S9_F_H_03_scrambled.png,9,happy,30,female,6,,171,off,1,0.5,0.75,0.5,0.853,3,170,1,1,1,0,0,0,0,6,,,,,,0,118,118,118,,,,,,,,,,,,,,,,,,,,,,,,,,,,,,,,,,,,,,,,,,,,,,,,,,,,,,,,,983.7027672000004,984.2052245000013,984.2052245000013,984.9549383000012,984.9549383000012,985.4575361000007,985.4575361000007,986.315678500001,986.315678500001,None,num_4,0.24213240000062797,986.315678500001,983.7027672000004,happy,1,Happy,986.5710952200003,None,None,986.5710952200003,None,,,,,,,,,,,,,,,,,,,,,,,,,,,,,,,,,,,,,,,,,,,,,,,,,,,,,39,001,1,21,650,700,2022_Nov_09_1344,Experiment,2021.1.4,360.23314289876737,
images\S9_F_S_02.png,images\S9_F_S_02_scrambled.png,9,sad,-20,female,2,,113,on,2,0.5,0.75,0.5,0.805,3,112,1,2,1,2,2,32,128,162,,,,,,0,119,119,119,,,,,,,,,,,,,,,,,,,,,,,,,,,,,,,,,,,,,,,,,,,,,,,,,,,,,,,,,986.6210707999999,987.1265160000003,987.1265160000003,987.8817988999999,987.8817988999999,988.3872128000003,988.3872128000003,989.1953429000005,989.1953429000005,None,num_4,1.6748900999991747,989.1953429000005,None,happy,1,Sad,990.8754252599999,None,None,990.8754252599999,None,,,,,,,,,,,,,,,,,,,,,,,,,,,,,,,,,,,,,,,,,,,,,,,,,,,,,39,001,1,21,650,700,2022_Nov_09_1344,Experiment,2021.1.4,360.23314289876737,
images\S10_M_S_02.png,images\S10_M_S_02_scrambled.png,10,sad,-20,male,2,,179,off,1,0.5,0.75,0.5,0.904,3,178,1,1,2,0,0,0,0,2,,,,,,0,120,120,120,,,,,,,,,,,,,,,,,,,,,,,,,,,,,,,,,,,,,,,,,,,,,,,,,,,,,,,,,990.9253057000005,991.4251476999998,991.4251476999998,992.1777203000001,992.1777203000001,992.6803151000004,992.6803151000004,993.5912429,993.5912429,None,num_6,0.10285400000066147,993.5912429,None,sad,1,Sad,993.7216856400001,None,None,993.7216856400001,None,,,,,,,,,,,,,,,,,,,,,,,,,,,,,,,,,,,,,,,,,,,,,,,,,,,,,39,001,1,21,650,700,2022_Nov_09_1344,Experiment,2021.1.4,360.23314289876737,
images\S2_M_S_02.png,images\S2_M_S_02_scrambled.png,2,sad,-20,male,2,,131,off,1,0.5,0.75,0.5,0.932,3,130,2,1,3,0,0,0,0,2,,,,,,0,121,121,121,,,,,,,,,,,,,,,,,,,,,,,,,,,,,,,,,,,,,,,,,,,,,,,,,,,,,,,,,993.7883101000007,994.2937149000009,994.2937149000009,995.0462535000006,995.0462535000006,995.5461247000003,995.5461247000003,996.4819454999997,996.4819454999997,None,num_6,0.26042409999899974,996.4819454999997,None,sad,1,Sad,996.7679681399997,None,None,996.7679681399997,None,,,,,,,,,,,,,,,,,,,,,,,,,,,,,,,,,,,,,,,,,,,,,,,,,,,,,39,001,1,21,650,700,2022_Nov_09_1344,Experiment,2021.1.4,360.23314289876737,
images\S4_M_H_02.png,images\S4_M_H_02_scrambled.png,4,happy,20,male,5,,140,off,1,0.5,0.75,0.5,0.887,3,139,3,1,1,0,0,0,0,5,,,,,,0,122,122,122,,,,,,,,,,,,,,,,,,,,,,,,,,,,,,,,,,,,,,,,,,,,,,,,,,,,,,,,,996.8318220000001,997.3372467999998,997.3372467999998,998.092566700001,998.092566700001,998.5924154000004,998.5924154000004,999.4866097000013,999.4866097000013,None,num_4,0.17544860000089102,999.4866097000013,None,happy,1,Happy,999.6781978500012,None,None,999.6781978500012,None,,,,,,,,,,,,,,,,,,,,,,,,,,,,,,,,,,,,,,,,,,,,,,,,,,,,,39,001,1,21,650,700,2022_Nov_09_1344,Experiment,2021.1.4,360.23314289876737,
images\S9_F_H_02.png,images\S9_F_H_02_scrambled.png,9,happy,20,female,5,,530,off,1,0.5,0.75,0.5,0.776,3,529,4,1,2,0,0,0,0,5,,,,,,0,123,123,123,,,,,,,,,,,,,,,,,,,,,,,,,,,,,,,,,,,,,,,,,,,,,,,,,,,,,,,,,999.7253731000001,1000.2280096000013,1000.2280096000013,1000.9805689000004,1000.9805689000004,1001.4804130000011,1001.4804130000011,1002.2606965000014,1002.2606965000014,None,num_4,0.34514599999965867,1002.2606965000014,None,happy,1,Happy,1002.6161793200005,None,None,1002.6161793200005,None,,,,,,,,,,,,,,,,,,,,,,,,,,,,,,,,,,,,,,,,,,,,,,,,,,,,,39,001,1,21,650,700,2022_Nov_09_1344,Experiment,2021.1.4,360.23314289876737,
images\S4_M_S_01.png,images\S4_M_S_01_scrambled.png,4,sad,-10,male,3,,142,off,1,0.5,0.75,0.5,0.885,3,141,5,1,1,0,0,0,0,3,,,,,,0,124,124,124,,,,,,,,,,,,,,,,,,,,,,,,,,,,,,,,,,,,,,,,,,,,,,,,,,,,,,,,,1002.6661405000013,1003.1715741000007,1003.1715741000007,1003.9268826999996,1003.9268826999996,1004.4322783000007,1004.4322783000007,1005.3208654000009,1005.3208654000009,None,num_6,0.34914780000144674,1005.3208654000009,None,sad,1,Sad,1005.6957803400011,None,None,1005.6957803400011,None,,,,,,,,,,,,,,,,,,,,,,,,,,,,,,,,,,,,,,,,,,,,,,,,,,,,,39,001,1,21,650,700,2022_Nov_09_1344,Experiment,2021.1.4,360.23314289876737,
images\S6_M_S_03.png,images\S6_M_S_03_scrambled.png,6,sad,-30,male,1,,216,on,2,0.5,0.75,0.5,0.934,3,215,1,1,1,2,2,32,128,161,,,,,,0,125,125,125,,,,,,,,,,,,,,,,,,,,,,,,,,,,,,,,,,,,,,,,,,,,,,,,,,,,,,,,,1005.7485216000005,1006.2512294999997,1006.2512294999997,1007.0064574999997,1007.0064574999997,1007.5119145999997,1007.5119145999997,1008.447696700001,1008.447696700001,None,num_6,0.2702167000006739,1008.447696700001,None,sad,1,Sad,1008.7337170200004,None,None,1008.7337170200004,None,,,,,,,,,,,,,,,,,,,,,,,,,,,,,,,,,,,,,,,,,,,,,,,,,,,,,39,001,1,21,650,700,2022_Nov_09_1344,Experiment,2021.1.4,360.23314289876737,
images\S10_M_H_01.png,images\S10_M_H_01_scrambled.png,10,happy,10,male,4,,115,on,2,0.5,0.75,0.5,0.927,3,114,2,1,1,2,2,32,128,164,,,,,,0,126,126,126,,,,,,,,,,,,,,,,,,,,,,,,,,,,,,,,,,,,,,,,,,,,,,,,,,,,,,,,,1008.7837012,1009.2863139000001,1009.2863139000001,1010.0361014999999,1010.0361014999999,1010.5359294999998,1010.5359294999998,1011.4663256000003,1011.4663256000003,None,num_4,0.2996361999994406,1011.4663256000003,None,happy,1,Happy,1011.7800057199998,None,None,1011.7800057199998,None,,,,,,,,,,,,,,,,,,,,,,,,,,,,,,,,,,,,,,,,,,,,,,,,,,,,,39,001,1,21,650,700,2022_Nov_09_1344,Experiment,2021.1.4,360.23314289876737,
images\S3_F_H_03.png,images\S3_F_H_03_scrambled.png,3,happy,30,female,6,,495,off,1,0.5,0.75,0.5,0.792,3,494,1,1,1,0,0,0,0,6,,,,,,0,127,127,127,,,,,,,,,,,,,,,,,,,,,,,,,,,,,,,,,,,,,,,,,,,,,,,,,,,,,,,,,1011.8299815000009,1012.3326493000004,1012.3326493000004,1013.0823779000002,1013.0823779000002,1013.5878100000009,1013.5878100000009,1014.3820959000004,1014.3820959000004,None,num_4,0.30425410000134434,1014.3820959000004,None,happy,1,Happy,1014.7013300200011,None,None,1014.7013300200011,None,,,,,,,,,,,,,,,,,,,,,,,,,,,,,,,,,,,,,,,,,,,,,,,,,,,,,39,001,1,21,650,700,2022_Nov_09_1344,Experiment,2021.1.4,360.23314289876737,
images\S9_F_H_02.png,images\S9_F_H_02_scrambled.png,9,happy,20,female,5,,410,off,1,0.5,0.75,0.5,0.753,3,409,2,1,1,0,0,0,0,5,,,,,,0,128,128,128,,,,,,,,,,,,,,,,,,,,,,,,,,,,,,,,,,,,,,,,,,,,,,,,,,,,,,,,,1014.7513016000012,1015.2568425999998,1015.2568425999998,1016.0092650000006,1016.0092650000006,1016.5119992,1016.5119992,1017.2672828000013,1017.2672828000013,None,num_4,0.3387431999999535,1017.2672828000013,None,happy,1,Happy,1017.6309862100004,None,None,1017.6309862100004,None,,,,,,,,,,,,,,,,,,,,,,,,,,,,,,,,,,,,,,,,,,,,,,,,,,,,,39,001,1,21,650,700,2022_Nov_09_1344,Experiment,2021.1.4,360.23314289876737,
images\S3_F_H_01.png,images\S3_F_H_01_scrambled.png,3,happy,10,female,4,,373,off,1,0.5,0.75,0.5,0.759,3,372,3,1,1,0,0,0,0,4,,,,,,0,129,129,129,,,,,,,,,,,,,,,,,,,,,,,,,,,,,,,,,,,,,,,,,,,,,,,,,,,,,,,,,1017.697619300001,1018.1974584,1018.1974584,1018.9500511000006,1018.9500511000006,1019.4526686999998,1019.4526686999998,1020.2135061000008,1020.2135061000008,None,num_4,1.8323709000014787,1020.2135061000008,None,happy,1,Happy,1022.0601791200003,None,None,1022.0601791200003,None,,,,,,,,,,,,,,,,,,,,,,,,,,,,,,,,,,,,,,,,,,,,,,,,,,,,,39,001,1,21,650,700,2022_Nov_09_1344,Experiment,2021.1.4,360.23314289876737,
images\S5_F_S_01.png,images\S5_F_S_01_scrambled.png,5,sad,-10,female,3,,88,on,2,0.5,0.75,0.5,0.859,3,87,1,1,1,2,2,32,128,163,,,,,,0,130,130,130,,,,,,,,,,,,,,,,,,,,,,,,,,,,,,,,,,,,,,,,,,,,,,,,,,,,,,,,,1022.110154,1022.6127677000004,1022.6127677000004,1023.3681875000002,1023.3681875000002,1023.8735498000005,1023.8735498000005,1024.7343415000014,1024.7343415000014,None,num_4,0.9438140000002022,1024.7343415000014,None,happy,1,Sad,1025.6896287,None,space,1025.6896287,None,24.97972320000008,,,,,,,,,,,,,,,,,,,,,,,,,,,,,,,,,,,,,,,,,,,,,,,,,,,,39,001,1,21,650,700,2022_Nov_09_1344,Experiment,2021.1.4,360.23314289876737,
images\S3_F_S_01.png,images\S3_F_S_01_scrambled.png,3,sad,-10,female,3,,76,on,2,0.5,0.75,0.5,0.912,3,75,2,1,2,2,2,32,128,163,,,,,,0,131,131,131,,,,,,,,,,,,,,,,,,,,,,,,,,,,,,,,,,,,,,,,,,,,,,,,,,,,,,,,,1050.7235571,1051.226318500001,1051.226318500001,1051.9759680000006,1051.9759680000006,1052.4813799000003,1052.4813799000003,1053.3977536000002,1053.3977536000002,None,num_6,0.7122649000011734,1053.3977536000002,None,sad,1,Sad,1054.125299520001,None,None,1054.125299520001,None,,,,,,,,,,,,,,,,,,,,,,,,,,,,,,,,,,,,,,,,,,,,,,,,,,,,,39,001,1,21,650,700,2022_Nov_09_1344,Experiment,2021.1.4,360.23314289876737,
images\S10_M_S_03.png,images\S10_M_S_03_scrambled.png,10,sad,-30,male,1,,420,off,1,0.5,0.75,0.5,0.813,3,419,1,1,1,0,0,0,0,1,,,,,,0,132,132,132,,,,,,,,,,,,,,,,,,,,,,,,,,,,,,,,,,,,,,,,,,,,,,,,,,,,,,,,,1054.172503400001,1054.6723418000001,1054.6723418000001,1055.424928800001,1055.424928800001,1055.9247821000008,1055.9247821000008,1056.7412922000003,1056.7412922000003,None,num_6,0.37667249999867636,1056.7412922000003,None,sad,1,Sad,1057.132710220001,None,None,1057.132710220001,None,,,,,,,,,,,,,,,,,,,,,,,,,,,,,,,,,,,,,,,,,,,,,,,,,,,,,39,001,1,21,650,700,2022_Nov_09_1344,Experiment,2021.1.4,360.23314289876737,
images\S3_F_S_03.png,images\S3_F_S_03_scrambled.png,3,sad,-30,female,1,,378,off,1,0.5,0.75,0.5,0.876,3,377,2,1,2,0,0,0,0,1,,,,,,0,133,133,133,,,,,,,,,,,,,,,,,,,,,,,,,,,,,,,,,,,,,,,,,,,,,,,,,,,,,,,,,1057.1799093000009,1057.6797514999998,1057.6797514999998,1058.4295211000008,1058.4295211000008,1058.9293696000004,1058.9293696000004,1059.809796200001,1059.809796200001,None,num_6,0.29212700000061886,1059.809796200001,None,sad,1,Sad,1060.1123607200004,None,None,1060.1123607200004,None,,,,,,,,,,,,,,,,,,,,,,,,,,,,,,,,,,,,,,,,,,,,,,,,,,,,,39,001,1,21,650,700,2022_Nov_09_1344,Experiment,2021.1.4,360.23314289876737,
images\blank.jpg,images\blank.jpg,none,none,none,none,0,,635,on,2,0.5,0.75,0.5,0.766,0,634,1,1,1,3,3,48,192,240,,,,,,0,134,134,134,,,,,,,,,,,,,,,,,,,,,,,,,,,,,,,,,,,,,,,,,,,,,,,,,,,,,,,,,1060.1958813,1060.6982865999998,1060.6982865999998,1061.4508337999996,1061.4508337999996,1061.9562739000012,1061.9562739000012,1062.7227648000007,1062.7227648000007,1062.7227648000007,None,,1062.7227648000007,None,miss,1,,1065.7245615600013,None,None,1065.7245615600013,None,,,,,,,,,,,,,,,,,,,,,,,,,,,,,,,,,,,,,,,,,,,,,,,,,,,,,39,001,1,21,650,700,2022_Nov_09_1344,Experiment,2021.1.4,360.23314289876737,
images\S2_M_S_01.png,images\S2_M_S_01_scrambled.png,2,sad,-10,male,3,,70,on,2,0.5,0.75,0.5,0.758,3,69,2,1,1,2,2,32,128,163,,,,,,0,135,135,135,,,,,,,,,,,,,,,,,,,,,,,,,,,,,,,,,,,,,,,,,,,,,,,,,,,,,,,,,1065.8414446000006,1066.346551300001,1066.346551300001,1067.1018691999998,1067.1018691999998,1067.604607700001,1067.604607700001,1068.3653959000003,1068.3653959000003,None,num_6,0.33655980000003183,1068.3653959000003,1065.8414446000006,sad,1,Sad,1068.7124686200002,None,None,1068.7124686200002,None,,,,,,,,,,,,,,,,,,,,,,,,,,,,,,,,,,,,,,,,,,,,,,,,,,,,,39,001,1,21,650,700,2022_Nov_09_1344,Experiment,2021.1.4,360.23314289876737,
images\S1_F_S_03.png,images\S1_F_S_03_scrambled.png,1,sad,-30,female,1,,126,off,1,0.5,0.75,0.5,0.766,3,125,1,1,1,0,0,0,0,1,,,,,,0,136,136,136,,,,,,,,,,,,,,,,,,,,,,,,,,,,,,,,,,,,,,,,,,,,,,,,,,,,,,,,,1068.7596756000003,1069.2623254999999,1069.2623254999999,1070.0148525000004,1070.0148525000004,1070.5174611000002,1070.5174611000002,1071.283898400001,1071.283898400001,None,num_6,0.2978552000004129,1071.283898400001,None,sad,1,Sad,1071.6116010700014,None,None,1071.6116010700014,None,,,,,,,,,,,,,,,,,,,,,,,,,,,,,,,,,,,,,,,,,,,,,,,,,,,,,39,001,1,21,650,700,2022_Nov_09_1344,Experiment,2021.1.4,360.23314289876737,
images\S6_M_H_01.png,images\S6_M_H_01_scrambled.png,6,happy,10,male,4,,511,off,1,0.5,0.75,0.5,0.861,3,510,2,1,1,0,0,0,0,4,,,,,,0,137,137,137,,,,,,,,,,,,,,,,,,,,,,,,,,,,,,,,,,,,,,,,,,,,,,,,,,,,,,,,,1071.6671115999998,1072.172523700001,1072.172523700001,1072.9222786999999,1072.9222786999999,1073.425040799999,1073.425040799999,1074.2885318999997,1074.2885318999997,None,num_4,0.27780690000145114,1074.2885318999997,None,happy,1,Happy,1074.5941142400018,None,None,1074.5941142400018,None,,,,,,,,,,,,,,,,,,,,,,,,,,,,,,,,,,,,,,,,,,,,,,,,,,,,,39,001,1,21,650,700,2022_Nov_09_1344,Experiment,2021.1.4,360.23314289876737,
images\blank.jpg,images\blank.jpg,none,none,none,none,0,,642,on,2,0.5,0.75,0.5,0.919,0,641,1,1,1,3,3,48,192,240,,,,,,0,138,138,138,,,,,,,,,,,,,,,,,,,,,,,,,,,,,,,,,,,,,,,,,,,,,,,,,,,,,,,,,1074.6830836999998,1075.1854747000016,1075.1854747000016,1075.9352463000014,1075.9352463000014,1076.4406992000022,1076.4406992000022,1077.3626913999997,1077.3626913999997,1077.3626913999997,None,,1077.3626913999997,None,miss,1,,1080.361709530001,None,None,1080.361709530001,None,,,,,,,,,,,,,,,,,,,,,,,,,,,,,,,,,,,,,,,,,,,,,,,,,,,,,39,001,1,21,650,700,2022_Nov_09_1344,Experiment,2021.1.4,360.23314289876737,
images\S3_F_S_03.png,images\S3_F_S_03_scrambled.png,3,sad,-30,female,1,,318,on,2,0.5,0.75,0.5,0.911,3,317,2,1,1,2,2,32,128,161,,,,,,0,139,139,139,,,,,,,,,,,,,,,,,,,,,,,,,,,,,,,,,,,,,,,,,,,,,,,,,,,,,,,,,1080.4813193999998,1080.9809296000003,1080.9809296000003,1081.7306989000008,1081.7306989000008,1082.2361961000006,1082.2361961000006,1083.1497301,1083.1497301,None,num_6,0.24023309999756748,1083.1497301,1080.4813193999998,sad,1,Sad,1083.4107991799997,None,None,1083.4107991799997,None,,,,,,,,,,,,,,,,,,,,,,,,,,,,,,,,,,,,,,,,,,,,,,,,,,,,,39,001,1,21,650,700,2022_Nov_09_1344,Experiment,2021.1.4,360.23314289876737,
