image_face,image_scram,avatar,emo,emotion,sex,trigeeg,dac,trial_no,NMES,stimtime,baseline,iti,face,scr_face,resp_time,index,count_NMES,count_avatar,count_emotion,dac1,dac2,dac1_output,dac2_output,trigs_out,nmes,practice_trials.thisRepN,practice_trials.thisTrialN,practice_trials.thisN,practice_trials.thisIndex,real_trials.thisRepN,real_trials.thisTrialN,real_trials.thisN,real_trials.thisIndex,trials.thisRepN,trials.thisTrialN,trials.thisN,trials.thisIndex,position,Welcome.started,Welcome.stopped,Welcome_resp.keys,Welcome_resp.rt,text_2.started,text_2.stopped,form_2.index,form_2.itemText,form_2.type,form_2.response,form_2.rt,key_resp_4.keys,key_resp_4.rt,key_resp_4.started,key_resp_4.stopped,instructions.started,instructions.stopped,end_instr.keys,end_instr.rt,instructions_2.started,instructions_2.stopped,end_instr_2.keys,end_instr_2.rt,end_instr_2.started,end_instr_2.stopped,instruct_keypress.started,instruct_keypress.stopped,end_instruct_keypress.keys,end_instruct_keypress.rt,start_practice.started,start_practice.stopped,start_practice_resp.keys,start_practice_resp.rt,prac_baseline.started,prac_baseline.stopped,prac_iti.started,prac_iti.stopped,prac_stimulus.started,prac_stimulus.stopped,prac_scram_stim.started,prac_scram_stim.stopped,prac_stimulus_resp.started,prac_stimulus_resp.stopped,prac_resp.keys,prac_resp.rt,prac_resp.started,prac_resp.stopped,transition_to_real.started,transition_to_real.stopped,end_transition_to_real.keys,end_transition_to_real.rt,fixation_cross.started,fixation_cross.stopped,tr_iti.started,tr_iti.stopped,stimulus.started,stimulus.stopped,scram_stim.started,scram_stim.stopped,response_txt.started,response_txt.stopped,response.keys,response.rt,response.started,response.stopped,participant_Resp,grouping,corAnswer,break_msg.started,break_msg.stopped,end_break.keys,end_break.started,end_break.stopped,end_break.rt,text.started,text.stopped,key_resp_3.keys,key_resp_3.rt,key_resp_3.started,key_resp_3.stopped,fix_cross_comf.started,fix_cross_comf.stopped,stimulation_comf.started,stimulation_comf.stopped,rate_instr.started,rate_instr.stopped,comfort_rating.response,comfort_rating.rt,comfort_rating.started,comfort_rating.stopped,resp_form.keys,resp_form.rt,resp_form.started,resp_form.stopped,survey_instructions.started,survey_instructions.stopped,key_resp_2.keys,key_resp_2.rt,key_resp_2.started,key_resp_2.stopped,form.index,form.itemText,form.type,form.response,form.rt,key_resp.keys,key_resp.rt,key_resp.started,key_resp.stopped,text_3.started,text_3.stopped,rate_smile.response,rate_smile.rt,rate_smile.started,rate_smile.stopped,key_resp_5.keys,key_resp_5.rt,key_resp_5.started,key_resp_5.stopped,end_msg.started,end_msg.stopped,end_resp.keys,end_resp.rt,end_resp.started,end_resp.stopped,participant,session,gender,age,LEFT,RIGHT,date,expName,psychopyVersion,frameRate
,,,,,,,,,,,,,,,,,,,,,,,,,,,,,,,,,,,,,,H-S,21.873481,None,num_add,1.4710928,,,,,,,,,,,,,,,,,,,,,,,,,,,,,,,,,,,,,,,,,,,,,,,,,,,,,,,,,,,,,,,,,,,,,,,,,,,,,,,,,,,,,,,,,,,,,,,,,,,,,,,,,,,,,,,,,,,,,,,,,,3,1,female,27,450,450,2022_Aug_01_1031,Experiment,2021.1.4,359.9621321
,,,,,,,,,,,,,,,,,,,,,,,,,,,,,,,,,,,,,,,,,,,23.3569446,25.3980179,1,"This scale consistes of a number of words that describe different feelings and emotion. Read each item and then list the number from the scale below each word. Indicate (by clicking) to what extend you feel this way RIGHT NOW, that is, AT THE PRESENT MOMENT.",description,,,,,,,,,,,,,,,,,,,,,,,,,,,,,,,,,,,,,,,,,,,,,,,,,,,,,,,,,,,,,,,,,,,,,,,,,,,,,,,,,,,,,,,,,,,,,,,,,,,,,,,,,,,,,,,,,,,,,3,1,female,27,450,450,2022_Aug_01_1031,Experiment,2021.1.4,359.9621321
,,,,,,,,,,,,,,,,,,,,,,,,,,,,,,,,,,,,,,,,,,,,,2,Interested,rating,4,11.7419587,,,,,,,,,,,,,,,,,,,,,,,,,,,,,,,,,,,,,,,,,,,,,,,,,,,,,,,,,,,,,,,,,,,,,,,,,,,,,,,,,,,,,,,,,,,,,,,,,,,,,,,,,,,,,,,,,,,3,1,female,27,450,450,2022_Aug_01_1031,Experiment,2021.1.4,359.9621321
,,,,,,,,,,,,,,,,,,,,,,,,,,,,,,,,,,,,,,,,,,,,,3,Distressed,rating,1,16.5610649,,,,,,,,,,,,,,,,,,,,,,,,,,,,,,,,,,,,,,,,,,,,,,,,,,,,,,,,,,,,,,,,,,,,,,,,,,,,,,,,,,,,,,,,,,,,,,,,,,,,,,,,,,,,,,,,,,,3,1,female,27,450,450,2022_Aug_01_1031,Experiment,2021.1.4,359.9621321
,,,,,,,,,,,,,,,,,,,,,,,,,,,,,,,,,,,,,,,,,,,,,4,Excited,rating,3,18.5816122,,,,,,,,,,,,,,,,,,,,,,,,,,,,,,,,,,,,,,,,,,,,,,,,,,,,,,,,,,,,,,,,,,,,,,,,,,,,,,,,,,,,,,,,,,,,,,,,,,,,,,,,,,,,,,,,,,,3,1,female,27,450,450,2022_Aug_01_1031,Experiment,2021.1.4,359.9621321
,,,,,,,,,,,,,,,,,,,,,,,,,,,,,,,,,,,,,,,,,,,,,5,Upset,rating,1,22.6095147,,,,,,,,,,,,,,,,,,,,,,,,,,,,,,,,,,,,,,,,,,,,,,,,,,,,,,,,,,,,,,,,,,,,,,,,,,,,,,,,,,,,,,,,,,,,,,,,,,,,,,,,,,,,,,,,,,,3,1,female,27,450,450,2022_Aug_01_1031,Experiment,2021.1.4,359.9621321
,,,,,,,,,,,,,,,,,,,,,,,,,,,,,,,,,,,,,,,,,,,,,6,Strong,rating,1,26.2267756,,,,,,,,,,,,,,,,,,,,,,,,,,,,,,,,,,,,,,,,,,,,,,,,,,,,,,,,,,,,,,,,,,,,,,,,,,,,,,,,,,,,,,,,,,,,,,,,,,,,,,,,,,,,,,,,,,,3,1,female,27,450,450,2022_Aug_01_1031,Experiment,2021.1.4,359.9621321
,,,,,,,,,,,,,,,,,,,,,,,,,,,,,,,,,,,,,,,,,,,,,7,Guilty,rating,1,8.7312923,,,,,,,,,,,,,,,,,,,,,,,,,,,,,,,,,,,,,,,,,,,,,,,,,,,,,,,,,,,,,,,,,,,,,,,,,,,,,,,,,,,,,,,,,,,,,,,,,,,,,,,,,,,,,,,,,,,3,1,female,27,450,450,2022_Aug_01_1031,Experiment,2021.1.4,359.9621321
,,,,,,,,,,,,,,,,,,,,,,,,,,,,,,,,,,,,,,,,,,,,,8,Scared,rating,1,9.9726564,,,,,,,,,,,,,,,,,,,,,,,,,,,,,,,,,,,,,,,,,,,,,,,,,,,,,,,,,,,,,,,,,,,,,,,,,,,,,,,,,,,,,,,,,,,,,,,,,,,,,,,,,,,,,,,,,,,3,1,female,27,450,450,2022_Aug_01_1031,Experiment,2021.1.4,359.9621321
,,,,,,,,,,,,,,,,,,,,,,,,,,,,,,,,,,,,,,,,,,,,,9,Hostile,rating,1,8.5875201,,,,,,,,,,,,,,,,,,,,,,,,,,,,,,,,,,,,,,,,,,,,,,,,,,,,,,,,,,,,,,,,,,,,,,,,,,,,,,,,,,,,,,,,,,,,,,,,,,,,,,,,,,,,,,,,,,,3,1,female,27,450,450,2022_Aug_01_1031,Experiment,2021.1.4,359.9621321
,,,,,,,,,,,,,,,,,,,,,,,,,,,,,,,,,,,,,,,,,,,,,10,Enthusiastic,rating,3,7.6232197,,,,,,,,,,,,,,,,,,,,,,,,,,,,,,,,,,,,,,,,,,,,,,,,,,,,,,,,,,,,,,,,,,,,,,,,,,,,,,,,,,,,,,,,,,,,,,,,,,,,,,,,,,,,,,,,,,,3,1,female,27,450,450,2022_Aug_01_1031,Experiment,2021.1.4,359.9621321
,,,,,,,,,,,,,,,,,,,,,,,,,,,,,,,,,,,,,,,,,,,,,11,Proud,rating,1,9.5242745,,,,,,,,,,,,,,,,,,,,,,,,,,,,,,,,,,,,,,,,,,,,,,,,,,,,,,,,,,,,,,,,,,,,,,,,,,,,,,,,,,,,,,,,,,,,,,,,,,,,,,,,,,,,,,,,,,,3,1,female,27,450,450,2022_Aug_01_1031,Experiment,2021.1.4,359.9621321
,,,,,,,,,,,,,,,,,,,,,,,,,,,,,,,,,,,,,,,,,,,,,12,Irritable,rating,1,9.1399494,,,,,,,,,,,,,,,,,,,,,,,,,,,,,,,,,,,,,,,,,,,,,,,,,,,,,,,,,,,,,,,,,,,,,,,,,,,,,,,,,,,,,,,,,,,,,,,,,,,,,,,,,,,,,,,,,,,3,1,female,27,450,450,2022_Aug_01_1031,Experiment,2021.1.4,359.9621321
,,,,,,,,,,,,,,,,,,,,,,,,,,,,,,,,,,,,,,,,,,,,,13,Alert,rating,3,9.5575431,,,,,,,,,,,,,,,,,,,,,,,,,,,,,,,,,,,,,,,,,,,,,,,,,,,,,,,,,,,,,,,,,,,,,,,,,,,,,,,,,,,,,,,,,,,,,,,,,,,,,,,,,,,,,,,,,,,3,1,female,27,450,450,2022_Aug_01_1031,Experiment,2021.1.4,359.9621321
,,,,,,,,,,,,,,,,,,,,,,,,,,,,,,,,,,,,,,,,,,,,,14,Ashamed,rating,1,8.5683698,,,,,,,,,,,,,,,,,,,,,,,,,,,,,,,,,,,,,,,,,,,,,,,,,,,,,,,,,,,,,,,,,,,,,,,,,,,,,,,,,,,,,,,,,,,,,,,,,,,,,,,,,,,,,,,,,,,3,1,female,27,450,450,2022_Aug_01_1031,Experiment,2021.1.4,359.9621321
,,,,,,,,,,,,,,,,,,,,,,,,,,,,,,,,,,,,,,,,,,,,,15,Inspired,rating,2,7.3758089,,,,,,,,,,,,,,,,,,,,,,,,,,,,,,,,,,,,,,,,,,,,,,,,,,,,,,,,,,,,,,,,,,,,,,,,,,,,,,,,,,,,,,,,,,,,,,,,,,,,,,,,,,,,,,,,,,,3,1,female,27,450,450,2022_Aug_01_1031,Experiment,2021.1.4,359.9621321
,,,,,,,,,,,,,,,,,,,,,,,,,,,,,,,,,,,,,,,,,,,,,16,Nervous,rating,2,9.0031275,,,,,,,,,,,,,,,,,,,,,,,,,,,,,,,,,,,,,,,,,,,,,,,,,,,,,,,,,,,,,,,,,,,,,,,,,,,,,,,,,,,,,,,,,,,,,,,,,,,,,,,,,,,,,,,,,,,3,1,female,27,450,450,2022_Aug_01_1031,Experiment,2021.1.4,359.9621321
,,,,,,,,,,,,,,,,,,,,,,,,,,,,,,,,,,,,,,,,,,,,,17,Determined,rating,3,9.4795942,,,,,,,,,,,,,,,,,,,,,,,,,,,,,,,,,,,,,,,,,,,,,,,,,,,,,,,,,,,,,,,,,,,,,,,,,,,,,,,,,,,,,,,,,,,,,,,,,,,,,,,,,,,,,,,,,,,3,1,female,27,450,450,2022_Aug_01_1031,Experiment,2021.1.4,359.9621321
,,,,,,,,,,,,,,,,,,,,,,,,,,,,,,,,,,,,,,,,,,,,,18,Attentive,rating,3,9.9862124,,,,,,,,,,,,,,,,,,,,,,,,,,,,,,,,,,,,,,,,,,,,,,,,,,,,,,,,,,,,,,,,,,,,,,,,,,,,,,,,,,,,,,,,,,,,,,,,,,,,,,,,,,,,,,,,,,,3,1,female,27,450,450,2022_Aug_01_1031,Experiment,2021.1.4,359.9621321
,,,,,,,,,,,,,,,,,,,,,,,,,,,,,,,,,,,,,,,,,,,,,19,Jittery,rating,1,9.6230803,,,,,,,,,,,,,,,,,,,,,,,,,,,,,,,,,,,,,,,,,,,,,,,,,,,,,,,,,,,,,,,,,,,,,,,,,,,,,,,,,,,,,,,,,,,,,,,,,,,,,,,,,,,,,,,,,,,3,1,female,27,450,450,2022_Aug_01_1031,Experiment,2021.1.4,359.9621321
,,,,,,,,,,,,,,,,,,,,,,,,,,,,,,,,,,,,,,,,,,,,,20,Active,rating,1,7.3855236,,,,,,,,,,,,,,,,,,,,,,,,,,,,,,,,,,,,,,,,,,,,,,,,,,,,,,,,,,,,,,,,,,,,,,,,,,,,,,,,,,,,,,,,,,,,,,,,,,,,,,,,,,,,,,,,,,,3,1,female,27,450,450,2022_Aug_01_1031,Experiment,2021.1.4,359.9621321
,,,,,,,,,,,,,,,,,,,,,,,,,,,,,,,,,,,,,,,,,,,,,21,Afraid,rating,1,6.0212832,,,,,,,,,,,,,,,,,,,,,,,,,,,,,,,,,,,,,,,,,,,,,,,,,,,,,,,,,,,,,,,,,,,,,,,,,,,,,,,,,,,,,,,,,,,,,,,,,,,,,,,,,,,,,,,,,,,3,1,female,27,450,450,2022_Aug_01_1031,Experiment,2021.1.4,359.9621321
,,,,,,,,,,,,,,,,,,,,,,,,,,,,,,,,,,,,,,,,,,,,,22,Press the + button to submit your answers,description,,,,,,,,,,,,,,,,,,,,,,,,,,,,,,,,,,,,,,,,,,,,,,,,,,,,,,,,,,,,,,,,,,,,,,,,,,,,,,,,,,,,,,,,,,,,,,,,,,,,,,,,,,,,,,,,,,,,,3,1,female,27,450,450,2022_Aug_01_1031,Experiment,2021.1.4,359.9621321
,,,,,,,,,,,,,,,,,,,,,,,,,,,,,,,,,,,,,,,,,,,,,,,,,,num_add,0.1282,33.3761208,None,,,,,,,,,,,,,,,,,,,,,,,,,,,,,,,,,,,,,,,,,,,,,,,,,,,,,,,,,,,,,,,,,,,,,,,,,,,,,,,,,,,,,,,,,,,,,,,,,,,,,,,,,,,,,,,3,1,female,27,450,450,2022_Aug_01_1031,Experiment,2021.1.4,359.9621321
,,,,,,,,,,,,,,,,,,,,,,,,,,,,,,,,,,,,,,,,,,,,,,,,,,,,,,33.5261644,None,num_add,0.2824315,,,,,,,,,,,,,,,,,,,,,,,,,,,,,,,,,,,,,,,,,,,,,,,,,,,,,,,,,,,,,,,,,,,,,,,,,,,,,,,,,,,,,,,,,,,,,,,,,,,,,,,,,,,3,1,female,27,450,450,2022_Aug_01_1031,Experiment,2021.1.4,359.9621321
,,,,,,,,,,,,,,,,,,,,,,,,,,,,,,,,,,,,,,,,,,,,,,,,,,,,,,,,,,33.8233073,None,num_add,0.2890803,33.8233073,None,,,,,,,,,,,,,,,,,,,,,,,,,,,,,,,,,,,,,,,,,,,,,,,,,,,,,,,,,,,,,,,,,,,,,,,,,,,,,,,,,,,,,,,,,,,,,,,,,,,,,3,1,female,27,450,450,2022_Aug_01_1031,Experiment,2021.1.4,359.9621321
,,,,,,,,,,,,,,,,,,,,,,,,,,,,,,,,,,,,,,,,,,,,,,,,,,,,,,,,,,,,,,,,34.1342394,None,num_add,0.2662109,,,,,,,,,,,,,,,,,,,,,,,,,,,,,,,,,,,,,,,,,,,,,,,,,,,,,,,,,,,,,,,,,,,,,,,,,,,,,,,,,,,,,,,,,,,,,,,,,3,1,female,27,450,450,2022_Aug_01_1031,Experiment,2021.1.4,359.9621321
,,,,,,,,,,,,,,,,,,,,,,,,,,,,,,,,,,,,,,,,,,,,,,,,,,,,,,,,,,,,,,,,,,,,34.4091406,None,space,2.8554667,,,,,,,,,,,,,,,,,,,,,,,,,,,,,,,,,,,,,,,,,,,,,,,,,,,,,,,,,,,,,,,,,,,,,,,,,,,,,,,,,,,,,,,,,,,,,3,1,female,27,450,450,2022_Aug_01_1031,Experiment,2021.1.4,359.9621321
images\S22_M_S_02.png,images\S22_M_S_02_scrambled.png,22,Sad,0.2,M,0,0,practice,on,2,0.5,0.75,0.5,0.783,3,,,,,,,,,,,0,0,0,6,,,,,,,,,,,,,,,,,,,,,,,,,,,,,,,,,,,,,,,,,,,37.3945706,37.8969805,37.8969805,38.6522767,38.6522767,39.1550261,39.1550261,39.9408249,39.9408249,None,num_4,0.0675781,39.9408249,None,,,,,,,,,,,,,,,,,,,,,,,,,,,,,,,,,,,,,,,,,,,,,,,,,,,,,,,,,,,,,,,,,,,,,,,,,,,,,,,3,1,female,27,450,450,2022_Aug_01_1031,Experiment,2021.1.4,359.9621321
images\S22_M_S_01.png,images\S22_M_S_01_scrambled.png,22,Sad,0.1,M,0,0,practice,on,2,0.5,0.75,0.5,0.867,3,,,,,,,,,,,0,1,1,5,,,,,,,,,,,,,,,,,,,,,,,,,,,,,,,,,,,,,,,,,,,40.062948,40.5656328,40.5656328,41.3209388,41.3209388,41.8235799,41.8235799,42.6955533,42.6955533,None,num_4,0.1209259,42.6955533,None,,,,,,,,,,,,,,,,,,,,,,,,,,,,,,,,,,,,,,,,,,,,,,,,,,,,,,,,,,,,,,,,,,,,,,,,,,,,,,,3,1,female,27,450,450,2022_Aug_01_1031,Experiment,2021.1.4,359.9621321
images\S22_M_S_03.png,images\S22_M_S_03_scrambled.png,22,Sad,0.3,M,0,0,practice,on,2,0.5,0.75,0.5,0.87,3,,,,,,,,,,,0,2,2,4,,,,,,,,,,,,,,,,,,,,,,,,,,,,,,,,,,,,,,,,,,,42.8898647,43.3953597,43.3953597,44.145019,44.145019,44.6505108,44.6505108,45.5280284,45.5280284,None,num_4,0.1044426,45.5280284,None,,,,,,,,,,,,,,,,,,,,,,,,,,,,,,,,,,,,,,,,,,,,,,,,,,,,,,,,,,,,,,,,,,,,,,,,,,,,,,,3,1,female,27,450,450,2022_Aug_01_1031,Experiment,2021.1.4,359.9621321
images\S21_F_H_02.png,images\S21_F_H_02_scrambled.png,21,Happy,-0.2,F,0,0,practice,off,1,0.5,0.75,0.5,0.91,3,,,,,,,,,,,0,3,3,1,,,,,,,,,,,,,,,,,,,,,,,,,,,,,,,,,,,,,,,,,,,45.6973361,46.2027487,46.2027487,46.9580671,46.9580671,47.4607365,47.4607365,48.3715154,48.3715154,None,num_4,0.1649348,48.3715154,None,,,,,,,,,,,,,,,,,,,,,,,,,,,,,,,,,,,,,,,,,,,,,,,,,,,,,,,,,,,,,,,,,,,,,,,,,,,,,,,3,1,female,27,450,450,2022_Aug_01_1031,Experiment,2021.1.4,359.9621321
images\S22_M_S_02.png,images\S22_M_S_02_scrambled.png,22,Sad,0.2,M,0,0,practice,off,1,0.5,0.75,0.5,0.751,3,,,,,,,,,,,0,4,4,3,,,,,,,,,,,,,,,,,,,,,,,,,,,,,,,,,,,,,,,,,,,48.593661,49.0962902,49.0962902,49.8488334,49.8488334,50.3514961,50.3514961,51.1124142,51.1124142,None,num_4,0.0079,51.1124142,None,,,,,,,,,,,,,,,,,,,,,,,,,,,,,,,,,,,,,,,,,,,,,,,,,,,,,,,,,,,,,,,,,,,,,,,,,,,,,,,3,1,female,27,450,450,2022_Aug_01_1031,Experiment,2021.1.4,359.9621321
images\S22_M_H_02.png,images\S22_M_H_02_scrambled.png,22,Happy,-0.2,M,0,0,practice,off,1,0.5,0.75,0.5,0.883,3,,,,,,,,,,,0,5,5,2,,,,,,,,,,,,,,,,,,,,,,,,,,,,,,,,,,,,,,,,,,,51.1762058,51.6816428,51.6816428,52.436955,52.436955,52.9396682,52.9396682,53.8254741,53.8254741,None,num_4,0.007095,53.8254741,None,,,,,,,,,,,,,,,,,,,,,,,,,,,,,,,,,,,,,,,,,,,,,,,,,,,,,,,,,,,,,,,,,,,,,,,,,,,,,,,3,1,female,27,450,450,2022_Aug_01_1031,Experiment,2021.1.4,359.9621321
images\S22_M_S_03.png,images\S22_M_S_03_scrambled.png,22,Sad,0.3,M,0,0,practice,on,2,0.5,0.75,0.5,0.794,3,,,,,,,,,,,0,6,6,7,,,,,,,,,,,,,,,,,,,,,,,,,,,,,,,,,,,,,,,,,,,53.8975909,54.4003493,54.4003493,55.1555869,55.1555869,55.660974,55.660974,56.4607473,56.4607473,None,num_4,0.1396086,56.4607473,None,,,,,,,,,,,,,,,,,,,,,,,,,,,,,,,,,,,,,,,,,,,,,,,,,,,,,,,,,,,,,,,,,,,,,,,,,,,,,,,3,1,female,27,450,450,2022_Aug_01_1031,Experiment,2021.1.4,359.9621321
images\S21_F_H_01.png,images\S21_F_H_01_scrambled.png,21,Happy,-0.1,F,0,0,practice,off,1,0.5,0.75,0.5,0.853,3,,,,,,,,,,,0,7,7,0,,,,,,,,,,,,,,,,,,,,,,,,,,,,,,,,,,,,,,,,,,,56.6522986,57.1549817,57.1549817,57.9046922,57.9046922,58.407334,58.407334,59.2654553,59.2654553,None,num_4,0.1110117,59.2654553,None,,,,,,,,,,,,,,,,,,,,,,,,,,,,,,,,,,,,,,,,,,,,,,,,,,,,,,,,,,,,,,,,,,,,,,,,,,,,,,,3,1,female,27,450,450,2022_Aug_01_1031,Experiment,2021.1.4,359.9621321
,,,,,,,,,,,,,,,,,,,,,,,,,,,,,,,,,,,,,,,,,,,,,,,,,,,,,,,,,,,,,,,,,,,,,,,,,,,,,,,,,,,,,,59.420995,None,space,11.6994109,,,,,,,,,,,,,,,,,,,,,,,,,,,,,,,,,,,,,,,,,,,,,,,,,,,,,,,,,,,,,,,,,,,,,,,,,,,3,1,female,27,450,450,2022_Aug_01_1031,Experiment,2021.1.4,359.9621321
images\S9_F_S_02.png,images\S9_F_S_02_scrambled.png,9,sad,-20,female,2,,113,on,2,0.5,0.75,0.5,0.805,3,112,1,1,1,2,2,32,128,162,,,,,,0,0,0,0,,,,,,,,,,,,,,,,,,,,,,,,,,,,,,,,,,,,,,,,,,,,,,,,,,,,,,,,,397.9042556,398.4097408,398.4097408,399.1650296,399.1650296,399.6704115,399.6704115,400.4756803,400.4756803,None,num_4,0.5101278,400.4756803,None,happy,1,Sad,401.0118133,None,None,401.0118133,None,,,,,,,,,,,,,,,,,,,,,,,,,,,,,,,,,,,,,,,,,,,,,,,,,,,,,3,1,female,27,450,450,2022_Aug_01_0936,Experiment,2021.1.4,359.905129
images\blank.jpg,images\blank.jpg,none,none,none,none,0,,625,on,2,0.5,0.75,0.5,0.785,0,624,2,1,1,3,3,48,192,240,,,,,,0,1,1,1,,,,,,,,,,,,,,,,,,,,,,,,,,,,,,,,,,,,,,,,,,,,,,,,,,,,,,,,,401.1761889,401.6780894,401.6780894,402.4278644,402.4278644,402.930519,402.930519,403.7192667,403.7192667,403.7192667,None,,403.7192667,None,miss,1,,406.7238192,None,None,406.7238192,None,,,,,,,,,,,,,,,,,,,,,,,,,,,,,,,,,,,,,,,,,,,,,,,,,,,,,3,1,female,27,450,450,2022_Aug_01_0936,Experiment,2021.1.4,359.905129
images\S7_F_S_01.png,images\S7_F_S_01_scrambled.png,7,sad,-10,female,3,,40,off,1,0.5,0.75,0.5,0.802,3,39,1,1,1,0,0,0,0,3,,,,,,0,2,2,2,,,,,,,,,,,,,,,,,,,,,,,,,,,,,,,,,,,,,,,,,,,,,,,,,,,,,,,,,406.8765678,407.3791413,407.3791413,408.1344566,408.1344566,408.6370569,408.6370569,409.4425047,409.4425047,None,num_6,1.1030898,409.4425047,406.8765678,sad,1,Sad,410.5614905,None,None,410.5614905,None,,,,,,,,,,,,,,,,,,,,,,,,,,,,,,,,,,,,,,,,,,,,,,,,,,,,,3,1,female,27,450,450,2022_Aug_01_0936,Experiment,2021.1.4,359.905129
images\S6_M_H_03.png,images\S6_M_H_03_scrambled.png,6,happy,30,male,6,,213,on,2,0.5,0.75,0.5,0.896,3,212,1,1,1,2,2,32,128,166,,,,,,0,3,3,3,,,,,,,,,,,,,,,,,,,,,,,,,,,,,,,,,,,,,,,,,,,,,,,,,,,,,,,,,410.6447837,411.1502025,411.1502025,411.9055168,411.9055168,412.408141,412.408141,413.3079613,413.3079613,None,num_4,2.0214293,413.3079613,None,happy,1,Happy,415.3406033,None,None,415.3406033,None,,,,,,,,,,,,,,,,,,,,,,,,,,,,,,,,,,,,,,,,,,,,,,,,,,,,,3,1,female,27,450,450,2022_Aug_01_0936,Experiment,2021.1.4,359.905129
images\S5_F_S_03.png,images\S5_F_S_03_scrambled.png,5,sad,-30,female,1,,570,on,2,0.5,0.75,0.5,0.8,3,569,2,1,1,2,2,32,128,161,,,,,,0,4,4,4,,,,,,,,,,,,,,,,,,,,,,,,,,,,,,,,,,,,,,,,,,,,,,,,,,,,,,,,,415.4238621,415.9293965,415.9293965,416.6818039,416.6818039,417.1816525,417.1816525,417.984191,417.984191,None,num_6,1.6814061,417.984191,None,sad,1,Sad,419.6837174,None,None,419.6837174,None,,,,,,,,,,,,,,,,,,,,,,,,,,,,,,,,,,,,,,,,,,,,,,,,,,,,,3,1,female,27,450,450,2022_Aug_01_0936,Experiment,2021.1.4,359.905129
images\S4_M_S_02.png,images\S4_M_S_02_scrambled.png,4,sad,-20,male,2,,23,off,1,0.5,0.75,0.5,0.753,3,22,1,1,1,0,0,0,0,2,,,,,,0,5,5,5,,,,,,,,,,,,,,,,,,,,,,,,,,,,,,,,,,,,,,,,,,,,,,,,,,,,,,,,,419.7698032,420.2724103,420.2724103,421.0249202,421.0249202,421.5275753,421.5275753,422.282858,422.282858,None,num_6,0.4471226,422.282858,None,sad,1,Sad,422.7466405,None,None,422.7466405,None,,,,,,,,,,,,,,,,,,,,,,,,,,,,,,,,,,,,,,,,,,,,,,,,,,,,,3,1,female,27,450,450,2022_Aug_01_0936,Experiment,2021.1.4,359.905129
images\S7_F_H_02.png,images\S7_F_H_02_scrambled.png,7,happy,20,female,5,,98,on,2,0.5,0.75,0.5,0.868,3,97,1,1,1,2,2,32,128,165,,,,,,0,6,6,6,,,,,,,,,,,,,,,,,,,,,,,,,,,,,,,,,,,,,,,,,,,,,,,,,,,,,,,,,422.8604283,423.3659828,423.3659828,424.1156353,424.1156353,424.621154,424.621154,425.4929841,425.4929841,None,num_4,0.2846898,425.4929841,None,happy,1,Happy,425.7928899,None,None,425.7928899,None,,,,,,,,,,,,,,,,,,,,,,,,,,,,,,,,,,,,,,,,,,,,,,,,,,,,,3,1,female,27,450,450,2022_Aug_01_0936,Experiment,2021.1.4,359.905129
images\S6_M_H_02.png,images\S6_M_H_02_scrambled.png,6,happy,20,male,5,,452,on,2,0.5,0.75,0.5,0.923,3,451,2,1,2,2,2,32,128,165,,,,,,0,7,7,7,,,,,,,,,,,,,,,,,,,,,,,,,,,,,,,,,,,,,,,,,,,,,,,,,,,,,,,,,425.8789775,426.3843948,426.3843948,427.1397195,427.1397195,427.6424571,427.6424571,428.5726948,428.5726948,None,num_4,0.5165067,428.5726948,None,happy,1,Happy,429.1141604,None,None,429.1141604,None,,,,,,,,,,,,,,,,,,,,,,,,,,,,,,,,,,,,,,,,,,,,,,,,,,,,,3,1,female,27,450,450,2022_Aug_01_0936,Experiment,2021.1.4,359.905129
images\S3_F_H_02.png,images\S3_F_H_02_scrambled.png,3,happy,20,female,5,,134,off,1,0.5,0.75,0.5,0.947,3,133,1,1,3,0,0,0,0,5,,,,,,0,8,8,8,,,,,,,,,,,,,,,,,,,,,,,,,,,,,,,,,,,,,,,,,,,,,,,,,,,,,,,,,429.202969,429.7056053,429.7056053,430.4581554,430.4581554,430.9608827,430.9608827,431.9105981,431.9105981,None,num_4,0.2428303,431.9105981,None,happy,1,Happy,432.1771672,None,None,432.1771672,None,,,,,,,,,,,,,,,,,,,,,,,,,,,,,,,,,,,,,,,,,,,,,,,,,,,,,3,1,female,27,450,450,2022_Aug_01_0936,Experiment,2021.1.4,359.905129
images\S4_M_H_01.png,images\S4_M_H_01_scrambled.png,4,happy,10,male,4,,499,off,1,0.5,0.75,0.5,0.8,3,498,2,1,1,0,0,0,0,4,,,,,,0,9,9,9,,,,,,,,,,,,,,,,,,,,,,,,,,,,,,,,,,,,,,,,,,,,,,,,,,,,,,,,,432.2881097,432.793536,432.793536,433.5461797,433.5461797,434.0487089,434.0487089,434.8513558,434.8513558,None,num_6,0.2461745,434.8513558,None,sad,1,Happy,435.106797,None,None,435.106797,None,,,,,,,,,,,,,,,,,,,,,,,,,,,,,,,,,,,,,,,,,,,,,,,,,,,,,3,1,female,27,450,450,2022_Aug_01_0936,Experiment,2021.1.4,359.905129
images\S4_M_S_02.png,images\S4_M_S_02_scrambled.png,4,sad,-20,male,2,,383,off,1,0.5,0.75,0.5,0.783,3,382,3,2,1,0,0,0,0,2,,,,,,0,10,10,10,,,,,,,,,,,,,,,,,,,,,,,,,,,,,,,,,,,,,,,,,,,,,,,,,,,,,,,,,435.1677887,435.673246,435.673246,436.4285084,436.4285084,436.9312533,436.9312533,437.7170105,437.7170105,None,num_6,0.2846599,437.7170105,None,sad,1,Sad,438.0253812,None,None,438.0253812,None,,,,,,,,,,,,,,,,,,,,,,,,,,,,,,,,,,,,,,,,,,,,,,,,,,,,,3,1,female,27,450,450,2022_Aug_01_0936,Experiment,2021.1.4,359.905129
images\S9_F_S_03.png,images\S9_F_S_03_scrambled.png,9,sad,-30,female,1,,414,off,1,0.5,0.75,0.5,0.81,3,413,4,1,1,0,0,0,0,1,,,,,,0,11,11,11,,,,,,,,,,,,,,,,,,,,,,,,,,,,,,,,,,,,,,,,,,,,,,,,,,,,,,,,,438.1391936,438.6445032,438.6445032,439.3970773,439.3970773,439.899721,439.899721,440.7161921,440.7161921,None,num_6,0.4532176,440.7161921,None,sad,1,Sad,441.1826515,None,None,441.1826515,None,,,,,,,,,,,,,,,,,,,,,,,,,,,,,,,,,,,,,,,,,,,,,,,,,,,,,3,1,female,27,450,450,2022_Aug_01_0936,Experiment,2021.1.4,359.905129
images\S6_M_S_01.png,images\S6_M_S_01_scrambled.png,6,sad,-10,male,3,,154,off,1,0.5,0.75,0.5,0.85,3,153,5,1,1,0,0,0,0,3,,,,,,0,12,12,12,,,,,,,,,,,,,,,,,,,,,,,,,,,,,,,,,,,,,,,,,,,,,,,,,,,,,,,,,441.3019537,441.8046553,441.8046553,442.5571984,442.5571984,443.0626759,443.0626759,443.9150808,443.9150808,None,num_6,0.2627722,443.9150808,None,sad,1,Sad,444.2040372,None,None,444.2040372,None,,,,,,,,,,,,,,,,,,,,,,,,,,,,,,,,,,,,,,,,,,,,,,,,,,,,,3,1,female,27,450,450,2022_Aug_01_0936,Experiment,2021.1.4,359.905129
images\S10_M_S_01.png,images\S10_M_S_01_scrambled.png,10,sad,-10,male,3,,298,off,1,0.5,0.75,0.5,0.903,3,297,6,1,2,0,0,0,0,3,,,,,,0,13,13,13,,,,,,,,,,,,,,,,,,,,,,,,,,,,,,,,,,,,,,,,,,,,,,,,,,,,,,,,,444.3149752,444.8203836,444.8203836,445.5701534,445.5701534,446.0728125,446.0728125,446.9780491,446.9780491,None,num_6,0.5918287,446.9780491,None,sad,1,Sad,447.5973445,None,None,447.5973445,None,,,,,,,,,,,,,,,,,,,,,,,,,,,,,,,,,,,,,,,,,,,,,,,,,,,,,3,1,female,27,450,450,2022_Aug_01_0936,Experiment,2021.1.4,359.905129
images\S3_F_S_01.png,images\S3_F_S_01_scrambled.png,3,sad,-10,female,3,,16,off,1,0.5,0.75,0.5,0.812,3,15,7,1,3,0,0,0,0,3,,,,,,0,14,14,14,,,,,,,,,,,,,,,,,,,,,,,,,,,,,,,,,,,,,,,,,,,,,,,,,,,,,,,,,447.7084694,448.2138038,448.2138038,448.9663588,448.9663588,449.4718534,449.4718534,450.2881759,450.2881759,None,num_6,1.001189,450.2881759,None,sad,1,Sad,451.2989759,None,None,451.2989759,None,,,,,,,,,,,,,,,,,,,,,,,,,,,,,,,,,,,,,,,,,,,,,,,,,,,,,3,1,female,27,450,450,2022_Aug_01_0936,Experiment,2021.1.4,359.905129
images\blank.jpg,images\blank.jpg,none,none,none,none,0,,643,on,2,0.5,0.75,0.5,0.929,0,642,1,1,1,3,3,48,192,240,,,,,,0,15,15,15,,,,,,,,,,,,,,,,,,,,,,,,,,,,,,,,,,,,,,,,,,,,,,,,,,,,,,,,,451.3852709,451.8848601,451.8848601,452.6346318,452.6346318,453.1374041,453.1374041,454.0703773,454.0703773,454.0703773,None,,454.0703773,None,miss,1,,457.0694238,None,None,457.0694238,None,,,,,,,,,,,,,,,,,,,,,,,,,,,,,,,,,,,,,,,,,,,,,,,,,,,,,3,1,female,27,450,450,2022_Aug_01_0936,Experiment,2021.1.4,359.905129
images\blank.jpg,images\blank.jpg,none,none,none,none,0,,623,on,2,0.5,0.75,0.5,0.822,0,622,2,2,2,3,3,48,192,240,,,,,,0,16,16,16,,,,,,,,,,,,,,,,,,,,,,,,,,,,,,,,,,,,,,,,,,,,,,,,,,,,,,,,,457.0971687,457.6025952,457.6025952,458.3523283,458.3523283,458.8549859,458.8549859,459.679754,459.679754,459.679754,None,,459.679754,457.0971687,miss,1,,462.6816333,None,None,462.6816333,None,,,,,,,,,,,,,,,,,,,,,,,,,,,,,,,,,,,,,,,,,,,,,,,,,,,,,3,1,female,27,450,450,2022_Aug_01_0936,Experiment,2021.1.4,359.905129
images\S10_M_H_02.png,images\S10_M_H_02_scrambled.png,10,happy,20,male,5,,236,on,2,0.5,0.75,0.5,0.858,3,235,3,1,1,2,2,32,128,165,,,,,,0,17,17,17,,,,,,,,,,,,,,,,,,,,,,,,,,,,,,,,,,,,,,,,,,,,,,,,,,,,,,,,,462.8456651,463.3507905,463.3507905,464.1061624,464.1061624,464.6087836,464.6087836,465.4697042,465.4697042,None,num_4,0.283685,465.4697042,462.8456651,happy,1,Happy,465.7667405,None,None,465.7667405,None,,,,,,,,,,,,,,,,,,,,,,,,,,,,,,,,,,,,,,,,,,,,,,,,,,,,,3,1,female,27,450,450,2022_Aug_01_0936,Experiment,2021.1.4,359.905129
images\S2_M_S_03.png,images\S2_M_S_03_scrambled.png,2,sad,-30,male,1,,432,on,2,0.5,0.75,0.5,0.828,3,431,4,1,1,2,2,32,128,161,,,,,,0,18,18,18,,,,,,,,,,,,,,,,,,,,,,,,,,,,,,,,,,,,,,,,,,,,,,,,,,,,,,,,,465.8555735,466.3609811,466.3609811,467.1136315,467.1136315,467.6189695,467.6189695,468.4492769,468.4492769,None,num_6,0.2325672,468.4492769,None,sad,1,Sad,468.7076274,None,None,468.7076274,None,,,,,,,,,,,,,,,,,,,,,,,,,,,,,,,,,,,,,,,,,,,,,,,,,,,,,3,1,female,27,450,450,2022_Aug_01_0936,Experiment,2021.1.4,359.905129
images\S8_M_H_03.png,images\S8_M_H_03_scrambled.png,8,happy,30,male,6,,465,on,2,0.5,0.75,0.5,0.876,3,464,5,1,1,2,2,32,128,166,,,,,,0,19,19,19,,,,,,,,,,,,,,,,,,,,,,,,,,,,,,,,,,,,,,,,,,,,,,,,,,,,,,,,,468.8214286,469.3239446,469.3239446,470.079309,470.079309,470.5818985,470.5818985,471.4622175,471.4622175,None,num_4,0.2430701,471.4622175,None,happy,1,Happy,471.7204486,None,None,471.7204486,None,,,,,,,,,,,,,,,,,,,,,,,,,,,,,,,,,,,,,,,,,,,,,,,,,,,,,3,1,female,27,450,450,2022_Aug_01_0936,Experiment,2021.1.4,359.905129
images\S7_F_S_02.png,images\S7_F_S_02_scrambled.png,7,sad,-20,female,2,,221,on,2,0.5,0.75,0.5,0.787,3,220,6,1,1,2,2,32,128,162,,,,,,0,20,20,20,,,,,,,,,,,,,,,,,,,,,,,,,,,,,,,,,,,,,,,,,,,,,,,,,,,,,,,,,471.8315125,472.3313602,472.3313602,473.0839582,473.0839582,473.5893674,473.5893674,474.3807269,474.3807269,None,num_6,0.2686437,474.3807269,None,sad,1,Sad,474.6723979,None,None,474.6723979,None,,,,,,,,,,,,,,,,,,,,,,,,,,,,,,,,,,,,,,,,,,,,,,,,,,,,,3,1,female,27,450,450,2022_Aug_01_0936,Experiment,2021.1.4,359.905129
images\S10_M_H_01.png,images\S10_M_H_01_scrambled.png,10,happy,10,male,4,,295,off,1,0.5,0.75,0.5,0.856,3,294,1,1,1,0,0,0,0,4,,,,,,0,21,21,21,,,,,,,,,,,,,,,,,,,,,,,,,,,,,,,,,,,,,,,,,,,,,,,,,,,,,,,,,474.7806001,475.2832444,475.2832444,476.0330214,476.0330214,476.5385129,476.5385129,477.399283,477.399283,None,num_4,0.314156,477.399283,None,happy,1,Happy,477.7325687,None,None,477.7325687,None,,,,,,,,,,,,,,,,,,,,,,,,,,,,,,,,,,,,,,,,,,,,,,,,,,,,,3,1,female,27,450,450,2022_Aug_01_0936,Experiment,2021.1.4,359.905129
images\S7_F_S_02.png,images\S7_F_S_02_scrambled.png,7,sad,-20,female,2,,161,off,1,0.5,0.75,0.5,0.93,3,160,2,1,1,0,0,0,0,2,,,,,,0,22,22,22,,,,,,,,,,,,,,,,,,,,,,,,,,,,,,,,,,,,,,,,,,,,,,,,,,,,,,,,,477.7991156,478.3017472,478.3017472,479.0543442,479.0543442,479.5597138,479.5597138,480.4928594,480.4928594,None,num_6,0.2283565,480.4928594,None,sad,1,Sad,480.75103,None,None,480.75103,None,,,,,,,,,,,,,,,,,,,,,,,,,,,,,,,,,,,,,,,,,,,,,,,,,,,,,3,1,female,27,450,450,2022_Aug_01_0936,Experiment,2021.1.4,359.905129
images\S1_F_S_02.png,images\S1_F_S_02_scrambled.png,1,sad,-20,female,2,,485,off,1,0.5,0.75,0.5,0.819,3,484,3,1,2,0,0,0,0,2,,,,,,0,23,23,23,,,,,,,,,,,,,,,,,,,,,,,,,,,,,,,,,,,,,,,,,,,,,,,,,,,,,,,,,480.8620717,481.3646874,481.3646874,482.1172425,482.1172425,482.6199077,482.6199077,483.4446942,483.4446942,None,num_6,0.3404888,483.4446942,None,sad,1,Sad,483.8139611,None,None,483.8139611,None,,,,,,,,,,,,,,,,,,,,,,,,,,,,,,,,,,,,,,,,,,,,,,,,,,,,,3,1,female,27,450,450,2022_Aug_01_0936,Experiment,2021.1.4,359.905129
images\S4_M_H_02.png,images\S4_M_H_02_scrambled.png,4,happy,20,male,5,,320,on,2,0.5,0.75,0.5,0.811,3,319,1,1,1,2,2,32,128,165,,,,,,0,24,24,24,,,,,,,,,,,,,,,,,,,,,,,,,,,,,,,,,,,,,,,,,,,,,,,,,,,,,,,,,483.9306602,484.4331881,484.4331881,485.1829615,485.1829615,485.6856237,485.6856237,486.4993433,486.4993433,None,num_6,0.205814,486.4993433,None,sad,1,Happy,486.7130216,None,None,486.7130216,None,,,,,,,,,,,,,,,,,,,,,,,,,,,,,,,,,,,,,,,,,,,,,,,,,,,,,3,1,female,27,450,450,2022_Aug_01_0936,Experiment,2021.1.4,359.905129
images\S4_M_S_03.png,images\S4_M_S_03_scrambled.png,4,sad,-30,male,1,,324,on,2,0.5,0.75,0.5,0.865,3,323,2,2,1,2,2,32,128,161,,,,,,0,25,25,25,,,,,,,,,,,,,,,,,,,,,,,,,,,,,,,,,,,,,,,,,,,,,,,,,,,,,,,,,486.8268969,487.3296011,487.3296011,488.0849033,488.0849033,488.5902837,488.5902837,489.4595124,489.4595124,None,num_6,0.2137706,489.4595124,None,sad,1,Sad,489.6843705,None,None,489.6843705,None,,,,,,,,,,,,,,,,,,,,,,,,,,,,,,,,,,,,,,,,,,,,,,,,,,,,,3,1,female,27,450,450,2022_Aug_01_0936,Experiment,2021.1.4,359.905129
images\S6_M_S_01.png,images\S6_M_S_01_scrambled.png,6,sad,-10,male,3,,514,off,1,0.5,0.75,0.5,0.803,3,513,1,1,1,0,0,0,0,3,,,,,,0,26,26,26,,,,,,,,,,,,,,,,,,,,,,,,,,,,,,,,,,,,,,,,,,,,,,,,,,,,,,,,,489.7509974,490.2536204,490.2536204,491.0034256,491.0034256,491.5032383,491.5032383,492.3086194,492.3086194,None,num_6,0.4126215,492.3086194,None,sad,1,Sad,492.7362269,None,None,492.7362269,None,,,,,,,,,,,,,,,,,,,,,,,,,,,,,,,,,,,,,,,,,,,,,,,,,,,,,3,1,female,27,450,450,2022_Aug_01_0936,Experiment,2021.1.4,359.905129
images\S9_F_H_03.png,images\S9_F_H_03_scrambled.png,9,happy,30,female,6,,111,on,2,0.5,0.75,0.5,0.864,3,110,1,1,1,2,2,32,128,166,,,,,,0,27,27,27,,,,,,,,,,,,,,,,,,,,,,,,,,,,,,,,,,,,,,,,,,,,,,,,,,,,,,,,,492.8222796,493.3250335,493.3250335,494.074687,494.074687,494.580207,494.580207,495.4465062,495.4465062,None,num_4,0.1949818,495.4465062,None,happy,1,Happy,495.6658719,None,None,495.6658719,None,,,,,,,,,,,,,,,,,,,,,,,,,,,,,,,,,,,,,,,,,,,,,,,,,,,,,3,1,female,27,450,450,2022_Aug_01_0936,Experiment,2021.1.4,359.905129
images\S1_F_H_02.png,images\S1_F_H_02_scrambled.png,1,happy,20,female,5,,542,on,2,0.5,0.75,0.5,0.808,3,541,2,1,1,2,2,32,128,165,,,,,,0,28,28,28,,,,,,,,,,,,,,,,,,,,,,,,,,,,,,,,,,,,,,,,,,,,,,,,,,,,,,,,,495.7769197,496.2823487,496.2823487,497.0348696,497.0348696,497.5347386,497.5347386,498.3456627,498.3456627,None,num_4,0.2400124,498.3456627,None,happy,1,Happy,498.6067438,None,None,498.6067438,None,,,,,,,,,,,,,,,,,,,,,,,,,,,,,,,,,,,,,,,,,,,,,,,,,,,,,3,1,female,27,450,450,2022_Aug_01_0936,Experiment,2021.1.4,359.905129
images\S2_M_S_03.png,images\S2_M_S_03_scrambled.png,2,sad,-30,male,1,,132,off,1,0.5,0.75,0.5,0.817,3,131,1,1,1,0,0,0,0,1,,,,,,0,29,29,29,,,,,,,,,,,,,,,,,,,,,,,,,,,,,,,,,,,,,,,,,,,,,,,,,,,,,,,,,498.6593678,499.1620534,499.1620534,499.9173571,499.9173571,500.4171966,500.4171966,501.2364827,501.2364827,None,num_6,0.7648483,501.2364827,None,sad,1,Sad,502.0112554,None,None,502.0112554,None,,,,,,,,,,,,,,,,,,,,,,,,,,,,,,,,,,,,,,,,,,,,,,,,,,,,,3,1,female,27,450,450,2022_Aug_01_0936,Experiment,2021.1.4,359.905129
images\S3_F_S_03.png,images\S3_F_S_03_scrambled.png,3,sad,-30,female,1,,498,off,1,0.5,0.75,0.5,0.798,3,497,2,1,2,0,0,0,0,1,,,,,,0,30,30,30,,,,,,,,,,,,,,,,,,,,,,,,,,,,,,,,,,,,,,,,,,,,,,,,,,,,,,,,,502.0971815,502.6026269,502.6026269,503.3579537,503.3579537,503.8606748,503.8606748,504.6631046,504.6631046,None,num_6,0.2423025,504.6631046,None,sad,1,Sad,504.9213707,None,None,504.9213707,None,,,,,,,,,,,,,,,,,,,,,,,,,,,,,,,,,,,,,,,,,,,,,,,,,,,,,3,1,female,27,450,450,2022_Aug_01_0936,Experiment,2021.1.4,359.905129
images\S6_M_S_01.png,images\S6_M_S_01_scrambled.png,6,sad,-10,male,3,,34,off,1,0.5,0.75,0.5,0.812,3,33,3,1,1,0,0,0,0,3,,,,,,0,31,31,31,,,,,,,,,,,,,,,,,,,,,,,,,,,,,,,,,,,,,,,,,,,,,,,,,,,,,,,,,504.9685397,505.4739897,505.4739897,506.2292659,506.2292659,506.7318914,506.7318914,507.5484197,507.5484197,None,num_6,0.2449191,507.5484197,None,sad,1,Sad,507.8038152,None,None,507.8038152,None,,,,,,,,,,,,,,,,,,,,,,,,,,,,,,,,,,,,,,,,,,,,,,,,,,,,,3,1,female,27,450,450,2022_Aug_01_0936,Experiment,2021.1.4,359.905129
images\S6_M_S_02.png,images\S6_M_S_02_scrambled.png,6,sad,-20,male,2,,275,off,1,0.5,0.75,0.5,0.814,3,274,4,2,1,0,0,0,0,2,,,,,,0,32,32,32,,,,,,,,,,,,,,,,,,,,,,,,,,,,,,,,,,,,,,,,,,,,,,,,,,,,,,,,,507.8870864,508.3925031,508.3925031,509.1451538,509.1451538,509.6505631,509.6505631,510.4668764,510.4668764,None,num_6,0.2222605,510.4668764,None,sad,1,Sad,510.7195789,None,None,510.7195789,None,,,,,,,,,,,,,,,,,,,,,,,,,,,,,,,,,,,,,,,,,,,,,,,,,,,,,3,1,female,27,450,450,2022_Aug_01_0936,Experiment,2021.1.4,359.905129
images\S7_F_H_02.png,images\S7_F_H_02_scrambled.png,7,happy,20,female,5,,458,on,2,0.5,0.75,0.5,0.846,3,457,1,1,1,2,2,32,128,165,,,,,,0,33,33,33,,,,,,,,,,,,,,,,,,,,,,,,,,,,,,,,,,,,,,,,,,,,,,,,,,,,,,,,,510.7862044,511.2916194,511.2916194,512.0413642,512.0413642,512.5467895,512.5467895,513.3965412,513.3965412,None,num_4,0.2367539,513.3965412,None,happy,1,Happy,513.6436911,None,None,513.6436911,None,,,,,,,,,,,,,,,,,,,,,,,,,,,,,,,,,,,,,,,,,,,,,,,,,,,,,3,1,female,27,450,450,2022_Aug_01_0936,Experiment,2021.1.4,359.905129
images\blank.jpg,images\blank.jpg,none,none,none,none,0,,617,on,2,0.5,0.75,0.5,0.822,0,616,2,1,1,3,3,48,192,240,,,,,,0,34,34,34,,,,,,,,,,,,,,,,,,,,,,,,,,,,,,,,,,,,,,,,,,,,,,,,,,,,,,,,,513.732943,514.2351284,514.2351284,514.9905745,514.9905745,515.4959128,515.4959128,516.3206902,516.3206902,516.3206902,None,,516.3206902,None,miss,1,,519.3197053,None,None,519.3197053,None,,,,,,,,,,,,,,,,,,,,,,,,,,,,,,,,,,,,,,,,,,,,,,,,,,,,,3,1,female,27,450,450,2022_Aug_01_0936,Experiment,2021.1.4,359.905129
images\S8_M_S_03.png,images\S8_M_S_03_scrambled.png,8,sad,-30,male,1,,108,on,2,0.5,0.75,0.5,0.945,3,107,3,1,1,2,2,32,128,161,,,,,,0,35,35,35,,,,,,,,,,,,,,,,,,,,,,,,,,,,,,,,,,,,,,,,,,,,,,,,,,,,,,,,,519.470187,519.9694753,519.9694753,520.7220511,520.7220511,521.2247709,521.2247709,522.1716199,522.1716199,None,num_6,0.2535966,522.1716199,519.470187,sad,1,Sad,522.4354283,None,None,522.4354283,None,,,,,,,,,,,,,,,,,,,,,,,,,,,,,,,,,,,,,,,,,,,,,,,,,,,,,3,1,female,27,450,450,2022_Aug_01_0936,Experiment,2021.1.4,359.905129
images\S3_F_S_02.png,images\S3_F_S_02_scrambled.png,3,sad,-20,female,2,,317,on,2,0.5,0.75,0.5,0.927,3,316,4,1,1,2,2,32,128,162,,,,,,0,36,36,36,,,,,,,,,,,,,,,,,,,,,,,,,,,,,,,,,,,,,,,,,,,,,,,,,,,,,,,,,522.5214773,523.026928,523.026928,523.7822496,523.7822496,524.2848129,524.2848129,525.217875,525.217875,None,num_6,0.2474948,525.217875,None,sad,1,Sad,525.4761754,None,None,525.4761754,None,,,,,,,,,,,,,,,,,,,,,,,,,,,,,,,,,,,,,,,,,,,,,,,,,,,,,3,1,female,27,450,450,2022_Aug_01_0936,Experiment,2021.1.4,359.905129
images\S2_M_H_02.png,images\S2_M_H_02_scrambled.png,2,happy,20,male,5,,368,off,1,0.5,0.75,0.5,0.775,3,367,1,1,1,0,0,0,0,5,,,,,,0,37,37,37,,,,,,,,,,,,,,,,,,,,,,,,,,,,,,,,,,,,,,,,,,,,,,,,,,,,,,,,,525.5899743,526.0926336,526.0926336,526.847937,526.847937,527.3506731,527.3506731,528.1281086,528.1281086,None,num_6,0.369618,528.1281086,None,sad,1,Happy,528.5113926,None,None,528.5113926,None,,,,,,,,,,,,,,,,,,,,,,,,,,,,,,,,,,,,,,,,,,,,,,,,,,,,,3,1,female,27,450,450,2022_Aug_01_0936,Experiment,2021.1.4,359.905129
images\S9_F_S_01.png,images\S9_F_S_01_scrambled.png,9,sad,-10,female,3,,292,off,1,0.5,0.75,0.5,0.821,3,291,2,1,1,0,0,0,0,3,,,,,,0,38,38,38,,,,,,,,,,,,,,,,,,,,,,,,,,,,,,,,,,,,,,,,,,,,,,,,,,,,,,,,,528.6223831,529.1277727,529.1277727,529.8831229,529.8831229,530.3858403,530.3858403,531.2132599,531.2132599,None,num_4,0.5724593,531.2132599,None,happy,1,Sad,531.7965335,None,None,531.7965335,None,,,,,,,,,,,,,,,,,,,,,,,,,,,,,,,,,,,,,,,,,,,,,,,,,,,,,3,1,female,27,450,450,2022_Aug_01_0936,Experiment,2021.1.4,359.905129
images\S3_F_S_02.png,images\S3_F_S_02_scrambled.png,3,sad,-20,female,2,,377,off,1,0.5,0.75,0.5,0.916,3,376,3,1,1,0,0,0,0,2,,,,,,0,39,39,39,,,,,,,,,,,,,,,,,,,,,,,,,,,,,,,,,,,,,,,,,,,,,,,,,,,,,,,,,531.8575698,532.3629145,532.3629145,533.1182406,533.1182406,533.6208301,533.6208301,534.5400014,534.5400014,None,num_6,0.2933829,534.5400014,None,sad,1,Sad,534.8594468,None,None,534.8594468,None,,,,,,,,,,,,,,,,,,,,,,,,,,,,,,,,,,,,,,,,,,,,,,,,,,,,,3,1,female,27,450,450,2022_Aug_01_0936,Experiment,2021.1.4,359.905129
images\S5_F_S_02.png,images\S5_F_S_02_scrambled.png,5,sad,-20,female,2,,269,off,1,0.5,0.75,0.5,0.768,3,268,4,1,2,0,0,0,0,2,,,,,,0,40,40,40,,,,,,,,,,,,,,,,,,,,,,,,,,,,,,,,,,,,,,,,,,,,,,,,,,,,,,,,,534.9704177,535.470265,535.470265,536.2228387,536.2228387,536.7282439,536.7282439,537.5030048,537.5030048,None,num_4,0.2503318,537.5030048,None,happy,1,Sad,537.763997,None,None,537.763997,None,,,,,,,,,,,,,,,,,,,,,,,,,,,,,,,,,,,,,,,,,,,,,,,,,,,,,3,1,female,27,450,450,2022_Aug_01_0936,Experiment,2021.1.4,359.905129
images\blank.jpg,images\blank.jpg,none,none,none,none,0,,620,on,2,0.5,0.75,0.5,0.873,0,619,1,1,1,3,3,48,192,240,,,,,,0,41,41,41,,,,,,,,,,,,,,,,,,,,,,,,,,,,,,,,,,,,,,,,,,,,,,,,,,,,,,,,,537.8642083,538.3693928,538.3693928,539.1219367,539.1219367,539.6274431,539.6274431,540.5020633,540.5020633,540.5020633,None,,540.5020633,None,miss,1,,543.506731,None,None,543.506731,None,,,,,,,,,,,,,,,,,,,,,,,,,,,,,,,,,,,,,,,,,,,,,,,,,,,,,3,1,female,27,450,450,2022_Aug_01_0936,Experiment,2021.1.4,359.905129
images\S6_M_H_01.png,images\S6_M_H_01_scrambled.png,6,happy,10,male,4,,571,on,2,0.5,0.75,0.5,0.849,3,570,2,1,1,2,2,32,128,164,,,,,,0,42,42,42,,,,,,,,,,,,,,,,,,,,,,,,,,,,,,,,,,,,,,,,,,,,,,,,,,,,,,,,,543.6568586,544.1620332,544.1620332,544.9173821,544.9173821,545.4199812,545.4199812,546.2725245,546.2725245,None,num_6,0.2488673,546.2725245,543.6568586,sad,1,Happy,546.5307329,None,None,546.5307329,None,,,,,,,,,,,,,,,,,,,,,,,,,,,,,,,,,,,,,,,,,,,,,,,,,,,,,3,1,female,27,450,450,2022_Aug_01_0936,Experiment,2021.1.4,359.905129
images\S1_F_S_02.png,images\S1_F_S_02_scrambled.png,1,sad,-20,female,2,,5,off,1,0.5,0.75,0.5,0.779,3,4,1,1,1,0,0,0,0,2,,,,,,0,43,43,43,,,,,,,,,,,,,,,,,,,,,,,,,,,,,,,,,,,,,,,,,,,,,,,,,,,,,,,,,546.5807409,547.0861629,547.0861629,547.8387114,547.8387114,548.3442139,548.3442139,549.127173,549.127173,None,num_4,0.2587332,549.127173,None,happy,1,Sad,549.3938727,None,None,549.3938727,None,,,,,,,,,,,,,,,,,,,,,,,,,,,,,,,,,,,,,,,,,,,,,,,,,,,,,3,1,female,27,450,450,2022_Aug_01_0936,Experiment,2021.1.4,359.905129
images\S7_F_H_02.png,images\S7_F_H_02_scrambled.png,7,happy,20,female,5,,398,off,1,0.5,0.75,0.5,0.826,3,397,2,1,1,0,0,0,0,5,,,,,,0,44,44,44,,,,,,,,,,,,,,,,,,,,,,,,,,,,,,,,,,,,,,,,,,,,,,,,,,,,,,,,,549.4548536,549.9602936,549.9602936,550.7100314,550.7100314,551.2126594,551.2126594,552.0457606,552.0457606,None,num_4,0.2840892,552.0457606,None,happy,1,Happy,552.3484978,None,None,552.3484978,None,,,,,,,,,,,,,,,,,,,,,,,,,,,,,,,,,,,,,,,,,,,,,,,,,,,,,3,1,female,27,450,450,2022_Aug_01_0936,Experiment,2021.1.4,359.905129
images\S6_M_H_01.png,images\S6_M_H_01_scrambled.png,6,happy,10,male,4,,271,off,1,0.5,0.75,0.5,0.947,3,270,3,1,1,0,0,0,0,4,,,,,,0,45,45,45,,,,,,,,,,,,,,,,,,,,,,,,,,,,,,,,,,,,,,,,,,,,,,,,,,,,,,,,,552.4150544,552.9149049,552.9149049,553.6702795,553.6702795,554.1756481,554.1756481,555.125349,555.125349,None,num_6,0.26812,555.125349,None,sad,1,Happy,555.4030072,None,None,555.4030072,None,,,,,,,,,,,,,,,,,,,,,,,,,,,,,,,,,,,,,,,,,,,,,,,,,,,,,3,1,female,27,450,450,2022_Aug_01_0936,Experiment,2021.1.4,359.905129
images\blank.jpg,images\blank.jpg,none,none,none,none,0,,632,on,2,0.5,0.75,0.5,0.781,0,631,1,1,1,3,3,48,192,240,,,,,,0,46,46,46,,,,,,,,,,,,,,,,,,,,,,,,,,,,,,,,,,,,,,,,,,,,,,,,,,,,,,,,,555.4865788,555.991752,555.991752,556.7470694,556.7470694,557.249737,557.249737,558.0328242,558.0328242,558.0328242,None,,558.0328242,None,miss,1,,561.0346458,None,None,561.0346458,None,,,,,,,,,,,,,,,,,,,,,,,,,,,,,,,,,,,,,,,,,,,,,,,,,,,,,3,1,female,27,450,450,2022_Aug_01_0936,Experiment,2021.1.4,359.905129
images\S3_F_S_03.png,images\S3_F_S_03_scrambled.png,3,sad,-30,female,1,,258,off,1,0.5,0.75,0.5,0.793,3,257,1,1,1,0,0,0,0,1,,,,,,0,47,47,47,,,,,,,,,,,,,,,,,,,,,,,,,,,,,,,,,,,,,,,,,,,,,,,,,,,,,,,,,561.1515005,561.6539356,561.6539356,562.4092402,562.4092402,562.9146426,562.9146426,563.7143944,563.7143944,None,num_6,0.2628771,563.7143944,561.1515005,sad,1,Sad,563.9920647,None,None,563.9920647,None,,,,,,,,,,,,,,,,,,,,,,,,,,,,,,,,,,,,,,,,,,,,,,,,,,,,,3,1,female,27,450,450,2022_Aug_01_0936,Experiment,2021.1.4,359.905129
images\S4_M_S_03.png,images\S4_M_S_03_scrambled.png,4,sad,-30,male,1,,444,on,2,0.5,0.75,0.5,0.848,3,443,1,1,2,2,2,32,128,161,,,,,,0,48,48,48,,,,,,,,,,,,,,,,,,,,,,,,,,,,,,,,,,,,,,,,,,,,,,,,,,,,,,,,,564.0392519,564.5446824,564.5446824,565.2973286,565.2973286,565.7970852,565.7970852,566.6467942,566.6467942,None,num_6,0.250404,566.6467942,None,sad,1,Sad,566.9218311,None,None,566.9218311,None,,,,,,,,,,,,,,,,,,,,,,,,,,,,,,,,,,,,,,,,,,,,,,,,,,,,,3,1,female,27,450,450,2022_Aug_01_0936,Experiment,2021.1.4,359.905129
images\S7_F_H_03.png,images\S7_F_H_03_scrambled.png,7,happy,30,female,6,,219,on,2,0.5,0.75,0.5,0.931,3,218,2,1,1,2,2,32,128,166,,,,,,0,49,49,49,,,,,,,,,,,,,,,,,,,,,,,,,,,,,,,,,,,,,,,,,,,,,,,,,,,,,,,,,567.03,567.532655,567.532655,568.2823913,568.2823913,568.7850158,568.7850158,569.7181187,569.7181187,None,num_4,0.2270785,569.7181187,None,happy,1,Happy,569.9569143,None,None,569.9569143,None,,,,,,,,,,,,,,,,,,,,,,,,,,,,,,,,,,,,,,,,,,,,,,,,,,,,,3,1,female,27,450,450,2022_Aug_01_0936,Experiment,2021.1.4,359.905129
images\S4_M_H_01.png,images\S4_M_H_01_scrambled.png,4,happy,10,male,4,,199,on,2,0.5,0.75,0.5,0.893,3,198,3,1,1,2,2,32,128,164,,,,,,0,50,50,50,,,,,,,,,,,,,,,,,,,,,,,,,,,,,,,,,,,,,,,,,,,,,,,,,,,,,,,,,570.0040926,570.5067776,570.5067776,571.2620874,571.2620874,571.7674714,571.7674714,572.6671966,572.6671966,None,num_6,0.222278,572.6671966,None,sad,1,Happy,572.8976869,None,None,572.8976869,None,,,,,,,,,,,,,,,,,,,,,,,,,,,,,,,,,,,,,,,,,,,,,,,,,,,,,3,1,female,27,450,450,2022_Aug_01_0936,Experiment,2021.1.4,359.905129
images\S2_M_H_03.png,images\S2_M_H_03_scrambled.png,2,happy,30,male,6,,69,on,2,0.5,0.75,0.5,0.846,3,68,4,1,1,2,2,32,128,166,,,,,,0,51,51,51,,,,,,,,,,,,,,,,,,,,,,,,,,,,,,,,,,,,,,,,,,,,,,,,,,,,,,,,,573.0087184,573.5114849,573.5114849,574.2611266,574.2611266,574.7609837,574.7609837,575.6106943,575.6106943,None,num_4,0.1987491,575.6106943,None,happy,1,Happy,575.8301759,None,None,575.8301759,None,,,,,,,,,,,,,,,,,,,,,,,,,,,,,,,,,,,,,,,,,,,,,,,,,,,,,3,1,female,27,450,450,2022_Aug_01_0936,Experiment,2021.1.4,359.905129
images\S5_F_H_03.png,images\S5_F_H_03_scrambled.png,5,happy,30,female,6,,27,off,1,0.5,0.75,0.5,0.825,3,26,1,1,2,0,0,0,0,6,,,,,,0,52,52,52,,,,,,,,,,,,,,,,,,,,,,,,,,,,,,,,,,,,,,,,,,,,,,,,,,,,,,,,,575.9439308,576.4466425,576.4466425,577.2019398,577.2019398,577.7073164,577.7073164,578.5375894,578.5375894,None,num_4,0.2394543,578.5375894,None,happy,1,Happy,578.8069701,None,None,578.8069701,None,,,,,,,,,,,,,,,,,,,,,,,,,,,,,,,,,,,,,,,,,,,,,,,,,,,,,3,1,female,27,450,450,2022_Aug_01_0936,Experiment,2021.1.4,359.905129
images\S3_F_S_03.png,images\S3_F_S_03_scrambled.png,3,sad,-30,female,1,,318,on,2,0.5,0.75,0.5,0.911,3,317,1,1,1,2,2,32,128,161,,,,,,0,53,53,53,,,,,,,,,,,,,,,,,,,,,,,,,,,,,,,,,,,,,,,,,,,,,,,,,,,,,,,,,578.8708041,579.3734436,579.3734436,580.1260956,580.1260956,580.6315091,580.6315091,581.5450209,581.5450209,None,num_6,0.2403948,581.5450209,None,sad,1,Sad,581.8061127,None,None,581.8061127,None,,,,,,,,,,,,,,,,,,,,,,,,,,,,,,,,,,,,,,,,,,,,,,,,,,,,,3,1,female,27,450,450,2022_Aug_01_0936,Experiment,2021.1.4,359.905129
images\S4_M_H_02.png,images\S4_M_H_02_scrambled.png,4,happy,20,male,5,,200,on,2,0.5,0.75,0.5,0.765,3,199,2,1,1,2,2,32,128,165,,,,,,0,54,54,54,,,,,,,,,,,,,,,,,,,,,,,,,,,,,,,,,,,,,,,,,,,,,,,,,,,,,,,,,581.8561307,582.3586453,582.3586453,583.1139495,583.1139495,583.6166494,583.6166494,584.385904,584.385904,None,num_6,0.215786,584.385904,None,sad,1,Happy,584.6080201,None,None,584.6080201,None,,,,,,,,,,,,,,,,,,,,,,,,,,,,,,,,,,,,,,,,,,,,,,,,,,,,,3,1,female,27,450,450,2022_Aug_01_0936,Experiment,2021.1.4,359.905129
images\S9_F_S_03.png,images\S9_F_S_03_scrambled.png,9,sad,-30,female,1,,234,on,2,0.5,0.75,0.5,0.822,3,233,3,1,1,2,2,32,128,161,,,,,,0,55,55,55,,,,,,,,,,,,,,,,,,,,,,,,,,,,,,,,,,,,,,,,,,,,,,,,,,,,,,,,,584.6662415,585.1661054,585.1661054,585.915856,585.915856,586.4213825,586.4213825,587.2487952,587.2487952,None,num_6,0.2006537,587.2487952,None,sad,1,Sad,587.4626279,None,None,587.4626279,None,,,,,,,,,,,,,,,,,,,,,,,,,,,,,,,,,,,,,,,,,,,,,,,,,,,,,3,1,female,27,450,450,2022_Aug_01_0936,Experiment,2021.1.4,359.905129
images\blank.jpg,images\blank.jpg,none,none,none,none,0,,609,on,2,0.5,0.75,0.5,0.786,0,608,4,1,1,3,3,48,192,240,,,,,,0,56,56,56,,,,,,,,,,,,,,,,,,,,,,,,,,,,,,,,,,,,,,,,,,,,,,,,,,,,,,,,,587.5461453,588.0485519,588.0485519,588.8038741,588.8038741,589.3065621,589.3065621,590.0951662,590.0951662,590.0951662,None,,590.0951662,None,miss,1,,593.0970087,None,None,593.0970087,None,,,,,,,,,,,,,,,,,,,,,,,,,,,,,,,,,,,,,,,,,,,,,,,,,,,,,3,1,female,27,450,450,2022_Aug_01_0936,Experiment,2021.1.4,359.905129
images\S1_F_H_01.png,images\S1_F_H_01_scrambled.png,1,happy,10,female,4,,481,off,1,0.5,0.75,0.5,0.855,3,480,1,1,1,0,0,0,0,4,,,,,,0,57,57,57,,,,,,,,,,,,,,,,,,,,,,,,,,,,,,,,,,,,,,,,,,,,,,,,,,,,,,,,,593.2476329,593.7524171,593.7524171,594.504881,594.504881,595.0075843,595.0075843,595.868391,595.868391,None,num_4,0.2447142,595.868391,593.2476329,happy,1,Happy,596.1265924,None,None,596.1265924,None,,,,,,,,,,,,,,,,,,,,,,,,,,,,,,,,,,,,,,,,,,,,,,,,,,,,,3,1,female,27,450,450,2022_Aug_01_0936,Experiment,2021.1.4,359.905129
images\S8_M_S_01.png,images\S8_M_S_01_scrambled.png,8,sad,-10,male,3,,286,off,1,0.5,0.75,0.5,0.851,3,285,2,1,1,0,0,0,0,3,,,,,,0,58,58,58,,,,,,,,,,,,,,,,,,,,,,,,,,,,,,,,,,,,,,,,,,,,,,,,,,,,,,,,,596.2404601,596.7431001,596.7431001,597.4984437,597.4984437,598.0010668,598.0010668,598.8591175,598.8591175,None,num_6,0.2943619,598.8591175,None,sad,1,Sad,599.1757917,None,None,599.1757917,None,,,,,,,,,,,,,,,,,,,,,,,,,,,,,,,,,,,,,,,,,,,,,,,,,,,,,3,1,female,27,450,450,2022_Aug_01_0936,Experiment,2021.1.4,359.905129
images\S6_M_H_03.png,images\S6_M_H_03_scrambled.png,6,happy,30,male,6,,573,on,2,0.5,0.75,0.5,0.868,3,572,1,1,1,2,2,32,128,166,,,,,,0,59,59,59,,,,,,,,,,,,,,,,,,,,,,,,,,,,,,,,,,,,,,,,,,,,,,,,,,,,,,,,,599.2284426,599.7338658,599.7338658,600.4891845,600.4891845,600.9918612,600.9918612,601.863728,601.863728,None,num_4,0.2574651,601.863728,None,happy,1,Happy,602.1358698,None,None,602.1358698,None,,,,,,,,,,,,,,,,,,,,,,,,,,,,,,,,,,,,,,,,,,,,,,,,,,,,,3,1,female,27,450,450,2022_Aug_01_0936,Experiment,2021.1.4,359.905129
images\S8_M_S_02.png,images\S8_M_S_02_scrambled.png,8,sad,-20,male,2,,587,on,2,0.5,0.75,0.5,0.775,3,586,2,1,1,2,2,32,128,162,,,,,,0,60,60,60,,,,,,,,,,,,,,,,,,,,,,,,,,,,,,,,,,,,,,,,,,,,,,,,,,,,,,,,,602.2164056,602.7190317,602.7190317,603.4688116,603.4688116,603.9715007,603.9715007,604.7489643,604.7489643,None,num_6,0.2523072,604.7489643,None,sad,1,Sad,605.0128098,None,None,605.0128098,None,,,,,,,,,,,,,,,,,,,,,,,,,,,,,,,,,,,,,,,,,,,,,,,,,,,,,3,1,female,27,450,450,2022_Aug_01_0936,Experiment,2021.1.4,359.905129
images\S4_M_S_01.png,images\S4_M_S_01_scrambled.png,4,sad,-10,male,3,,502,off,1,0.5,0.75,0.5,0.854,3,501,1,1,1,0,0,0,0,3,,,,,,0,61,61,61,,,,,,,,,,,,,,,,,,,,,,,,,,,,,,,,,,,,,,,,,,,,,,,,,,,,,,,,,605.1238399,605.6292554,605.6292554,606.3790191,606.3790191,606.8817122,606.8817122,607.7397076,607.7397076,None,num_6,0.2696989,607.7397076,None,sad,1,Sad,608.0229638,None,None,608.0229638,None,,,,,,,,,,,,,,,,,,,,,,,,,,,,,,,,,,,,,,,,,,,,,,,,,,,,,3,1,female,27,450,450,2022_Aug_01_0936,Experiment,2021.1.4,359.905129
images\S4_M_S_03.png,images\S4_M_S_03_scrambled.png,4,sad,-30,male,1,,504,off,1,0.5,0.75,0.5,0.906,3,503,2,2,1,0,0,0,0,1,,,,,,0,62,62,62,,,,,,,,,,,,,,,,,,,,,,,,,,,,,,,,,,,,,,,,,,,,,,,,,,,,,,,,,608.0701519,608.5727835,608.5727835,609.3225465,609.3225465,609.8279907,609.8279907,610.7360766,610.7360766,None,num_6,0.5610842,610.7360766,None,sad,1,Sad,611.3081486,None,None,611.3081486,None,,,,,,,,,,,,,,,,,,,,,,,,,,,,,,,,,,,,,,,,,,,,,,,,,,,,,3,1,female,27,450,450,2022_Aug_01_0936,Experiment,2021.1.4,359.905129
images\S5_F_H_03.png,images\S5_F_H_03_scrambled.png,5,happy,30,female,6,,507,off,1,0.5,0.75,0.5,0.911,3,506,3,1,1,0,0,0,0,6,,,,,,0,63,63,63,,,,,,,,,,,,,,,,,,,,,,,,,,,,,,,,,,,,,,,,,,,,,,,,,,,,,,,,,611.3552547,611.8578971,611.8578971,612.6104826,612.6104826,613.1158844,613.1158844,614.0295654,614.0295654,None,num_4,0.2918314,614.0295654,None,happy,1,Happy,614.3349768,None,None,614.3349768,None,,,,,,,,,,,,,,,,,,,,,,,,,,,,,,,,,,,,,,,,,,,,,,,,,,,,,3,1,female,27,450,450,2022_Aug_01_0936,Experiment,2021.1.4,359.905129
images\S10_M_H_03.png,images\S10_M_H_03_scrambled.png,10,happy,30,male,6,,297,off,1,0.5,0.75,0.5,0.753,3,296,4,1,2,0,0,0,0,6,,,,,,0,64,64,64,,,,,,,,,,,,,,,,,,,,,,,,,,,,,,,,,,,,,,,,,,,,,,,,,,,,,,,,,614.4459719,614.9458242,614.9458242,615.7011978,615.7011978,616.2065398,616.2065398,616.9618641,616.9618641,None,num_4,0.4475953,616.9618641,None,happy,1,Happy,617.4368295,None,None,617.4368295,None,,,,,,,,,,,,,,,,,,,,,,,,,,,,,,,,,,,,,,,,,,,,,,,,,,,,,3,1,female,27,450,450,2022_Aug_01_0936,Experiment,2021.1.4,359.905129
images\S4_M_S_02.png,images\S4_M_S_02_scrambled.png,4,sad,-20,male,2,,443,on,2,0.5,0.75,0.5,0.894,3,442,1,1,1,2,2,32,128,162,,,,,,0,65,65,65,,,,,,,,,,,,,,,,,,,,,,,,,,,,,,,,,,,,,,,,,,,,,,,,,,,,,,,,,617.5088563,618.0115838,618.0115838,618.7613173,618.7613173,619.2639309,619.2639309,620.1608864,620.1608864,None,num_6,0.2407807,620.1608864,None,sad,1,Sad,620.4220766,None,None,620.4220766,None,,,,,,,,,,,,,,,,,,,,,,,,,,,,,,,,,,,,,,,,,,,,,,,,,,,,,3,1,female,27,450,450,2022_Aug_01_0936,Experiment,2021.1.4,359.905129
images\S7_F_S_01.png,images\S7_F_S_01_scrambled.png,7,sad,-10,female,3,,520,off,1,0.5,0.75,0.5,0.923,3,519,1,1,1,0,0,0,0,3,,,,,,0,66,66,66,,,,,,,,,,,,,,,,,,,,,,,,,,,,,,,,,,,,,,,,,,,,,,,,,,,,,,,,,620.4746754,620.9773151,620.9773151,621.7299705,621.7299705,622.2296923,622.2296923,623.1571988,623.1571988,None,num_6,0.0440626,623.1571988,None,sad,1,Sad,623.2154898,None,None,623.2154898,None,,,,,,,,,,,,,,,,,,,,,,,,,,,,,,,,,,,,,,,,,,,,,,,,,,,,,3,1,female,27,450,450,2022_Aug_01_0936,Experiment,2021.1.4,359.905129
images\S6_M_S_03.png,images\S6_M_S_03_scrambled.png,6,sad,-30,male,1,,516,off,1,0.5,0.75,0.5,0.784,3,515,2,1,1,0,0,0,0,1,,,,,,0,67,67,67,,,,,,,,,,,,,,,,,,,,,,,,,,,,,,,,,,,,,,,,,,,,,,,,,,,,,,,,,623.3265752,623.8320056,623.8320056,624.5846063,624.5846063,625.0871601,625.0871601,625.8730216,625.8730216,None,num_6,0.2483495,625.8730216,None,sad,1,Sad,626.1368429,None,None,626.1368429,None,,,,,,,,,,,,,,,,,,,,,,,,,,,,,,,,,,,,,,,,,,,,,,,,,,,,,3,1,female,27,450,450,2022_Aug_01_0936,Experiment,2021.1.4,359.905129
images\S3_F_S_02.png,images\S3_F_S_02_scrambled.png,3,sad,-20,female,2,,77,on,2,0.5,0.75,0.5,0.781,3,76,1,1,1,2,2,32,128,162,,,,,,0,68,68,68,,,,,,,,,,,,,,,,,,,,,,,,,,,,,,,,,,,,,,,,,,,,,,,,,,,,,,,,,626.1840267,626.6894692,626.6894692,627.4420125,627.4420125,627.9446244,627.9446244,628.7278267,628.7278267,None,num_6,0.361683,628.7278267,None,sad,1,Sad,629.1110239,None,None,629.1110239,None,,,,,,,,,,,,,,,,,,,,,,,,,,,,,,,,,,,,,,,,,,,,,,,,,,,,,3,1,female,27,450,450,2022_Aug_01_0936,Experiment,2021.1.4,359.905129
images\S8_M_S_02.png,images\S8_M_S_02_scrambled.png,8,sad,-20,male,2,,47,off,1,0.5,0.75,0.5,0.884,3,46,1,1,2,0,0,0,0,2,,,,,,0,69,69,69,,,,,,,,,,,,,,,,,,,,,,,,,,,,,,,,,,,,,,,,,,,,,,,,,,,,,,,,,629.163668,629.6691092,629.6691092,630.4244308,630.4244308,630.9270546,630.9270546,631.8128654,631.8128654,None,num_6,0.2363876,631.8128654,None,sad,1,Sad,632.071199,None,None,632.071199,None,,,,,,,,,,,,,,,,,,,,,,,,,,,,,,,,,,,,,,,,,,,,,,,,,,,,,3,1,female,27,450,450,2022_Aug_01_0936,Experiment,2021.1.4,359.905129
images\S10_M_S_03.png,images\S10_M_S_03_scrambled.png,10,sad,-30,male,1,,480,on,2,0.5,0.75,0.5,0.843,3,479,1,1,1,2,2,32,128,161,,,,,,0,70,70,70,,,,,,,,,,,,,,,,,,,,,,,,,,,,,,,,,,,,,,,,,,,,,,,,,,,,,,,,,632.1821922,632.6848071,632.6848071,633.437477,633.437477,633.9399735,633.9399735,634.7897394,634.7897394,None,num_6,0.2434988,634.7897394,None,sad,1,Sad,635.0479778,None,None,635.0479778,None,,,,,,,,,,,,,,,,,,,,,,,,,,,,,,,,,,,,,,,,,,,,,,,,,,,,,3,1,female,27,450,450,2022_Aug_01_0936,Experiment,2021.1.4,359.905129
images\S5_F_S_01.png,images\S5_F_S_01_scrambled.png,5,sad,-10,female,3,,448,on,2,0.5,0.75,0.5,0.817,3,447,2,1,1,2,2,32,128,163,,,,,,0,71,71,71,,,,,,,,,,,,,,,,,,,,,,,,,,,,,,,,,,,,,,,,,,,,,,,,,,,,,,,,,635.1340578,635.6395179,635.6395179,636.3892216,636.3892216,636.8918444,636.8918444,637.7110918,637.7110918,None,num_4,0.2101587,637.7110918,None,happy,1,Sad,637.930398,None,None,637.930398,None,,,,,,,,,,,,,,,,,,,,,,,,,,,,,,,,,,,,,,,,,,,,,,,,,,,,,3,1,female,27,450,450,2022_Aug_01_0936,Experiment,2021.1.4,359.905129
images\S1_F_S_03.png,images\S1_F_S_03_scrambled.png,1,sad,-30,female,1,,426,on,2,0.5,0.75,0.5,0.797,3,425,3,1,1,2,2,32,128,161,,,,,,0,72,72,72,,,,,,,,,,,,,,,,,,,,,,,,,,,,,,,,,,,,,,,,,,,,,,,,,,,,,,,,,638.0165064,638.5191388,638.5191388,639.2744643,639.2744643,639.7772047,639.7772047,640.5768208,640.5768208,None,num_6,0.2486543,640.5768208,None,sad,1,Sad,640.8462719,None,None,640.8462719,None,,,,,,,,,,,,,,,,,,,,,,,,,,,,,,,,,,,,,,,,,,,,,,,,,,,,,3,1,female,27,450,450,2022_Aug_01_0936,Experiment,2021.1.4,359.905129
images\S5_F_H_02.png,images\S5_F_H_02_scrambled.png,5,happy,20,female,5,,566,on,2,0.5,0.75,0.5,0.769,3,565,4,1,1,2,2,32,128,165,,,,,,0,73,73,73,,,,,,,,,,,,,,,,,,,,,,,,,,,,,,,,,,,,,,,,,,,,,,,,,,,,,,,,,640.9572594,641.4626866,641.4626866,642.2180401,642.2180401,642.7206074,642.7206074,643.4926454,643.4926454,None,num_4,0.2526185,643.4926454,None,happy,1,Happy,643.7592544,None,None,643.7592544,None,,,,,,,,,,,,,,,,,,,,,,,,,,,,,,,,,,,,,,,,,,,,,,,,,,,,,3,1,female,27,450,450,2022_Aug_01_0936,Experiment,2021.1.4,359.905129
images\S7_F_H_02.png,images\S7_F_H_02_scrambled.png,7,happy,20,female,5,,158,off,1,0.5,0.75,0.5,0.886,3,157,1,1,2,0,0,0,0,5,,,,,,0,74,74,74,,,,,,,,,,,,,,,,,,,,,,,,,,,,,,,,,,,,,,,,,,,,,,,,,,,,,,,,,643.8091621,644.3145778,644.3145778,645.0643268,645.0643268,645.5669208,645.5669208,646.4527884,646.4527884,None,num_4,0.2365428,646.4527884,None,happy,1,Happy,646.7055343,None,None,646.7055343,None,,,,,,,,,,,,,,,,,,,,,,,,,,,,,,,,,,,,,,,,,,,,,,,,,,,,,3,1,female,27,450,450,2022_Aug_01_0936,Experiment,2021.1.4,359.905129
images\S6_M_S_02.png,images\S6_M_S_02_scrambled.png,6,sad,-20,male,2,,35,off,1,0.5,0.75,0.5,0.914,3,34,2,1,1,0,0,0,0,2,,,,,,0,75,75,75,,,,,,,,,,,,,,,,,,,,,,,,,,,,,,,,,,,,,,,,,,,,,,,,,,,,,,,,,646.7583444,647.2581091,647.2581091,648.0078744,648.0078744,648.5077123,648.5077123,649.4268952,649.4268952,None,num_6,0.2306902,649.4268952,None,sad,1,Sad,649.6686272,None,None,649.6686272,None,,,,,,,,,,,,,,,,,,,,,,,,,,,,,,,,,,,,,,,,,,,,,,,,,,,,,3,1,female,27,450,450,2022_Aug_01_0936,Experiment,2021.1.4,359.905129
images\S9_F_H_01.png,images\S9_F_H_01_scrambled.png,9,happy,10,female,4,,289,off,1,0.5,0.75,0.5,0.875,3,288,3,1,1,0,0,0,0,4,,,,,,0,76,76,76,,,,,,,,,,,,,,,,,,,,,,,,,,,,,,,,,,,,,,,,,,,,,,,,,,,,,,,,,649.7795474,650.2821886,650.2821886,651.0375775,651.0375775,651.5429504,651.5429504,652.4232162,652.4232162,None,num_6,1.2579345,652.4232162,None,sad,1,Happy,653.6894652,None,None,653.6894652,None,,,,,,,,,,,,,,,,,,,,,,,,,,,,,,,,,,,,,,,,,,,,,,,,,,,,,3,1,female,27,450,450,2022_Aug_01_0936,Experiment,2021.1.4,359.905129
images\S4_M_H_03.png,images\S4_M_H_03_scrambled.png,4,happy,30,male,6,,141,off,1,0.5,0.75,0.5,0.905,3,140,4,1,1,0,0,0,0,6,,,,,,0,77,77,77,,,,,,,,,,,,,,,,,,,,,,,,,,,,,,,,,,,,,,,,,,,,,,,,,,,,,,,,,653.7894252,654.2920603,654.2920603,655.044646,655.044646,655.5444412,655.5444412,656.4553126,656.4553126,None,num_6,0.0498984,656.4553126,None,sad,1,Happy,656.5135661,None,None,656.5135661,None,,,,,,,,,,,,,,,,,,,,,,,,,,,,,,,,,,,,,,,,,,,,,,,,,,,,,3,1,female,27,450,450,2022_Aug_01_0936,Experiment,2021.1.4,359.905129
images\S8_M_S_02.png,images\S8_M_S_02_scrambled.png,8,sad,-20,male,2,,227,on,2,0.5,0.75,0.5,0.847,3,226,1,1,1,2,2,32,128,162,,,,,,0,78,78,78,,,,,,,,,,,,,,,,,,,,,,,,,,,,,,,,,,,,,,,,,,,,,,,,,,,,,,,,,656.5608007,657.0662129,657.0662129,657.818871,657.818871,658.3242813,658.3242813,659.1738772,659.1738772,None,num_6,0.2755004,659.1738772,None,sad,1,Sad,659.4683094,None,None,659.4683094,None,,,,,,,,,,,,,,,,,,,,,,,,,,,,,,,,,,,,,,,,,,,,,,,,,,,,,3,1,female,27,450,450,2022_Aug_01_0936,Experiment,2021.1.4,359.905129
images\S9_F_S_02.png,images\S9_F_S_02_scrambled.png,9,sad,-20,female,2,,53,off,1,0.5,0.75,0.5,0.871,3,52,1,1,2,0,0,0,0,2,,,,,,0,79,79,79,,,,,,,,,,,,,,,,,,,,,,,,,,,,,,,,,,,,,,,,,,,,,,,,,,,,,,,,,659.5348792,660.040322,660.040322,660.7900502,660.7900502,661.2926782,661.2926782,662.1702187,662.1702187,None,num_6,0.2390555,662.1702187,None,sad,1,Sad,662.4256815,None,None,662.4256815,None,,,,,,,,,,,,,,,,,,,,,,,,,,,,,,,,,,,,,,,,,,,,,,,,,,,,,3,1,female,27,450,450,2022_Aug_01_0936,Experiment,2021.1.4,359.905129
images\S4_M_H_02.png,images\S4_M_H_02_scrambled.png,4,happy,20,male,5,,560,on,2,0.5,0.75,0.5,0.787,3,559,1,1,1,2,2,32,128,165,,,,,,0,80,80,80,,,,,,,,,,,,,,,,,,,,,,,,,,,,,,,,,,,,,,,,,,,,,,,,,,,,,,,,,662.4728625,662.9755242,662.9755242,663.7252665,663.7252665,664.2306822,664.2306822,665.0221758,665.0221758,None,num_6,0.2750414,665.0221758,None,sad,1,Happy,665.3053381,None,None,665.3053381,None,,,,,,,,,,,,,,,,,,,,,,,,,,,,,,,,,,,,,,,,,,,,,,,,,,,,,3,1,female,27,450,450,2022_Aug_01_0936,Experiment,2021.1.4,359.905129
images\S10_M_H_02.png,images\S10_M_H_02_scrambled.png,10,happy,20,male,5,,356,on,2,0.5,0.75,0.5,0.855,3,355,2,1,2,2,2,32,128,165,,,,,,0,81,81,81,,,,,,,,,,,,,,,,,,,,,,,,,,,,,,,,,,,,,,,,,,,,,,,,,,,,,,,,,665.3636523,665.8662936,665.8662936,666.6216098,666.6216098,667.1243414,667.1243414,667.9850948,667.9850948,None,num_4,0.23202,667.9850948,None,happy,1,Happy,668.2321961,None,None,668.2321961,None,,,,,,,,,,,,,,,,,,,,,,,,,,,,,,,,,,,,,,,,,,,,,,,,,,,,,3,1,female,27,450,450,2022_Aug_01_0936,Experiment,2021.1.4,359.905129
images\S2_M_S_01.png,images\S2_M_S_01_scrambled.png,2,sad,-10,male,3,,10,off,1,0.5,0.75,0.5,0.947,3,9,1,1,1,0,0,0,0,3,,,,,,0,82,82,82,,,,,,,,,,,,,,,,,,,,,,,,,,,,,,,,,,,,,,,,,,,,,,,,,,,,,,,,,668.3432791,668.845905,668.845905,669.6012458,669.6012458,670.1038665,670.1038665,671.0536807,671.0536807,None,num_6,0.0039045,671.0536807,None,sad,1,Sad,671.073025,None,None,671.073025,None,,,,,,,,,,,,,,,,,,,,,,,,,,,,,,,,,,,,,,,,,,,,,,,,,,,,,3,1,female,27,450,450,2022_Aug_01_0936,Experiment,2021.1.4,359.905129
images\S6_M_S_02.png,images\S6_M_S_02_scrambled.png,6,sad,-20,male,2,,515,off,1,0.5,0.75,0.5,0.768,3,514,2,1,1,0,0,0,0,2,,,,,,0,83,83,83,,,,,,,,,,,,,,,,,,,,,,,,,,,,,,,,,,,,,,,,,,,,,,,,,,,,,,,,,671.1229834,671.6256167,671.6256167,672.3782706,672.3782706,672.8807972,672.8807972,673.6555723,673.6555723,None,num_6,0.2499034,673.6555723,None,sad,1,Sad,673.9277987,None,None,673.9277987,None,,,,,,,,,,,,,,,,,,,,,,,,,,,,,,,,,,,,,,,,,,,,,,,,,,,,,3,1,female,27,450,450,2022_Aug_01_0936,Experiment,2021.1.4,359.905129
images\S10_M_H_02.png,images\S10_M_H_02_scrambled.png,10,happy,20,male,5,,536,off,1,0.5,0.75,0.5,0.893,3,535,3,1,1,0,0,0,0,5,,,,,,0,84,84,84,,,,,,,,,,,,,,,,,,,,,,,,,,,,,,,,,,,,,,,,,,,,,,,,,,,,,,,,,673.9860107,674.4887517,674.4887517,675.2383876,675.2383876,675.7438165,675.7438165,676.6407674,676.6407674,None,num_4,0.2243534,676.6407674,None,happy,1,Happy,676.8795398,None,None,676.8795398,None,,,,,,,,,,,,,,,,,,,,,,,,,,,,,,,,,,,,,,,,,,,,,,,,,,,,,3,1,female,27,450,450,2022_Aug_01_0936,Experiment,2021.1.4,359.905129
images\S3_F_S_01.png,images\S3_F_S_01_scrambled.png,3,sad,-10,female,3,,316,on,2,0.5,0.75,0.5,0.941,3,315,1,1,1,2,2,32,128,163,,,,,,0,85,85,85,,,,,,,,,,,,,,,,,,,,,,,,,,,,,,,,,,,,,,,,,,,,,,,,,,,,,,,,,676.9295287,677.4321653,677.4321653,678.1846951,678.1846951,678.6845419,678.6845419,679.6287439,679.6287439,None,num_6,0.2211079,679.6287439,None,sad,1,Sad,679.8760368,None,None,679.8760368,None,,,,,,,,,,,,,,,,,,,,,,,,,,,,,,,,,,,,,,,,,,,,,,,,,,,,,3,1,female,27,450,450,2022_Aug_01_0936,Experiment,2021.1.4,359.905129
images\S8_M_S_03.png,images\S8_M_S_03_scrambled.png,8,sad,-30,male,1,,528,off,1,0.5,0.75,0.5,0.804,3,527,1,1,1,0,0,0,0,1,,,,,,0,86,86,86,,,,,,,,,,,,,,,,,,,,,,,,,,,,,,,,,,,,,,,,,,,,,,,,,,,,,,,,,679.928613,680.4312385,680.4312385,681.1837719,681.1837719,681.689229,681.689229,682.5000672,682.5000672,None,num_6,0.2535132,682.5000672,None,sad,1,Sad,682.7667387,None,None,682.7667387,None,,,,,,,,,,,,,,,,,,,,,,,,,,,,,,,,,,,,,,,,,,,,,,,,,,,,,3,1,female,27,450,450,2022_Aug_01_0936,Experiment,2021.1.4,359.905129
images\S10_M_S_03.png,images\S10_M_S_03_scrambled.png,10,sad,-30,male,1,,420,off,1,0.5,0.75,0.5,0.813,3,419,2,1,2,0,0,0,0,1,,,,,,0,87,87,87,,,,,,,,,,,,,,,,,,,,,,,,,,,,,,,,,,,,,,,,,,,,,,,,,,,,,,,,,682.8138292,683.3164591,683.3164591,684.0662303,684.0662303,684.5688821,684.5688821,685.3880908,685.3880908,None,num_6,0.2294466,685.3880908,None,sad,1,Sad,685.6381098,None,None,685.6381098,None,,,,,,,,,,,,,,,,,,,,,,,,,,,,,,,,,,,,,,,,,,,,,,,,,,,,,3,1,female,27,450,450,2022_Aug_01_0936,Experiment,2021.1.4,359.905129
images\S5_F_H_01.png,images\S5_F_H_01_scrambled.png,5,happy,10,female,4,,505,off,1,0.5,0.75,0.5,0.815,3,504,3,1,1,0,0,0,0,4,,,,,,0,88,88,88,,,,,,,,,,,,,,,,,,,,,,,,,,,,,,,,,,,,,,,,,,,,,,,,,,,,,,,,,685.7462603,686.248939,686.248939,687.0042439,687.0042439,687.5096408,687.5096408,688.3288556,688.3288556,None,num_4,0.2082646,688.3288556,None,happy,1,Happy,688.548205,None,None,688.548205,None,,,,,,,,,,,,,,,,,,,,,,,,,,,,,,,,,,,,,,,,,,,,,,,,,,,,,3,1,female,27,450,450,2022_Aug_01_0936,Experiment,2021.1.4,359.905129
images\S8_M_H_01.png,images\S8_M_H_01_scrambled.png,8,happy,10,male,4,,103,on,2,0.5,0.75,0.5,0.78,3,102,1,1,2,2,2,32,128,164,,,,,,0,89,89,89,,,,,,,,,,,,,,,,,,,,,,,,,,,,,,,,,,,,,,,,,,,,,,,,,,,,,,,,,688.6370348,689.1397037,689.1397037,689.8894586,689.8894586,690.3948813,690.3948813,691.1779609,691.1779609,None,num_6,0.2233908,691.1779609,None,sad,1,Happy,691.4057452,None,None,691.4057452,None,,,,,,,,,,,,,,,,,,,,,,,,,,,,,,,,,,,,,,,,,,,,,,,,,,,,,3,1,female,27,450,450,2022_Aug_01_0936,Experiment,2021.1.4,359.905129
images\S7_F_H_01.png,images\S7_F_H_01_scrambled.png,7,happy,10,female,4,,397,off,1,0.5,0.75,0.5,0.769,3,396,1,1,3,0,0,0,0,4,,,,,,0,90,90,90,,,,,,,,,,,,,,,,,,,,,,,,,,,,,,,,,,,,,,,,,,,,,,,,,,,,,,,,,691.5167087,692.0221167,692.0221167,692.7747126,692.7747126,693.2801102,693.2801102,694.05487,694.05487,None,num_4,0.2266889,694.05487,None,happy,1,Happy,694.3020914,None,None,694.3020914,None,,,,,,,,,,,,,,,,,,,,,,,,,,,,,,,,,,,,,,,,,,,,,,,,,,,,,3,1,female,27,450,450,2022_Aug_01_0936,Experiment,2021.1.4,359.905129
images\S4_M_H_03.png,images\S4_M_H_03_scrambled.png,4,happy,30,male,6,,81,on,2,0.5,0.75,0.5,0.813,3,80,1,1,1,2,2,32,128,166,,,,,,0,91,91,91,,,,,,,,,,,,,,,,,,,,,,,,,,,,,,,,,,,,,,,,,,,,,,,,,,,,,,,,,694.3547253,694.8601598,694.8601598,695.6099102,695.6099102,696.1125137,696.1125137,696.9290139,696.9290139,None,num_6,0.2806125,696.9290139,None,sad,1,Happy,697.2178415,None,None,697.2178415,None,,,,,,,,,,,,,,,,,,,,,,,,,,,,,,,,,,,,,,,,,,,,,,,,,,,,,3,1,female,27,450,450,2022_Aug_01_0936,Experiment,2021.1.4,359.905129
images\S10_M_S_02.png,images\S10_M_S_02_scrambled.png,10,sad,-20,male,2,,239,on,2,0.5,0.75,0.5,0.931,3,238,2,1,1,2,2,32,128,162,,,,,,0,92,92,92,,,,,,,,,,,,,,,,,,,,,,,,,,,,,,,,,,,,,,,,,,,,,,,,,,,,,,,,,697.3260392,697.8314495,697.8314495,698.5840589,698.5840589,699.0838359,699.0838359,700.0196847,700.0196847,None,num_4,0.3337926,700.0196847,None,happy,1,Sad,700.3668376,None,None,700.3668376,None,,,,,,,,,,,,,,,,,,,,,,,,,,,,,,,,,,,,,,,,,,,,,,,,,,,,,3,1,female,27,450,450,2022_Aug_01_0936,Experiment,2021.1.4,359.905129
images\S7_F_S_02.png,images\S7_F_S_02_scrambled.png,7,sad,-20,female,2,,401,off,1,0.5,0.75,0.5,0.874,3,400,1,1,2,0,0,0,0,2,,,,,,0,93,93,93,,,,,,,,,,,,,,,,,,,,,,,,,,,,,,,,,,,,,,,,,,,,,,,,,,,,,,,,,700.4278518,700.9277075,700.9277075,701.6802913,701.6802913,702.1856726,702.1856726,703.0659599,703.0659599,None,num_6,0.2953183,703.0659599,None,sad,1,Sad,703.3881306,None,None,703.3881306,None,,,,,,,,,,,,,,,,,,,,,,,,,,,,,,,,,,,,,,,,,,,,,,,,,,,,,3,1,female,27,450,450,2022_Aug_01_0936,Experiment,2021.1.4,359.905129
images\S7_F_H_03.png,images\S7_F_H_03_scrambled.png,7,happy,30,female,6,,579,on,2,0.5,0.75,0.5,0.814,3,578,1,2,1,2,2,32,128,166,,,,,,0,94,94,94,,,,,,,,,,,,,,,,,,,,,,,,,,,,,,,,,,,,,,,,,,,,,,,,,,,,,,,,,703.4408129,703.946207,703.946207,704.6988859,704.6988859,705.1986283,705.1986283,706.0150219,706.0150219,None,num_4,0.2744065,706.0150219,None,happy,1,Happy,706.3038229,None,None,706.3038229,None,,,,,,,,,,,,,,,,,,,,,,,,,,,,,,,,,,,,,,,,,,,,,,,,,,,,,3,1,female,27,450,450,2022_Aug_01_0936,Experiment,2021.1.4,359.905129
images\S1_F_S_02.png,images\S1_F_S_02_scrambled.png,1,sad,-20,female,2,,545,on,2,0.5,0.75,0.5,0.863,3,544,2,1,1,2,2,32,128,162,,,,,,0,95,95,95,,,,,,,,,,,,,,,,,,,,,,,,,,,,,,,,,,,,,,,,,,,,,,,,,,,,,,,,,706.3510364,706.8564531,706.8564531,707.609122,707.609122,708.1088218,708.1088218,708.9752633,708.9752633,None,num_6,0.2578169,708.9752633,None,sad,1,Sad,709.2613456,None,None,709.2613456,None,,,,,,,,,,,,,,,,,,,,,,,,,,,,,,,,,,,,,,,,,,,,,,,,,,,,,3,1,female,27,450,450,2022_Aug_01_0936,Experiment,2021.1.4,359.905129
images\S6_M_H_01.png,images\S6_M_H_01_scrambled.png,6,happy,10,male,4,,511,off,1,0.5,0.75,0.5,0.861,3,510,1,1,1,0,0,0,0,4,,,,,,0,96,96,96,,,,,,,,,,,,,,,,,,,,,,,,,,,,,,,,,,,,,,,,,,,,,,,,,,,,,,,,,709.3251212,709.8305477,709.8305477,710.5831045,710.5831045,711.0856859,711.0856859,711.9494564,711.9494564,None,num_6,0.6756725,711.9494564,None,sad,1,Happy,712.6352237,None,None,712.6352237,None,,,,,,,,,,,,,,,,,,,,,,,,,,,,,,,,,,,,,,,,,,,,,,,,,,,,,3,1,female,27,450,450,2022_Aug_01_0936,Experiment,2021.1.4,359.905129
images\S5_F_H_02.png,images\S5_F_H_02_scrambled.png,5,happy,20,female,5,,326,on,2,0.5,0.75,0.5,0.894,3,325,1,1,1,2,2,32,128,165,,,,,,0,97,97,97,,,,,,,,,,,,,,,,,,,,,,,,,,,,,,,,,,,,,,,,,,,,,,,,,,,,,,,,,712.685215,713.1906539,713.1906539,713.9403838,713.9403838,714.4458217,714.4458217,715.3455688,715.3455688,None,num_4,0.2400415,715.3455688,None,happy,1,Happy,715.6010765,None,None,715.6010765,None,,,,,,,,,,,,,,,,,,,,,,,,,,,,,,,,,,,,,,,,,,,,,,,,,,,,,3,1,female,27,450,450,2022_Aug_01_0936,Experiment,2021.1.4,359.905129
images\S8_M_S_01.png,images\S8_M_S_01_scrambled.png,8,sad,-10,male,3,,526,off,1,0.5,0.75,0.5,0.844,3,525,1,1,1,0,0,0,0,3,,,,,,0,98,98,98,,,,,,,,,,,,,,,,,,,,,,,,,,,,,,,,,,,,,,,,,,,,,,,,,,,,,,,,,715.6538274,716.1563663,716.1563663,716.9089503,716.9089503,717.4115191,717.4115191,718.258508,718.258508,None,num_6,0.2305324,718.258508,None,sad,1,Sad,718.5000913,None,None,718.5000913,None,,,,,,,,,,,,,,,,,,,,,,,,,,,,,,,,,,,,,,,,,,,,,,,,,,,,,3,1,female,27,450,450,2022_Aug_01_0936,Experiment,2021.1.4,359.905129
images\S3_F_H_02.png,images\S3_F_H_02_scrambled.png,3,happy,20,female,5,,554,on,2,0.5,0.75,0.5,0.826,3,553,1,1,1,2,2,32,128,165,,,,,,0,99,99,99,,,,,,,,,,,,,,,,,,,,,,,,,,,,,,,,,,,,,,,,,,,,,,,,,,,,,,,,,718.5500598,719.0528165,719.0528165,719.8024781,719.8024781,720.3079306,720.3079306,721.1382832,721.1382832,None,num_6,0.4790561,721.1382832,None,sad,1,Happy,721.6297744,None,None,721.6297744,None,,,,,,,,,,,,,,,,,,,,,,,,,,,,,,,,,,,,,,,,,,,,,,,,,,,,,3,1,female,27,450,450,2022_Aug_01_0936,Experiment,2021.1.4,359.905129
images\S5_F_H_03.png,images\S5_F_H_03_scrambled.png,5,happy,30,female,6,,447,on,2,0.5,0.75,0.5,0.787,3,446,2,1,1,2,2,32,128,166,,,,,,0,100,100,100,,,,,,,,,,,,,,,,,,,,,,,,,,,,,,,,,,,,,,,,,,,,,,,,,,,,,,,,,721.6879841,722.1878246,722.1878246,722.9375941,722.9375941,723.4431226,723.4431226,724.2344459,724.2344459,None,num_4,0.2707416,724.2344459,None,happy,1,Happy,724.5288934,None,None,724.5288934,None,,,,,,,,,,,,,,,,,,,,,,,,,,,,,,,,,,,,,,,,,,,,,,,,,,,,,3,1,female,27,450,450,2022_Aug_01_0936,Experiment,2021.1.4,359.905129
images\S2_M_S_03.png,images\S2_M_S_03_scrambled.png,2,sad,-30,male,1,,372,off,1,0.5,0.75,0.5,0.786,3,371,1,1,1,0,0,0,0,1,,,,,,0,101,101,101,,,,,,,,,,,,,,,,,,,,,,,,,,,,,,,,,,,,,,,,,,,,,,,,,,,,,,,,,724.5844147,725.0897438,725.0897438,725.8422986,725.8422986,726.3421482,726.3421482,727.1307618,727.1307618,None,num_6,0.2544759,727.1307618,None,sad,1,Sad,727.4001429,None,None,727.4001429,None,,,,,,,,,,,,,,,,,,,,,,,,,,,,,,,,,,,,,,,,,,,,,,,,,,,,,3,1,female,27,450,450,2022_Aug_01_0936,Experiment,2021.1.4,359.905129
images\S9_F_S_03.png,images\S9_F_S_03_scrambled.png,9,sad,-30,female,1,,54,off,1,0.5,0.75,0.5,0.949,3,53,2,1,2,0,0,0,0,1,,,,,,0,102,102,102,,,,,,,,,,,,,,,,,,,,,,,,,,,,,,,,,,,,,,,,,,,,,,,,,,,,,,,,,727.4501005,727.9528599,727.9528599,728.7052549,728.7052549,729.208022,729.208022,730.1603918,730.1603918,None,num_6,0.1927662,730.1603918,None,sad,1,Sad,730.368698,None,None,730.368698,None,,,,,,,,,,,,,,,,,,,,,,,,,,,,,,,,,,,,,,,,,,,,,,,,,,,,,3,1,female,27,450,450,2022_Aug_01_0936,Experiment,2021.1.4,359.905129
images\S3_F_H_01.png,images\S3_F_H_01_scrambled.png,3,happy,10,female,4,,373,off,1,0.5,0.75,0.5,0.759,3,372,3,1,1,0,0,0,0,4,,,,,,0,103,103,103,,,,,,,,,,,,,,,,,,,,,,,,,,,,,,,,,,,,,,,,,,,,,,,,,,,,,,,,,730.4963839,730.9990425,730.9990425,731.7543644,731.7543644,732.2569904,732.2569904,733.0179721,733.0179721,None,num_6,1.19129,733.0179721,None,sad,1,Happy,734.2147722,None,None,734.2147722,None,,,,,,,,,,,,,,,,,,,,,,,,,,,,,,,,,,,,,,,,,,,,,,,,,,,,,3,1,female,27,450,450,2022_Aug_01_0936,Experiment,2021.1.4,359.905129
images\S1_F_H_01.png,images\S1_F_H_01_scrambled.png,1,happy,10,female,4,,361,off,1,0.5,0.75,0.5,0.815,3,360,4,1,2,0,0,0,0,4,,,,,,0,104,104,104,,,,,,,,,,,,,,,,,,,,,,,,,,,,,,,,,,,,,,,,,,,,,,,,,,,,,,,,,734.2730176,734.7784824,734.7784824,735.5337783,735.5337783,736.0363526,736.0363526,736.8584023,736.8584023,None,num_4,0.3186587,736.8584023,None,happy,1,Happy,737.1915704,None,None,737.1915704,None,,,,,,,,,,,,,,,,,,,,,,,,,,,,,,,,,,,,,,,,,,,,,,,,,,,,,3,1,female,27,450,450,2022_Aug_01_0936,Experiment,2021.1.4,359.905129
images\S3_F_H_01.png,images\S3_F_H_01_scrambled.png,3,happy,10,female,4,,493,off,1,0.5,0.75,0.5,0.831,3,492,5,1,3,0,0,0,0,4,,,,,,0,105,105,105,,,,,,,,,,,,,,,,,,,,,,,,,,,,,,,,,,,,,,,,,,,,,,,,,,,,,,,,,737.2415266,737.7413854,737.7413854,738.4911664,738.4911664,738.996596,738.996596,739.8296288,739.8296288,None,num_6,0.2116867,739.8296288,None,sad,1,Happy,740.0517836,None,None,740.0517836,None,,,,,,,,,,,,,,,,,,,,,,,,,,,,,,,,,,,,,,,,,,,,,,,,,,,,,3,1,female,27,450,450,2022_Aug_01_0936,Experiment,2021.1.4,359.905129
images\S1_F_H_03.png,images\S1_F_H_03_scrambled.png,1,happy,30,female,6,,363,off,1,0.5,0.75,0.5,0.766,3,362,6,1,1,0,0,0,0,6,,,,,,0,106,106,106,,,,,,,,,,,,,,,,,,,,,,,,,,,,,,,,,,,,,,,,,,,,,,,,,,,,,,,,,740.1656055,740.6682734,740.6682734,741.4208194,741.4208194,741.9206597,741.9206597,742.6926438,742.6926438,None,num_4,0.268645,742.6926438,None,happy,1,Happy,742.9870969,None,None,742.9870969,None,,,,,,,,,,,,,,,,,,,,,,,,,,,,,,,,,,,,,,,,,,,,,,,,,,,,,3,1,female,27,450,450,2022_Aug_01_0936,Experiment,2021.1.4,359.905129
images\S4_M_H_03.png,images\S4_M_H_03_scrambled.png,4,happy,30,male,6,,321,on,2,0.5,0.75,0.5,0.95,3,320,1,1,2,2,2,32,128,166,,,,,,0,107,107,107,,,,,,,,,,,,,,,,,,,,,,,,,,,,,,,,,,,,,,,,,,,,,,,,,,,,,,,,,743.0426133,743.5423653,743.5423653,744.2921412,744.2921412,744.7948025,744.7948025,745.7501603,745.7501603,None,num_6,0.2193231,745.7501603,None,sad,1,Happy,745.9778126,None,None,745.9778126,None,,,,,,,,,,,,,,,,,,,,,,,,,,,,,,,,,,,,,,,,,,,,,,,,,,,,,3,1,female,27,450,450,2022_Aug_01_0936,Experiment,2021.1.4,359.905129
images\S6_M_H_01.png,images\S6_M_H_01_scrambled.png,6,happy,10,male,4,,151,off,1,0.5,0.75,0.5,0.775,3,150,1,1,1,0,0,0,0,4,,,,,,0,108,108,108,,,,,,,,,,,,,,,,,,,,,,,,,,,,,,,,,,,,,,,,,,,,,,,,,,,,,,,,,746.0360631,746.5415388,746.5415388,747.2968215,747.2968215,747.7996126,747.7996126,748.5769898,748.5769898,None,num_6,0.2565358,748.5769898,None,sad,1,Happy,748.8463914,None,None,748.8463914,None,,,,,,,,,,,,,,,,,,,,,,,,,,,,,,,,,,,,,,,,,,,,,,,,,,,,,3,1,female,27,450,450,2022_Aug_01_0936,Experiment,2021.1.4,359.905129
images\S2_M_H_01.png,images\S2_M_H_01_scrambled.png,2,happy,10,male,4,,67,on,2,0.5,0.75,0.5,0.762,3,66,1,1,2,2,2,32,128,164,,,,,,0,109,109,109,,,,,,,,,,,,,,,,,,,,,,,,,,,,,,,,,,,,,,,,,,,,,,,,,,,,,,,,,748.9601478,749.4656304,749.4656304,750.215345,750.215345,750.7208033,750.7208033,751.4899638,751.4899638,None,num_6,0.2470506,751.4899638,None,sad,1,Happy,751.7426242,None,None,751.7426242,None,,,,,,,,,,,,,,,,,,,,,,,,,,,,,,,,,,,,,,,,,,,,,,,,,,,,,3,1,female,27,450,450,2022_Aug_01_0936,Experiment,2021.1.4,359.905129
images\S4_M_S_01.png,images\S4_M_S_01_scrambled.png,4,sad,-10,male,3,,322,on,2,0.5,0.75,0.5,0.862,3,321,2,1,1,2,2,32,128,163,,,,,,0,110,110,110,,,,,,,,,,,,,,,,,,,,,,,,,,,,,,,,,,,,,,,,,,,,,,,,,,,,,,,,,751.7926079,752.2952508,752.2952508,753.0505815,753.0505815,753.5532797,753.5532797,754.4224816,754.4224816,None,num_6,0.2346176,754.4224816,None,sad,1,Sad,754.6778944,None,None,754.6778944,None,,,,,,,,,,,,,,,,,,,,,,,,,,,,,,,,,,,,,,,,,,,,,,,,,,,,,3,1,female,27,450,450,2022_Aug_01_0936,Experiment,2021.1.4,359.905129
images\S8_M_S_01.png,images\S8_M_S_01_scrambled.png,8,sad,-10,male,3,,346,on,2,0.5,0.75,0.5,0.773,3,345,3,1,2,2,2,32,128,163,,,,,,0,111,111,111,,,,,,,,,,,,,,,,,,,,,,,,,,,,,,,,,,,,,,,,,,,,,,,,,,,,,,,,,754.7250424,755.2248834,755.2248834,755.9746757,755.9746757,756.4745395,756.4745395,757.2492664,757.2492664,None,num_6,0.3361438,757.2492664,None,sad,1,Sad,757.6076204,None,None,757.6076204,None,,,,,,,,,,,,,,,,,,,,,,,,,,,,,,,,,,,,,,,,,,,,,,,,,,,,,3,1,female,27,450,450,2022_Aug_01_0936,Experiment,2021.1.4,359.905129
images\S3_F_S_03.png,images\S3_F_S_03_scrambled.png,3,sad,-30,female,1,,198,on,2,0.5,0.75,0.5,0.932,3,197,4,1,1,2,2,32,128,161,,,,,,0,112,112,112,,,,,,,,,,,,,,,,,,,,,,,,,,,,,,,,,,,,,,,,,,,,,,,,,,,,,,,,,757.6602546,758.1630045,758.1630045,758.9182783,758.9182783,759.4236536,759.4236536,760.3594598,760.3594598,None,num_6,0.28983,760.3594598,None,sad,1,Sad,760.6649388,None,None,760.6649388,None,,,,,,,,,,,,,,,,,,,,,,,,,,,,,,,,,,,,,,,,,,,,,,,,,,,,,3,1,female,27,450,450,2022_Aug_01_0936,Experiment,2021.1.4,359.905129
images\S7_F_S_02.png,images\S7_F_S_02_scrambled.png,7,sad,-20,female,2,,461,on,2,0.5,0.75,0.5,0.757,3,460,5,1,1,2,2,32,128,162,,,,,,0,113,113,113,,,,,,,,,,,,,,,,,,,,,,,,,,,,,,,,,,,,,,,,,,,,,,,,,,,,,,,,,760.7148653,761.2175634,761.2175634,761.972898,761.972898,762.4726555,762.4726555,763.2335935,763.2335935,None,num_6,0.2795753,763.2335935,None,sad,1,Sad,763.5390264,None,None,763.5390264,None,,,,,,,,,,,,,,,,,,,,,,,,,,,,,,,,,,,,,,,,,,,,,,,,,,,,,3,1,female,27,450,450,2022_Aug_01_0936,Experiment,2021.1.4,359.905129
images\S9_F_H_03.png,images\S9_F_H_03_scrambled.png,9,happy,30,female,6,,291,off,1,0.5,0.75,0.5,0.901,3,290,1,1,1,0,0,0,0,6,,,,,,0,114,114,114,,,,,,,,,,,,,,,,,,,,,,,,,,,,,,,,,,,,,,,,,,,,,,,,,,,,,,,,,763.594645,764.0999648,764.0999648,764.8526028,764.8526028,765.3580029,765.3580029,766.2632481,766.2632481,None,num_4,0.274178,766.2632481,None,happy,1,Happy,766.5576615,None,None,766.5576615,None,,,,,,,,,,,,,,,,,,,,,,,,,,,,,,,,,,,,,,,,,,,,,,,,,,,,,3,1,female,27,450,450,2022_Aug_01_0936,Experiment,2021.1.4,359.905129
images\S10_M_S_01.png,images\S10_M_S_01_scrambled.png,10,sad,-10,male,3,,478,on,2,0.5,0.75,0.5,0.925,3,477,1,1,1,2,2,32,128,163,,,,,,0,115,115,115,,,,,,,,,,,,,,,,,,,,,,,,,,,,,,,,,,,,,,,,,,,,,,,,,,,,,,,,,766.6074988,767.1101409,767.1101409,767.8628056,767.8628056,768.3682094,768.3682094,769.2928015,769.2928015,None,num_6,0.268527,769.2928015,None,sad,1,Sad,769.589985,None,None,769.589985,None,,,,,,,,,,,,,,,,,,,,,,,,,,,,,,,,,,,,,,,,,,,,,,,,,,,,,3,1,female,27,450,450,2022_Aug_01_0936,Experiment,2021.1.4,359.905129
images\S8_M_H_01.png,images\S8_M_H_01_scrambled.png,8,happy,10,male,4,,43,off,1,0.5,0.75,0.5,0.837,3,42,1,1,1,0,0,0,0,4,,,,,,0,116,116,116,,,,,,,,,,,,,,,,,,,,,,,,,,,,,,,,,,,,,,,,,,,,,,,,,,,,,,,,,769.645453,770.1508825,770.1508825,770.9062005,770.9062005,771.408796,771.408796,772.2502448,772.2502448,None,num_6,0.215042,772.2502448,None,sad,1,Happy,772.4779458,None,None,772.4779458,None,,,,,,,,,,,,,,,,,,,,,,,,,,,,,,,,,,,,,,,,,,,,,,,,,,,,,3,1,female,27,450,450,2022_Aug_01_0936,Experiment,2021.1.4,359.905129
images\blank.jpg,images\blank.jpg,none,none,none,none,0,,601,on,2,0.5,0.75,0.5,0.885,0,600,1,1,1,3,3,48,192,240,,,,,,0,117,117,117,,,,,,,,,,,,,,,,,,,,,,,,,,,,,,,,,,,,,,,,,,,,,,,,,,,,,,,,,772.5725525,773.074949,773.074949,773.8275566,773.8275566,774.327383,774.327383,775.2131873,775.2131873,775.2131873,None,,775.2131873,None,miss,1,,778.2179004,None,None,778.2179004,None,,,,,,,,,,,,,,,,,,,,,,,,,,,,,,,,,,,,,,,,,,,,,,,,,,,,,3,1,female,27,450,450,2022_Aug_01_0936,Experiment,2021.1.4,359.905129
images\S4_M_S_03.png,images\S4_M_S_03_scrambled.png,4,sad,-30,male,1,,24,off,1,0.5,0.75,0.5,0.872,3,23,1,1,1,0,0,0,0,1,,,,,,0,118,118,118,,,,,,,,,,,,,,,,,,,,,,,,,,,,,,,,,,,,,,,,,,,,,,,,,,,,,,,,,778.3373661,778.8398621,778.8398621,779.5895924,779.5895924,780.0950699,780.0950699,780.9697544,780.9697544,None,num_6,0.2158125,780.9697544,778.3373661,sad,1,Sad,781.2142734,None,None,781.2142734,None,,,,,,,,,,,,,,,,,,,,,,,,,,,,,,,,,,,,,,,,,,,,,,,,,,,,,3,1,female,27,450,450,2022_Aug_01_0936,Experiment,2021.1.4,359.905129
images\S4_M_H_01.png,images\S4_M_H_01_scrambled.png,4,happy,10,male,4,,79,on,2,0.5,0.75,0.5,0.943,3,78,1,2,1,2,2,32,128,164,,,,,,0,119,119,119,,,,,,,,,,,,,,,,,,,,,,,,,,,,,,,,,,,,,,,,,,,,,,,,,,,,,,,,,781.2668796,781.7695272,781.7695272,782.5248763,782.5248763,783.0246366,783.0246366,783.9744369,783.9744369,None,num_6,0.2029186,783.9744369,None,sad,1,Happy,784.1910573,None,None,784.1910573,None,,,,,,,,,,,,,,,,,,,,,,,,,,,,,,,,,,,,,,,,,,,,,,,,,,,,,3,1,female,27,450,450,2022_Aug_01_0936,Experiment,2021.1.4,359.905129
images\S4_M_S_01.png,images\S4_M_S_01_scrambled.png,4,sad,-10,male,3,,82,on,2,0.5,0.75,0.5,0.856,3,81,2,3,1,2,2,32,128,163,,,,,,0,120,120,120,,,,,,,,,,,,,,,,,,,,,,,,,,,,,,,,,,,,,,,,,,,,,,,,,,,,,,,,,784.252071,784.7547468,784.7547468,785.5100537,785.5100537,786.0154538,786.0154538,786.8736226,786.8736226,None,num_6,0.3433733,786.8736226,None,sad,1,Sad,787.2317042,None,None,787.2317042,None,,,,,,,,,,,,,,,,,,,,,,,,,,,,,,,,,,,,,,,,,,,,,,,,,,,,,3,1,female,27,450,450,2022_Aug_01_0936,Experiment,2021.1.4,359.905129
images\S9_F_S_01.png,images\S9_F_S_01_scrambled.png,9,sad,-10,female,3,,172,off,1,0.5,0.75,0.5,0.777,3,171,1,1,2,0,0,0,0,3,,,,,,0,121,121,121,,,,,,,,,,,,,,,,,,,,,,,,,,,,,,,,,,,,,,,,,,,,,,,,,,,,,,,,,787.2789208,787.7815698,787.7815698,788.5368996,788.5368996,789.0396166,789.0396166,789.8199218,789.8199218,None,num_4,0.2371922,789.8199218,None,happy,1,Sad,790.0670201,None,None,790.0670201,None,,,,,,,,,,,,,,,,,,,,,,,,,,,,,,,,,,,,,,,,,,,,,,,,,,,,,3,1,female,27,450,450,2022_Aug_01_0936,Experiment,2021.1.4,359.905129
images\S7_F_S_03.png,images\S7_F_S_03_scrambled.png,7,sad,-30,female,1,,522,off,1,0.5,0.75,0.5,0.931,3,521,2,1,1,0,0,0,0,1,,,,,,0,122,122,122,,,,,,,,,,,,,,,,,,,,,,,,,,,,,,,,,,,,,,,,,,,,,,,,,,,,,,,,,790.1780167,790.6806534,790.6806534,791.4304264,791.4304264,791.9302806,791.9302806,792.8633163,792.8633163,None,num_6,0.1220066,792.8633163,None,sad,1,Sad,793.0050334,None,None,793.0050334,None,,,,,,,,,,,,,,,,,,,,,,,,,,,,,,,,,,,,,,,,,,,,,,,,,,,,,3,1,female,27,450,450,2022_Aug_01_0936,Experiment,2021.1.4,359.905129
images\S6_M_H_02.png,images\S6_M_H_02_scrambled.png,6,happy,20,male,5,,92,on,2,0.5,0.75,0.5,0.808,3,91,1,1,1,2,2,32,128,165,,,,,,0,123,123,123,,,,,,,,,,,,,,,,,,,,,,,,,,,,,,,,,,,,,,,,,,,,,,,,,,,,,,,,,793.0604102,793.565933,793.565933,794.3184726,794.3184726,794.8210803,794.8210803,795.6319389,795.6319389,None,num_4,0.2733463,795.6319389,None,happy,1,Happy,795.9291416,None,None,795.9291416,None,,,,,,,,,,,,,,,,,,,,,,,,,,,,,,,,,,,,,,,,,,,,,,,,,,,,,3,1,female,27,450,450,2022_Aug_01_0936,Experiment,2021.1.4,359.905129
images\S1_F_H_01.png,images\S1_F_H_01_scrambled.png,1,happy,10,female,4,,541,on,2,0.5,0.75,0.5,0.919,3,540,2,1,1,2,2,32,128,164,,,,,,0,124,124,124,,,,,,,,,,,,,,,,,,,,,,,,,,,,,,,,,,,,,,,,,,,,,,,,,,,,,,,,,795.9817953,796.4872122,796.4872122,797.2425368,797.2425368,797.7423837,797.7423837,798.6615243,798.6615243,None,num_4,0.3954205,798.6615243,None,happy,1,Happy,799.08923,None,None,799.08923,None,,,,,,,,,,,,,,,,,,,,,,,,,,,,,,,,,,,,,,,,,,,,,,,,,,,,,3,1,female,27,450,450,2022_Aug_01_0936,Experiment,2021.1.4,359.905129
images\S2_M_H_02.png,images\S2_M_H_02_scrambled.png,2,happy,20,male,5,,428,on,2,0.5,0.75,0.5,0.837,3,427,3,1,1,2,2,32,128,165,,,,,,0,125,125,125,,,,,,,,,,,,,,,,,,,,,,,,,,,,,,,,,,,,,,,,,,,,,,,,,,,,,,,,,799.1474867,799.6528997,799.6528997,800.4055098,800.4055098,800.9108883,800.9108883,801.7551163,801.7551163,None,num_6,0.2865327,801.7551163,None,sad,1,Happy,802.0494786,None,None,802.0494786,None,,,,,,,,,,,,,,,,,,,,,,,,,,,,,,,,,,,,,,,,,,,,,,,,,,,,,3,1,female,27,450,450,2022_Aug_01_0936,Experiment,2021.1.4,359.905129
images\S10_M_H_02.png,images\S10_M_H_02_scrambled.png,10,happy,20,male,5,,416,off,1,0.5,0.75,0.5,0.827,3,415,1,1,2,0,0,0,0,5,,,,,,0,126,126,126,,,,,,,,,,,,,,,,,,,,,,,,,,,,,,,,,,,,,,,,,,,,,,,,,,,,,,,,,802.1076892,802.6104139,802.6104139,803.3601005,803.3601005,803.8655378,803.8655378,804.695808,804.695808,None,num_4,0.2735382,804.695808,None,happy,1,Happy,804.990265,None,None,804.990265,None,,,,,,,,,,,,,,,,,,,,,,,,,,,,,,,,,,,,,,,,,,,,,,,,,,,,,3,1,female,27,450,450,2022_Aug_01_0936,Experiment,2021.1.4,359.905129
images\S1_F_H_02.png,images\S1_F_H_02_scrambled.png,1,happy,20,female,5,,422,on,2,0.5,0.75,0.5,0.879,3,421,1,1,3,2,2,32,128,165,,,,,,0,127,127,127,,,,,,,,,,,,,,,,,,,,,,,,,,,,,,,,,,,,,,,,,,,,,,,,,,,,,,,,,805.0428965,805.5455395,805.5455395,806.2953045,806.2953045,806.7951526,806.7951526,807.6810069,807.6810069,None,num_4,0.2723895,807.6810069,None,happy,1,Happy,807.9754493,None,None,807.9754493,None,,,,,,,,,,,,,,,,,,,,,,,,,,,,,,,,,,,,,,,,,,,,,,,,,,,,,3,1,female,27,450,450,2022_Aug_01_0936,Experiment,2021.1.4,359.905129
images\blank.jpg,images\blank.jpg,none,none,none,none,0,,619,on,2,0.5,0.75,0.5,0.922,0,618,2,1,1,3,3,48,192,240,,,,,,0,128,128,128,,,,,,,,,,,,,,,,,,,,,,,,,,,,,,,,,,,,,,,,,,,,,,,,,,,,,,,,,808.0616383,808.5668395,808.5668395,809.322155,809.322155,809.8247588,809.8247588,810.7494904,810.7494904,810.7494904,None,,810.7494904,None,miss,1,,813.7514161,None,None,813.7514161,None,,,,,,,,,,,,,,,,,,,,,,,,,,,,,,,,,,,,,,,,,,,,,,,,,,,,,3,1,female,27,450,450,2022_Aug_01_0936,Experiment,2021.1.4,359.905129
images\S8_M_H_02.png,images\S8_M_H_02_scrambled.png,8,happy,20,male,5,,404,off,1,0.5,0.75,0.5,0.795,3,403,1,1,1,0,0,0,0,5,,,,,,0,129,129,129,,,,,,,,,,,,,,,,,,,,,,,,,,,,,,,,,,,,,,,,,,,,,,,,,,,,,,,,,813.9183921,814.4205784,814.4205784,815.1703377,815.1703377,815.6729843,815.6729843,816.4699509,816.4699509,None,num_4,0.3232827,816.4699509,813.9183921,happy,1,Happy,816.8087452,None,None,816.8087452,None,,,,,,,,,,,,,,,,,,,,,,,,,,,,,,,,,,,,,,,,,,,,,,,,,,,,,3,1,female,27,450,450,2022_Aug_01_0936,Experiment,2021.1.4,359.905129
images\S5_F_S_03.png,images\S5_F_S_03_scrambled.png,5,sad,-30,female,1,,390,off,1,0.5,0.75,0.5,0.927,3,389,2,1,1,0,0,0,0,1,,,,,,0,130,130,130,,,,,,,,,,,,,,,,,,,,,,,,,,,,,,,,,,,,,,,,,,,,,,,,,,,,,,,,,816.8587196,817.3641241,817.3641241,818.1166785,818.1166785,818.6164962,818.6164962,819.5469021,819.5469021,None,num_6,0.5025332,819.5469021,None,sad,1,Sad,820.0744009,None,space,820.0744009,None,21.1258084,,,,,,,,,,,,,,,,,,,,,,,,,,,,,,,,,,,,,,,,,,,,,,,,,,,,3,1,female,27,450,450,2022_Aug_01_0936,Experiment,2021.1.4,359.905129
images\S2_M_H_01.png,images\S2_M_H_01_scrambled.png,2,happy,10,male,4,,127,off,1,0.5,0.75,0.5,0.751,3,126,3,1,1,0,0,0,0,4,,,,,,0,131,131,131,,,,,,,,,,,,,,,,,,,,,,,,,,,,,,,,,,,,,,,,,,,,,,,,,,,,,,,,,864.4329008,864.9384019,864.9384019,865.6937123,865.6937123,866.1935574,866.1935574,866.9516553,866.9516553,None,num_6,0.7054152,866.9516553,None,sad,1,Happy,867.6708767,None,None,867.6708767,None,,,,,,,,,,,,,,,,,,,,,,,,,,,,,,,,,,,,,,,,,,,,,,,,,,,,,3,1,female,27,450,450,2022_Aug_01_0936,Experiment,2021.1.4,359.905129
images\S1_F_S_02.png,images\S1_F_S_02_scrambled.png,1,sad,-20,female,2,,365,off,1,0.5,0.75,0.5,0.81,3,364,4,1,1,0,0,0,0,2,,,,,,0,132,132,132,,,,,,,,,,,,,,,,,,,,,,,,,,,,,,,,,,,,,,,,,,,,,,,,,,,,,,,,,867.7208432,868.2234559,868.2234559,868.9760264,868.9760264,869.4786573,869.4786573,870.2950908,870.2950908,None,num_6,0.2905917,870.2950908,None,sad,1,Sad,870.6005228,None,None,870.6005228,None,,,,,,,,,,,,,,,,,,,,,,,,,,,,,,,,,,,,,,,,,,,,,,,,,,,,,3,1,female,27,450,450,2022_Aug_01_0936,Experiment,2021.1.4,359.905129
images\S7_F_H_03.png,images\S7_F_H_03_scrambled.png,7,happy,30,female,6,,519,off,1,0.5,0.75,0.5,0.856,3,518,5,1,1,0,0,0,0,6,,,,,,0,133,133,133,,,,,,,,,,,,,,,,,,,,,,,,,,,,,,,,,,,,,,,,,,,,,,,,,,,,,,,,,870.6505851,871.1532334,871.1532334,871.9056579,871.9056579,872.40828,872.40828,873.2692535,873.2692535,None,num_4,0.2756319,873.2692535,None,happy,1,Happy,873.57184,None,None,873.57184,None,,,,,,,,,,,,,,,,,,,,,,,,,,,,,,,,,,,,,,,,,,,,,,,,,,,,,3,1,female,27,450,450,2022_Aug_01_0936,Experiment,2021.1.4,359.905129
images\blank.jpg,images\blank.jpg,none,none,none,none,0,,603,on,2,0.5,0.75,0.5,0.94,0,602,1,1,1,3,3,48,192,240,,,,,,0,134,134,134,,,,,,,,,,,,,,,,,,,,,,,,,,,,,,,,,,,,,,,,,,,,,,,,,,,,,,,,,873.6609482,874.1660572,874.1660572,874.9214196,874.9214196,875.4241656,875.4241656,876.3653977,876.3653977,876.3653977,None,,876.3653977,None,miss,1,,879.3673263,None,None,879.3673263,None,,,,,,,,,,,,,,,,,,,,,,,,,,,,,,,,,,,,,,,,,,,,,,,,,,,,,3,1,female,27,450,450,2022_Aug_01_0936,Experiment,2021.1.4,359.905129
images\blank.jpg,images\blank.jpg,none,none,none,none,0,,636,on,2,0.5,0.75,0.5,0.804,0,635,2,2,2,3,3,48,192,240,,,,,,0,135,135,135,,,,,,,,,,,,,,,,,,,,,,,,,,,,,,,,,,,,,,,,,,,,,,,,,,,,,,,,,879.3950355,879.8977801,879.8977801,880.6474158,880.6474158,881.152943,881.152943,881.9637375,881.9637375,881.9637375,None,,881.9637375,879.3950355,miss,1,,884.9655899,None,None,884.9655899,None,,,,,,,,,,,,,,,,,,,,,,,,,,,,,,,,,,,,,,,,,,,,,,,,,,,,,3,1,female,27,450,450,2022_Aug_01_0936,Experiment,2021.1.4,359.905129
images\S9_F_S_03.png,images\S9_F_S_03_scrambled.png,9,sad,-30,female,1,,354,on,2,0.5,0.75,0.5,0.853,3,353,3,1,1,2,2,32,128,161,,,,,,0,136,136,136,,,,,,,,,,,,,,,,,,,,,,,,,,,,,,,,,,,,,,,,,,,,,,,,,,,,,,,,,885.0823389,885.587561,885.587561,886.3402144,886.3402144,886.8455716,886.8455716,887.7008558,887.7008558,None,num_6,0.2284314,887.7008558,885.0823389,sad,1,Sad,887.9536306,None,None,887.9536306,None,,,,,,,,,,,,,,,,,,,,,,,,,,,,,,,,,,,,,,,,,,,,,,,,,,,,,3,1,female,27,450,450,2022_Aug_01_0936,Experiment,2021.1.4,359.905129
images\S10_M_H_02.png,images\S10_M_H_02_scrambled.png,10,happy,20,male,5,,116,on,2,0.5,0.75,0.5,0.778,3,115,4,1,1,2,2,32,128,165,,,,,,0,137,137,137,,,,,,,,,,,,,,,,,,,,,,,,,,,,,,,,,,,,,,,,,,,,,,,,,,,,,,,,,888.0090876,888.5116642,888.5116642,889.2614318,889.2614318,889.7612805,889.7612805,890.5416216,890.5416216,None,num_4,0.2274518,890.5416216,None,happy,1,Happy,890.7832135,None,None,890.7832135,None,,,,,,,,,,,,,,,,,,,,,,,,,,,,,,,,,,,,,,,,,,,,,,,,,,,,,3,1,female,27,450,450,2022_Aug_01_0936,Experiment,2021.1.4,359.905129
images\S7_F_S_01.png,images\S7_F_S_01_scrambled.png,7,sad,-10,female,3,,220,on,2,0.5,0.75,0.5,0.927,3,219,5,1,1,2,2,32,128,163,,,,,,0,138,138,138,,,,,,,,,,,,,,,,,,,,,,,,,,,,,,,,,,,,,,,,,,,,,,,,,,,,,,,,,890.833174,891.3357987,891.3357987,892.0911574,892.0911574,892.5937438,892.5937438,893.526814,893.526814,None,num_6,0.2262136,893.526814,None,sad,1,Sad,893.7628734,None,None,893.7628734,None,,,,,,,,,,,,,,,,,,,,,,,,,,,,,,,,,,,,,,,,,,,,,,,,,,,,,3,1,female,27,450,450,2022_Aug_01_0936,Experiment,2021.1.4,359.905129
images\S10_M_S_02.png,images\S10_M_S_02_scrambled.png,10,sad,-20,male,2,,419,off,1,0.5,0.75,0.5,0.885,3,418,1,1,1,0,0,0,0,2,,,,,,0,139,139,139,,,,,,,,,,,,,,,,,,,,,,,,,,,,,,,,,,,,,,,,,,,,,,,,,,,,,,,,,893.8128123,894.3126653,894.3126653,895.0624564,895.0624564,895.5650866,895.5650866,896.4536783,896.4536783,None,num_6,0.2431819,896.4536783,None,sad,1,Sad,896.7258475,None,None,896.7258475,None,,,,,,,,,,,,,,,,,,,,,,,,,,,,,,,,,,,,,,,,,,,,,,,,,,,,,3,1,female,27,450,450,2022_Aug_01_0936,Experiment,2021.1.4,359.905129
images\S10_M_S_02.png,images\S10_M_S_02_scrambled.png,10,sad,-20,male,2,,299,off,1,0.5,0.75,0.5,0.942,3,298,2,2,2,0,0,0,0,2,,,,,,0,140,140,140,,,,,,,,,,,,,,,,,,,,,,,,,,,,,,,,,,,,,,,,,,,,,,,,,,,,,,,,,896.7785658,897.2784093,897.2784093,898.0282485,898.0282485,898.5308322,898.5308322,899.4749605,899.4749605,None,num_6,0.5739639,899.4749605,None,sad,1,Sad,900.0608843,None,None,900.0608843,None,,,,,,,,,,,,,,,,,,,,,,,,,,,,,,,,,,,,,,,,,,,,,,,,,,,,,3,1,female,27,450,450,2022_Aug_01_0936,Experiment,2021.1.4,359.905129
images\S9_F_S_01.png,images\S9_F_S_01_scrambled.png,9,sad,-10,female,3,,112,on,2,0.5,0.75,0.5,0.906,3,111,1,1,1,2,2,32,128,163,,,,,,0,141,141,141,,,,,,,,,,,,,,,,,,,,,,,,,,,,,,,,,,,,,,,,,,,,,,,,,,,,,,,,,900.1108736,900.6162966,900.6162966,901.3716091,901.3716091,901.8743005,901.8743005,902.7794953,902.7794953,None,num_4,0.6220447,902.7794953,None,happy,1,Sad,903.4099818,None,None,903.4099818,None,,,,,,,,,,,,,,,,,,,,,,,,,,,,,,,,,,,,,,,,,,,,,,,,,,,,,3,1,female,27,450,450,2022_Aug_01_0936,Experiment,2021.1.4,359.905129
images\S1_F_S_01.png,images\S1_F_S_01_scrambled.png,1,sad,-10,female,3,,4,off,1,0.5,0.75,0.5,0.853,3,3,1,1,2,0,0,0,0,3,,,,,,0,142,142,142,,,,,,,,,,,,,,,,,,,,,,,,,,,,,,,,,,,,,,,,,,,,,,,,,,,,,,,,,903.5209383,904.0235604,904.0235604,904.7733399,904.7733399,905.2732173,905.2732173,906.1284634,906.1284634,None,num_4,0.2406502,906.1284634,None,happy,1,Sad,906.3839911,None,None,906.3839911,None,,,,,,,,,,,,,,,,,,,,,,,,,,,,,,,,,,,,,,,,,,,,,,,,,,,,,3,1,female,27,450,450,2022_Aug_01_0936,Experiment,2021.1.4,359.905129
images\S2_M_H_01.png,images\S2_M_H_01_scrambled.png,2,happy,10,male,4,,547,on,2,0.5,0.75,0.5,0.774,3,546,1,1,1,2,2,32,128,164,,,,,,0,143,143,143,,,,,,,,,,,,,,,,,,,,,,,,,,,,,,,,,,,,,,,,,,,,,,,,,,,,,,,,,906.4367089,906.9394658,906.9394658,907.6947076,907.6947076,908.2000886,908.2000886,908.9804078,908.9804078,None,num_6,0.2928026,908.9804078,None,sad,1,Happy,909.2859276,None,None,909.2859276,None,,,,,,,,,,,,,,,,,,,,,,,,,,,,,,,,,,,,,,,,,,,,,,,,,,,,,3,1,female,27,450,450,2022_Aug_01_0936,Experiment,2021.1.4,359.905129
images\S2_M_S_01.png,images\S2_M_S_01_scrambled.png,2,sad,-10,male,3,,310,on,2,0.5,0.75,0.5,0.852,3,309,2,2,1,2,2,32,128,163,,,,,,0,144,144,144,,,,,,,,,,,,,,,,,,,,,,,,,,,,,,,,,,,,,,,,,,,,,,,,,,,,,,,,,909.3441441,909.8496098,909.8496098,910.6021035,910.6021035,911.1047522,911.1047522,911.9600456,911.9600456,None,num_6,0.2172816,911.9600456,None,sad,1,Sad,912.1906403,None,None,912.1906403,None,,,,,,,,,,,,,,,,,,,,,,,,,,,,,,,,,,,,,,,,,,,,,,,,,,,,,3,1,female,27,450,450,2022_Aug_01_0936,Experiment,2021.1.4,359.905129
images\S5_F_S_01.png,images\S5_F_S_01_scrambled.png,5,sad,-10,female,3,,208,on,2,0.5,0.75,0.5,0.95,3,207,3,1,2,2,2,32,128,163,,,,,,0,145,145,145,,,,,,,,,,,,,,,,,,,,,,,,,,,,,,,,,,,,,,,,,,,,,,,,,,,,,,,,,912.2404791,912.7458949,912.7458949,913.4985536,913.4985536,914.0039519,914.0039519,914.9591772,914.9591772,None,num_4,0.2577779,914.9591772,None,happy,1,Sad,915.2256822,None,None,915.2256822,None,,,,,,,,,,,,,,,,,,,,,,,,,,,,,,,,,,,,,,,,,,,,,,,,,,,,,3,1,female,27,450,450,2022_Aug_01_0936,Experiment,2021.1.4,359.905129
images\S6_M_H_03.png,images\S6_M_H_03_scrambled.png,6,happy,30,male,6,,93,on,2,0.5,0.75,0.5,0.943,3,92,4,1,1,2,2,32,128,166,,,,,,0,146,146,146,,,,,,,,,,,,,,,,,,,,,,,,,,,,,,,,,,,,,,,,,,,,,,,,,,,,,,,,,915.2728782,915.7754971,915.7754971,916.5252734,916.5252734,917.0279208,917.0279208,917.9776276,917.9776276,None,num_4,0.2475272,917.9776276,None,happy,1,Happy,918.2498449,None,None,918.2498449,None,,,,,,,,,,,,,,,,,,,,,,,,,,,,,,,,,,,,,,,,,,,,,,,,,,,,,3,1,female,27,450,450,2022_Aug_01_0936,Experiment,2021.1.4,359.905129
images\S4_M_S_02.png,images\S4_M_S_02_scrambled.png,4,sad,-20,male,2,,323,on,2,0.5,0.75,0.5,0.911,3,322,5,1,1,2,2,32,128,162,,,,,,0,147,147,147,,,,,,,,,,,,,,,,,,,,,,,,,,,,,,,,,,,,,,,,,,,,,,,,,,,,,,,,,918.305386,918.8107045,918.8107045,919.5660177,919.5660177,920.0687499,920.0687499,920.9850471,920.9850471,None,num_6,0.2242972,920.9850471,None,sad,1,Sad,921.2295009,None,None,921.2295009,None,,,,,,,,,,,,,,,,,,,,,,,,,,,,,,,,,,,,,,,,,,,,,,,,,,,,,3,1,female,27,450,450,2022_Aug_01_0936,Experiment,2021.1.4,359.905129
images\S10_M_H_03.png,images\S10_M_H_03_scrambled.png,10,happy,30,male,6,,417,off,1,0.5,0.75,0.5,0.88,3,416,1,1,1,0,0,0,0,6,,,,,,0,148,148,148,,,,,,,,,,,,,,,,,,,,,,,,,,,,,,,,,,,,,,,,,,,,,,,,,,,,,,,,,921.2793633,921.7819968,921.7819968,922.5345998,922.5345998,923.0399698,923.0399698,923.9229947,923.9229947,None,num_4,0.1260708,923.9229947,None,happy,1,Happy,924.0618691,None,None,924.0618691,None,,,,,,,,,,,,,,,,,,,,,,,,,,,,,,,,,,,,,,,,,,,,,,,,,,,,,3,1,female,27,450,450,2022_Aug_01_0936,Experiment,2021.1.4,359.905129
images\S1_F_H_01.png,images\S1_F_H_01_scrambled.png,1,happy,10,female,4,,421,on,2,0.5,0.75,0.5,0.85,3,420,1,1,1,2,2,32,128,164,,,,,,0,149,149,149,,,,,,,,,,,,,,,,,,,,,,,,,,,,,,,,,,,,,,,,,,,,,,,,,,,,,,,,,924.1090471,924.6116899,924.6116899,925.3614375,925.3614375,925.8612827,925.8612827,926.7166089,926.7166089,None,num_4,0.2369924,926.7166089,None,happy,1,Happy,926.9749786,None,None,926.9749786,None,,,,,,,,,,,,,,,,,,,,,,,,,,,,,,,,,,,,,,,,,,,,,,,,,,,,,3,1,female,27,450,450,2022_Aug_01_0936,Experiment,2021.1.4,359.905129
images\S9_F_S_03.png,images\S9_F_S_03_scrambled.png,9,sad,-30,female,1,,594,on,2,0.5,0.75,0.5,0.814,3,593,2,1,1,2,2,32,128,161,,,,,,0,150,150,150,,,,,,,,,,,,,,,,,,,,,,,,,,,,,,,,,,,,,,,,,,,,,,,,,,,,,,,,,927.0248184,927.5303199,927.5303199,928.2856055,928.2856055,928.7909991,928.7909991,929.6073751,929.6073751,None,num_6,0.1938423,929.6073751,None,sad,1,Sad,929.8240614,None,None,929.8240614,None,,,,,,,,,,,,,,,,,,,,,,,,,,,,,,,,,,,,,,,,,,,,,,,,,,,,,3,1,female,27,450,450,2022_Aug_01_0936,Experiment,2021.1.4,359.905129
images\S5_F_H_03.png,images\S5_F_H_03_scrambled.png,5,happy,30,female,6,,87,on,2,0.5,0.75,0.5,0.887,3,86,3,1,1,2,2,32,128,166,,,,,,0,151,151,151,,,,,,,,,,,,,,,,,,,,,,,,,,,,,,,,,,,,,,,,,,,,,,,,,,,,,,,,,929.8767181,930.3794685,930.3794685,931.134799,931.134799,931.6402069,931.6402069,932.5286875,932.5286875,None,num_4,0.2168138,932.5286875,None,happy,1,Happy,932.7621169,None,None,932.7621169,None,,,,,,,,,,,,,,,,,,,,,,,,,,,,,,,,,,,,,,,,,,,,,,,,,,,,,3,1,female,27,450,450,2022_Aug_01_0936,Experiment,2021.1.4,359.905129
images\S1_F_H_02.png,images\S1_F_H_02_scrambled.png,1,happy,20,female,5,,482,off,1,0.5,0.75,0.5,0.886,3,481,1,1,1,0,0,0,0,5,,,,,,0,152,152,152,,,,,,,,,,,,,,,,,,,,,,,,,,,,,,,,,,,,,,,,,,,,,,,,,,,,,,,,,932.8147003,933.3173429,933.3173429,934.0699833,934.0699833,934.5753638,934.5753638,935.4666906,935.4666906,None,num_4,0.2784183,935.4666906,None,happy,1,Happy,935.7611044,None,None,935.7611044,None,,,,,,,,,,,,,,,,,,,,,,,,,,,,,,,,,,,,,,,,,,,,,,,,,,,,,3,1,female,27,450,450,2022_Aug_01_0936,Experiment,2021.1.4,359.905129
images\S5_F_H_03.png,images\S5_F_H_03_scrambled.png,5,happy,30,female,6,,267,off,1,0.5,0.75,0.5,0.908,3,266,2,1,1,0,0,0,0,6,,,,,,0,153,153,153,,,,,,,,,,,,,,,,,,,,,,,,,,,,,,,,,,,,,,,,,,,,,,,,,,,,,,,,,935.8248902,936.3303658,936.3303658,937.0800736,937.0800736,937.5826956,937.5826956,938.4963297,938.4963297,None,num_4,0.3207673,938.4963297,None,happy,1,Happy,938.8351001,None,None,938.8351001,None,,,,,,,,,,,,,,,,,,,,,,,,,,,,,,,,,,,,,,,,,,,,,,,,,,,,,3,1,female,27,450,450,2022_Aug_01_0936,Experiment,2021.1.4,359.905129
images\S1_F_H_01.png,images\S1_F_H_01_scrambled.png,1,happy,10,female,4,,181,on,2,0.5,0.75,0.5,0.861,3,180,1,1,1,2,2,32,128,164,,,,,,0,154,154,154,,,,,,,,,,,,,,,,,,,,,,,,,,,,,,,,,,,,,,,,,,,,,,,,,,,,,,,,,938.8850651,939.3904834,939.3904834,940.1402263,940.1402263,940.6456555,940.6456555,941.5093281,941.5093281,None,num_4,0.22795,941.5093281,None,happy,1,Happy,941.7481692,None,None,941.7481692,None,,,,,,,,,,,,,,,,,,,,,,,,,,,,,,,,,,,,,,,,,,,,,,,,,,,,,3,1,female,27,450,450,2022_Aug_01_0936,Experiment,2021.1.4,359.905129
images\S8_M_S_01.png,images\S8_M_S_01_scrambled.png,8,sad,-10,male,3,,406,off,1,0.5,0.75,0.5,0.848,3,405,1,1,1,0,0,0,0,3,,,,,,0,155,155,155,,,,,,,,,,,,,,,,,,,,,,,,,,,,,,,,,,,,,,,,,,,,,,,,,,,,,,,,,941.8147141,942.3201508,942.3201508,943.0698854,943.0698854,943.5753207,943.5753207,944.4250213,944.4250213,None,num_6,0.2159016,944.4250213,None,sad,1,Sad,944.6555274,None,None,944.6555274,None,,,,,,,,,,,,,,,,,,,,,,,,,,,,,,,,,,,,,,,,,,,,,,,,,,,,,3,1,female,27,450,450,2022_Aug_01_0936,Experiment,2021.1.4,359.905129
images\S8_M_H_03.png,images\S8_M_H_03_scrambled.png,8,happy,30,male,6,,525,off,1,0.5,0.75,0.5,0.786,3,524,2,2,1,0,0,0,0,6,,,,,,0,156,156,156,,,,,,,,,,,,,,,,,,,,,,,,,,,,,,,,,,,,,,,,,,,,,,,,,,,,,,,,,944.7027123,945.2053361,945.2053361,945.9606555,945.9606555,946.4634191,946.4634191,947.2547668,947.2547668,None,num_4,0.2262516,947.2547668,None,happy,1,Happy,947.4935225,None,None,947.4935225,None,,,,,,,,,,,,,,,,,,,,,,,,,,,,,,,,,,,,,,,,,,,,,,,,,,,,,3,1,female,27,450,450,2022_Aug_01_0936,Experiment,2021.1.4,359.905129
images\S1_F_S_01.png,images\S1_F_S_01_scrambled.png,1,sad,-10,female,3,,64,on,2,0.5,0.75,0.5,0.879,3,63,1,1,1,2,2,32,128,163,,,,,,0,157,157,157,,,,,,,,,,,,,,,,,,,,,,,,,,,,,,,,,,,,,,,,,,,,,,,,,,,,,,,,,947.5407468,948.046147,948.046147,948.8014638,948.8014638,949.304157,949.304157,950.1871444,950.1871444,None,num_4,0.2217797,950.1871444,None,happy,1,Sad,950.4176287,None,None,950.4176287,None,,,,,,,,,,,,,,,,,,,,,,,,,,,,,,,,,,,,,,,,,,,,,,,,,,,,,3,1,female,27,450,450,2022_Aug_01_0936,Experiment,2021.1.4,359.905129
images\S8_M_H_02.png,images\S8_M_H_02_scrambled.png,8,happy,20,male,5,,464,on,2,0.5,0.75,0.5,0.805,3,463,2,1,1,2,2,32,128,165,,,,,,0,158,158,158,,,,,,,,,,,,,,,,,,,,,,,,,,,,,,,,,,,,,,,,,,,,,,,,,,,,,,,,,950.4648383,950.9674497,950.9674497,951.7172229,951.7172229,952.2198965,952.2198965,953.0279302,953.0279302,None,num_4,0.2616116,953.0279302,None,happy,1,Happy,953.3085863,None,None,953.3085863,None,,,,,,,,,,,,,,,,,,,,,,,,,,,,,,,,,,,,,,,,,,,,,,,,,,,,,3,1,female,27,450,450,2022_Aug_01_0936,Experiment,2021.1.4,359.905129
images\blank.jpg,images\blank.jpg,none,none,none,none,0,,639,on,2,0.5,0.75,0.5,0.867,0,638,3,1,1,3,3,48,192,240,,,,,,0,159,159,159,,,,,,,,,,,,,,,,,,,,,,,,,,,,,,,,,,,,,,,,,,,,,,,,,,,,,,,,,953.3947439,953.8943504,953.8943504,954.6441193,954.6441193,955.1495583,955.1495583,956.0187972,956.0187972,956.0187972,None,,956.0187972,None,miss,1,,959.0233325,None,None,959.0233325,None,,,,,,,,,,,,,,,,,,,,,,,,,,,,,,,,,,,,,,,,,,,,,,,,,,,,,3,1,female,27,450,450,2022_Aug_01_0936,Experiment,2021.1.4,359.905129
images\S8_M_H_02.png,images\S8_M_H_02_scrambled.png,8,happy,20,male,5,,44,off,1,0.5,0.75,0.5,0.949,3,43,1,1,1,0,0,0,0,5,,,,,,0,160,160,160,,,,,,,,,,,,,,,,,,,,,,,,,,,,,,,,,,,,,,,,,,,,,,,,,,,,,,,,,959.137442,959.6426177,959.6426177,960.3979395,960.3979395,960.9033253,960.9033253,961.8557657,961.8557657,None,num_4,0.2418706,961.8557657,959.137442,happy,1,Happy,962.122534,None,None,962.122534,None,,,,,,,,,,,,,,,,,,,,,,,,,,,,,,,,,,,,,,,,,,,,,,,,,,,,,3,1,female,27,450,450,2022_Aug_01_0936,Experiment,2021.1.4,359.905129
images\S2_M_S_01.png,images\S2_M_S_01_scrambled.png,2,sad,-10,male,3,,190,on,2,0.5,0.75,0.5,0.799,3,189,1,1,1,2,2,32,128,163,,,,,,0,161,161,161,,,,,,,,,,,,,,,,,,,,,,,,,,,,,,,,,,,,,,,,,,,,,,,,,,,,,,,,,962.1751184,962.6777876,962.6777876,963.4275164,963.4275164,963.9329479,963.9329479,964.7382595,964.7382595,None,num_6,0.1985805,964.7382595,None,sad,1,Sad,964.9492734,None,None,964.9492734,None,,,,,,,,,,,,,,,,,,,,,,,,,,,,,,,,,,,,,,,,,,,,,,,,,,,,,3,1,female,27,450,450,2022_Aug_01_0936,Experiment,2021.1.4,359.905129
images\S5_F_H_01.png,images\S5_F_H_01_scrambled.png,5,happy,10,female,4,,25,off,1,0.5,0.75,0.5,0.755,3,24,1,1,1,0,0,0,0,4,,,,,,0,162,162,162,,,,,,,,,,,,,,,,,,,,,,,,,,,,,,,,,,,,,,,,,,,,,,,,,,,,,,,,,964.9992481,965.5046617,965.5046617,966.2572147,966.2572147,966.7626567,966.7626567,967.5235004,967.5235004,None,num_4,0.2779307,967.5235004,None,happy,1,Happy,967.8207288,None,None,967.8207288,None,,,,,,,,,,,,,,,,,,,,,,,,,,,,,,,,,,,,,,,,,,,,,,,,,,,,,3,1,female,27,450,450,2022_Aug_01_0936,Experiment,2021.1.4,359.905129
images\S5_F_S_02.png,images\S5_F_S_02_scrambled.png,5,sad,-20,female,2,,389,off,1,0.5,0.75,0.5,0.843,3,388,2,2,1,0,0,0,0,2,,,,,,0,163,163,163,,,,,,,,,,,,,,,,,,,,,,,,,,,,,,,,,,,,,,,,,,,,,,,,,,,,,,,,,967.8733576,968.3732092,968.3732092,969.1285565,969.1285565,969.6284073,969.6284073,970.4725774,970.4725774,None,num_6,0.1688032,970.4725774,None,sad,1,Sad,970.6670946,None,None,970.6670946,None,,,,,,,,,,,,,,,,,,,,,,,,,,,,,,,,,,,,,,,,,,,,,,,,,,,,,3,1,female,27,450,450,2022_Aug_01_0936,Experiment,2021.1.4,359.905129
images\S5_F_S_01.png,images\S5_F_S_01_scrambled.png,5,sad,-10,female,3,,28,off,1,0.5,0.75,0.5,0.861,3,27,3,3,1,0,0,0,0,3,,,,,,0,164,164,164,,,,,,,,,,,,,,,,,,,,,,,,,,,,,,,,,,,,,,,,,,,,,,,,,,,,,,,,,970.7225452,971.2279275,971.2279275,971.9832545,971.9832545,972.485952,972.485952,973.349457,973.349457,None,num_4,0.8918171,973.349457,None,happy,1,Sad,974.2520289,None,None,974.2520289,None,,,,,,,,,,,,,,,,,,,,,,,,,,,,,,,,,,,,,,,,,,,,,,,,,,,,,3,1,female,27,450,450,2022_Aug_01_0936,Experiment,2021.1.4,359.905129
images\S1_F_H_03.png,images\S1_F_H_03_scrambled.png,1,happy,30,female,6,,483,off,1,0.5,0.75,0.5,0.925,3,482,4,1,1,0,0,0,0,6,,,,,,0,165,165,165,,,,,,,,,,,,,,,,,,,,,,,,,,,,,,,,,,,,,,,,,,,,,,,,,,,,,,,,,974.3074931,974.8101246,974.8101246,975.5598986,975.5598986,976.0625695,976.0625695,976.9900217,976.9900217,None,num_4,0.2113792,976.9900217,None,happy,1,Happy,977.2261818,None,None,977.2261818,None,,,,,,,,,,,,,,,,,,,,,,,,,,,,,,,,,,,,,,,,,,,,,,,,,,,,,3,1,female,27,450,450,2022_Aug_01_0936,Experiment,2021.1.4,359.905129
