image_face,image_scram,avatar,emo,emotion,sex,trigeeg,dac,trial_no,NMES,stimtime,baseline,iti,face,scr_face,resp_time,index,count_NMES,count_avatar,count_emotion,dac1,dac2,dac1_output,dac2_output,trigs_out,nmes,practice_trials.thisRepN,practice_trials.thisTrialN,practice_trials.thisN,practice_trials.thisIndex,real_trials.thisRepN,real_trials.thisTrialN,real_trials.thisN,real_trials.thisIndex,trials.thisRepN,trials.thisTrialN,trials.thisN,trials.thisIndex,position,Welcome.started,Welcome.stopped,Welcome_resp.keys,Welcome_resp.rt,text_2.started,text_2.stopped,form_2.index,form_2.itemText,form_2.type,form_2.response,form_2.rt,key_resp_4.keys,key_resp_4.rt,key_resp_4.started,key_resp_4.stopped,instructions.started,instructions.stopped,end_instr.keys,end_instr.rt,instructions_2.started,instructions_2.stopped,end_instr_2.keys,end_instr_2.rt,end_instr_2.started,end_instr_2.stopped,instruct_keypress.started,instruct_keypress.stopped,end_instruct_keypress.keys,end_instruct_keypress.rt,start_practice.started,start_practice.stopped,start_practice_resp.keys,start_practice_resp.rt,prac_baseline.started,prac_baseline.stopped,prac_iti.started,prac_iti.stopped,prac_stimulus.started,prac_stimulus.stopped,prac_scram_stim.started,prac_scram_stim.stopped,prac_stimulus_resp.started,prac_stimulus_resp.stopped,prac_resp.keys,prac_resp.rt,prac_resp.started,prac_resp.stopped,transition_to_real.started,transition_to_real.stopped,end_transition_to_real.keys,end_transition_to_real.rt,fixation_cross.started,fixation_cross.stopped,tr_iti.started,tr_iti.stopped,stimulus.started,stimulus.stopped,scram_stim.started,scram_stim.stopped,response_txt.started,response_txt.stopped,response.keys,response.rt,response.started,response.stopped,participant_Resp,grouping,corAnswer,break_msg.started,break_msg.stopped,end_break.keys,end_break.started,end_break.stopped,end_break.rt,text.started,text.stopped,key_resp_3.keys,key_resp_3.rt,key_resp_3.started,key_resp_3.stopped,fix_cross_comf.started,fix_cross_comf.stopped,stimulation_comf.started,stimulation_comf.stopped,rate_instr.started,rate_instr.stopped,comfort_rating.response,comfort_rating.rt,comfort_rating.started,comfort_rating.stopped,resp_form.keys,resp_form.rt,resp_form.started,resp_form.stopped,survey_instructions.started,survey_instructions.stopped,key_resp_2.keys,key_resp_2.rt,key_resp_2.started,key_resp_2.stopped,form.index,form.itemText,form.type,form.response,form.rt,key_resp.keys,key_resp.rt,key_resp.started,key_resp.stopped,text_3.started,text_3.stopped,rate_smile.response,rate_smile.rt,rate_smile.started,rate_smile.stopped,key_resp_5.keys,key_resp_5.rt,key_resp_5.started,key_resp_5.stopped,end_msg.started,end_msg.stopped,end_resp.keys,end_resp.rt,end_resp.started,end_resp.stopped,participant,session,gender,age,LEFT,RIGHT,date,expName,psychopyVersion,frameRate
,,,,,,,,,,,,,,,,,,,,,,,,,,,,,,,,,,,,,,S-H,24.1165039,None,num_add,13.0115904,,,,,,,,,,,,,,,,,,,,,,,,,,,,,,,,,,,,,,,,,,,,,,,,,,,,,,,,,,,,,,,,,,,,,,,,,,,,,,,,,,,,,,,,,,,,,,,,,,,,,,,,,,,,,,,,,,,,,,,,,,40,1,0,20,380,380,2022_Nov_14_1331,Experiment,2021.1.4,360.1695678
,,,,,,,,,,,,,,,,,,,,,,,,,,,,,,,,,,,,,,,,,,,37.137425,39.1839664,1,"This scale consistes of a number of words that describe different feelings and emotion. Read each item and then list the number from the scale below each word. Indicate (by clicking) to what extend you feel this way RIGHT NOW, that is, AT THE PRESENT MOMENT.",description,,,,,,,,,,,,,,,,,,,,,,,,,,,,,,,,,,,,,,,,,,,,,,,,,,,,,,,,,,,,,,,,,,,,,,,,,,,,,,,,,,,,,,,,,,,,,,,,,,,,,,,,,,,,,,,,,,,,,40,1,0,20,380,380,2022_Nov_14_1331,Experiment,2021.1.4,360.1695678
,,,,,,,,,,,,,,,,,,,,,,,,,,,,,,,,,,,,,,,,,,,,,2,Interested,rating,4,24.2338169,,,,,,,,,,,,,,,,,,,,,,,,,,,,,,,,,,,,,,,,,,,,,,,,,,,,,,,,,,,,,,,,,,,,,,,,,,,,,,,,,,,,,,,,,,,,,,,,,,,,,,,,,,,,,,,,,,,40,1,0,20,380,380,2022_Nov_14_1331,Experiment,2021.1.4,360.1695678
,,,,,,,,,,,,,,,,,,,,,,,,,,,,,,,,,,,,,,,,,,,,,3,Distressed,rating,2,35.4640436,,,,,,,,,,,,,,,,,,,,,,,,,,,,,,,,,,,,,,,,,,,,,,,,,,,,,,,,,,,,,,,,,,,,,,,,,,,,,,,,,,,,,,,,,,,,,,,,,,,,,,,,,,,,,,,,,,,40,1,0,20,380,380,2022_Nov_14_1331,Experiment,2021.1.4,360.1695678
,,,,,,,,,,,,,,,,,,,,,,,,,,,,,,,,,,,,,,,,,,,,,4,Excited,rating,4,38.3906058,,,,,,,,,,,,,,,,,,,,,,,,,,,,,,,,,,,,,,,,,,,,,,,,,,,,,,,,,,,,,,,,,,,,,,,,,,,,,,,,,,,,,,,,,,,,,,,,,,,,,,,,,,,,,,,,,,,40,1,0,20,380,380,2022_Nov_14_1331,Experiment,2021.1.4,360.1695678
,,,,,,,,,,,,,,,,,,,,,,,,,,,,,,,,,,,,,,,,,,,,,5,Upset,rating,None,None,,,,,,,,,,,,,,,,,,,,,,,,,,,,,,,,,,,,,,,,,,,,,,,,,,,,,,,,,,,,,,,,,,,,,,,,,,,,,,,,,,,,,,,,,,,,,,,,,,,,,,,,,,,,,,,,,,,40,1,0,20,380,380,2022_Nov_14_1331,Experiment,2021.1.4,360.1695678
,,,,,,,,,,,,,,,,,,,,,,,,,,,,,,,,,,,,,,,,,,,,,6,Strong,rating,None,None,,,,,,,,,,,,,,,,,,,,,,,,,,,,,,,,,,,,,,,,,,,,,,,,,,,,,,,,,,,,,,,,,,,,,,,,,,,,,,,,,,,,,,,,,,,,,,,,,,,,,,,,,,,,,,,,,,,40,1,0,20,380,380,2022_Nov_14_1331,Experiment,2021.1.4,360.1695678
,,,,,,,,,,,,,,,,,,,,,,,,,,,,,,,,,,,,,,,,,,,,,7,Guilty,rating,None,None,,,,,,,,,,,,,,,,,,,,,,,,,,,,,,,,,,,,,,,,,,,,,,,,,,,,,,,,,,,,,,,,,,,,,,,,,,,,,,,,,,,,,,,,,,,,,,,,,,,,,,,,,,,,,,,,,,,40,1,0,20,380,380,2022_Nov_14_1331,Experiment,2021.1.4,360.1695678
,,,,,,,,,,,,,,,,,,,,,,,,,,,,,,,,,,,,,,,,,,,,,8,Scared,rating,None,None,,,,,,,,,,,,,,,,,,,,,,,,,,,,,,,,,,,,,,,,,,,,,,,,,,,,,,,,,,,,,,,,,,,,,,,,,,,,,,,,,,,,,,,,,,,,,,,,,,,,,,,,,,,,,,,,,,,40,1,0,20,380,380,2022_Nov_14_1331,Experiment,2021.1.4,360.1695678
,,,,,,,,,,,,,,,,,,,,,,,,,,,,,,,,,,,,,,,,,,,,,9,Hostile,rating,None,None,,,,,,,,,,,,,,,,,,,,,,,,,,,,,,,,,,,,,,,,,,,,,,,,,,,,,,,,,,,,,,,,,,,,,,,,,,,,,,,,,,,,,,,,,,,,,,,,,,,,,,,,,,,,,,,,,,,40,1,0,20,380,380,2022_Nov_14_1331,Experiment,2021.1.4,360.1695678
,,,,,,,,,,,,,,,,,,,,,,,,,,,,,,,,,,,,,,,,,,,,,10,Enthusiastic,rating,None,None,,,,,,,,,,,,,,,,,,,,,,,,,,,,,,,,,,,,,,,,,,,,,,,,,,,,,,,,,,,,,,,,,,,,,,,,,,,,,,,,,,,,,,,,,,,,,,,,,,,,,,,,,,,,,,,,,,,40,1,0,20,380,380,2022_Nov_14_1331,Experiment,2021.1.4,360.1695678
,,,,,,,,,,,,,,,,,,,,,,,,,,,,,,,,,,,,,,,,,,,,,11,Proud,rating,None,None,,,,,,,,,,,,,,,,,,,,,,,,,,,,,,,,,,,,,,,,,,,,,,,,,,,,,,,,,,,,,,,,,,,,,,,,,,,,,,,,,,,,,,,,,,,,,,,,,,,,,,,,,,,,,,,,,,,40,1,0,20,380,380,2022_Nov_14_1331,Experiment,2021.1.4,360.1695678
,,,,,,,,,,,,,,,,,,,,,,,,,,,,,,,,,,,,,,,,,,,,,12,Irritable,rating,None,None,,,,,,,,,,,,,,,,,,,,,,,,,,,,,,,,,,,,,,,,,,,,,,,,,,,,,,,,,,,,,,,,,,,,,,,,,,,,,,,,,,,,,,,,,,,,,,,,,,,,,,,,,,,,,,,,,,,40,1,0,20,380,380,2022_Nov_14_1331,Experiment,2021.1.4,360.1695678
,,,,,,,,,,,,,,,,,,,,,,,,,,,,,,,,,,,,,,,,,,,,,13,Alert,rating,None,None,,,,,,,,,,,,,,,,,,,,,,,,,,,,,,,,,,,,,,,,,,,,,,,,,,,,,,,,,,,,,,,,,,,,,,,,,,,,,,,,,,,,,,,,,,,,,,,,,,,,,,,,,,,,,,,,,,,40,1,0,20,380,380,2022_Nov_14_1331,Experiment,2021.1.4,360.1695678
,,,,,,,,,,,,,,,,,,,,,,,,,,,,,,,,,,,,,,,,,,,,,14,Ashamed,rating,None,None,,,,,,,,,,,,,,,,,,,,,,,,,,,,,,,,,,,,,,,,,,,,,,,,,,,,,,,,,,,,,,,,,,,,,,,,,,,,,,,,,,,,,,,,,,,,,,,,,,,,,,,,,,,,,,,,,,,40,1,0,20,380,380,2022_Nov_14_1331,Experiment,2021.1.4,360.1695678
,,,,,,,,,,,,,,,,,,,,,,,,,,,,,,,,,,,,,,,,,,,,,15,Inspired,rating,None,None,,,,,,,,,,,,,,,,,,,,,,,,,,,,,,,,,,,,,,,,,,,,,,,,,,,,,,,,,,,,,,,,,,,,,,,,,,,,,,,,,,,,,,,,,,,,,,,,,,,,,,,,,,,,,,,,,,,40,1,0,20,380,380,2022_Nov_14_1331,Experiment,2021.1.4,360.1695678
,,,,,,,,,,,,,,,,,,,,,,,,,,,,,,,,,,,,,,,,,,,,,16,Nervous,rating,None,None,,,,,,,,,,,,,,,,,,,,,,,,,,,,,,,,,,,,,,,,,,,,,,,,,,,,,,,,,,,,,,,,,,,,,,,,,,,,,,,,,,,,,,,,,,,,,,,,,,,,,,,,,,,,,,,,,,,40,1,0,20,380,380,2022_Nov_14_1331,Experiment,2021.1.4,360.1695678
,,,,,,,,,,,,,,,,,,,,,,,,,,,,,,,,,,,,,,,,,,,,,17,Determined,rating,None,None,,,,,,,,,,,,,,,,,,,,,,,,,,,,,,,,,,,,,,,,,,,,,,,,,,,,,,,,,,,,,,,,,,,,,,,,,,,,,,,,,,,,,,,,,,,,,,,,,,,,,,,,,,,,,,,,,,,40,1,0,20,380,380,2022_Nov_14_1331,Experiment,2021.1.4,360.1695678
,,,,,,,,,,,,,,,,,,,,,,,,,,,,,,,,,,,,,,,,,,,,,18,Attentive,rating,None,None,,,,,,,,,,,,,,,,,,,,,,,,,,,,,,,,,,,,,,,,,,,,,,,,,,,,,,,,,,,,,,,,,,,,,,,,,,,,,,,,,,,,,,,,,,,,,,,,,,,,,,,,,,,,,,,,,,,40,1,0,20,380,380,2022_Nov_14_1331,Experiment,2021.1.4,360.1695678
,,,,,,,,,,,,,,,,,,,,,,,,,,,,,,,,,,,,,,,,,,,,,19,Jittery,rating,None,None,,,,,,,,,,,,,,,,,,,,,,,,,,,,,,,,,,,,,,,,,,,,,,,,,,,,,,,,,,,,,,,,,,,,,,,,,,,,,,,,,,,,,,,,,,,,,,,,,,,,,,,,,,,,,,,,,,,40,1,0,20,380,380,2022_Nov_14_1331,Experiment,2021.1.4,360.1695678
,,,,,,,,,,,,,,,,,,,,,,,,,,,,,,,,,,,,,,,,,,,,,20,Active,rating,None,None,,,,,,,,,,,,,,,,,,,,,,,,,,,,,,,,,,,,,,,,,,,,,,,,,,,,,,,,,,,,,,,,,,,,,,,,,,,,,,,,,,,,,,,,,,,,,,,,,,,,,,,,,,,,,,,,,,,40,1,0,20,380,380,2022_Nov_14_1331,Experiment,2021.1.4,360.1695678
,,,,,,,,,,,,,,,,,,,,,,,,,,,,,,,,,,,,,,,,,,,,,21,Afraid,rating,None,None,,,,,,,,,,,,,,,,,,,,,,,,,,,,,,,,,,,,,,,,,,,,,,,,,,,,,,,,,,,,,,,,,,,,,,,,,,,,,,,,,,,,,,,,,,,,,,,,,,,,,,,,,,,,,,,,,,,40,1,0,20,380,380,2022_Nov_14_1331,Experiment,2021.1.4,360.1695678
,,,,,,,,,,,,,,,,,,,,,,,,,,,,,,,,,,,,,,,,,,,,,22,Press the + button to submit your answers,description,,,,,,,,,,,,,,,,,,,,,,,,,,,,,,,,,,,,,,,,,,,,,,,,,,,,,,,,,,,,,,,,,,,,,,,,,,,,,,,,,,,,,,,,,,,,,,,,,,,,,,,,,,,,,,,,,,,,,40,1,0,20,380,380,2022_Nov_14_1331,Experiment,2021.1.4,360.1695678
,,,,,,,,,,,,,,,,,,,,,,,,,,,,,,,,,,,,,,,,,,,,,,,,,,num_add,34.0428733,47.1731645,None,,,,,,,,,,,,,,,,,,,,,,,,,,,,,,,,,,,,,,,,,,,,,,,,,,,,,,,,,,,,,,,,,,,,,,,,,,,,,,,,,,,,,,,,,,,,,,,,,,,,,,,,,,,,,,,40,1,0,20,380,380,2022_Nov_14_1331,Experiment,2021.1.4,360.1695678
,,,,,,,,,,,,,,,,,,,,,,,,,,,,,,,,,,,,,,,,,,,,,,,,,,,,,,81.2542836,None,num_add,23.0017315,,,,,,,,,,,,,,,,,,,,,,,,,,,,,,,,,,,,,,,,,,,,,,,,,,,,,,,,,,,,,,,,,,,,,,,,,,,,,,,,,,,,,,,,,,,,,,,,,,,,,,,,,,,40,1,0,20,380,380,2022_Nov_14_1331,Experiment,2021.1.4,360.1695678
,,,,,,,,,,,,,,,,,,,,,,,,,,,,,,,,,,,,,,,,,,,,,,,,,,,,,,,,,,104.2695221,None,num_add,22.3303933,104.2695221,None,,,,,,,,,,,,,,,,,,,,,,,,,,,,,,,,,,,,,,,,,,,,,,,,,,,,,,,,,,,,,,,,,,,,,,,,,,,,,,,,,,,,,,,,,,,,,,,,,,,,,40,1,0,20,380,380,2022_Nov_14_1331,Experiment,2021.1.4,360.1695678
,,,,,,,,,,,,,,,,,,,,,,,,,,,,,,,,,,,,,,,,,,,,,,,,,,,,,,,,,,,,,,,,126.6347134,None,num_add,11.0131659,,,,,,,,,,,,,,,,,,,,,,,,,,,,,,,,,,,,,,,,,,,,,,,,,,,,,,,,,,,,,,,,,,,,,,,,,,,,,,,,,,,,,,,,,,,,,,,,,40,1,0,20,380,380,2022_Nov_14_1331,Experiment,2021.1.4,360.1695678
,,,,,,,,,,,,,,,,,,,,,,,,,,,,,,,,,,,,,,,,,,,,,,,,,,,,,,,,,,,,,,,,,,,,137.6590898,None,space,70.9729084,,,,,,,,,,,,,,,,,,,,,,,,,,,,,,,,,,,,,,,,,,,,,,,,,,,,,,,,,,,,,,,,,,,,,,,,,,,,,,,,,,,,,,,,,,,,,40,1,0,20,380,380,2022_Nov_14_1331,Experiment,2021.1.4,360.1695678
images\S22_M_S_02.png,images\S22_M_S_02_scrambled.png,22,Sad,0.2,M,0,0,practice,off,1,0.5,0.75,0.5,0.751,3,,,,,,,,,,,0,0,0,3,,,,,,,,,,,,,,,,,,,,,,,,,,,,,,,,,,,,,,,,,,,208.8259394,209.3313691,209.3313691,210.0866858,210.0866858,210.5865354,210.5865354,211.3418482,211.3418482,None,num_6,1.9064132,211.3418482,None,,,,,,,,,,,,,,,,,,,,,,,,,,,,,,,,,,,,,,,,,,,,,,,,,,,,,,,,,,,,,,,,,,,,,,,,,,,,,,,40,1,0,20,380,380,2022_Nov_14_1331,Experiment,2021.1.4,360.1695678
images\S22_M_S_02.png,images\S22_M_S_02_scrambled.png,22,Sad,0.2,M,0,0,practice,on,2,0.5,0.75,0.5,0.783,3,,,,,,,,,,,0,1,1,6,,,,,,,,,,,,,,,,,,,,,,,,,,,,,,,,,,,,,,,,,,,213.307887,213.8105785,213.8105785,214.5631105,214.5631105,215.0629558,215.0629558,215.848793,215.848793,None,num_6,0.5114148,215.848793,None,,,,,,,,,,,,,,,,,,,,,,,,,,,,,,,,,,,,,,,,,,,,,,,,,,,,,,,,,,,,,,,,,,,,,,,,,,,,,,,40,1,0,20,380,380,2022_Nov_14_1331,Experiment,2021.1.4,360.1695678
images\S21_F_H_01.png,images\S21_F_H_01_scrambled.png,21,Happy,-0.1,F,0,0,practice,off,1,0.5,0.75,0.5,0.853,3,,,,,,,,,,,0,2,2,0,,,,,,,,,,,,,,,,,,,,,,,,,,,,,,,,,,,,,,,,,,,216.4763507,216.9789961,216.9789961,217.7287383,217.7287383,218.2286291,218.2286291,219.0839058,219.0839058,None,num_6,0.3162057,219.0839058,None,,,,,,,,,,,,,,,,,,,,,,,,,,,,,,,,,,,,,,,,,,,,,,,,,,,,,,,,,,,,,,,,,,,,,,,,,,,,,,,40,1,0,20,380,380,2022_Nov_14_1331,Experiment,2021.1.4,360.1695678
images\S22_M_H_02.png,images\S22_M_H_02_scrambled.png,22,Happy,-0.2,M,0,0,practice,off,1,0.5,0.75,0.5,0.883,3,,,,,,,,,,,0,3,3,2,,,,,,,,,,,,,,,,,,,,,,,,,,,,,,,,,,,,,,,,,,,219.517092,220.0224891,220.0224891,220.7750689,220.7750689,221.2804845,221.2804845,222.1634689,222.1634689,None,num_6,0.4291667,222.1634689,None,,,,,,,,,,,,,,,,,,,,,,,,,,,,,,,,,,,,,,,,,,,,,,,,,,,,,,,,,,,,,,,,,,,,,,,,,,,,,,,40,1,0,20,380,380,2022_Nov_14_1331,Experiment,2021.1.4,360.1695678
images\S22_M_S_01.png,images\S22_M_S_01_scrambled.png,22,Sad,0.1,M,0,0,practice,on,2,0.5,0.75,0.5,0.867,3,,,,,,,,,,,0,4,4,5,,,,,,,,,,,,,,,,,,,,,,,,,,,,,,,,,,,,,,,,,,,222.7133101,223.2159662,223.2159662,223.9685187,223.9685187,224.4683634,224.4683634,225.3403347,225.3403347,None,num_6,0.4198783,225.3403347,None,,,,,,,,,,,,,,,,,,,,,,,,,,,,,,,,,,,,,,,,,,,,,,,,,,,,,,,,,,,,,,,,,,,,,,,,,,,,,,,40,1,0,20,380,380,2022_Nov_14_1331,Experiment,2021.1.4,360.1695678
images\S22_M_S_03.png,images\S22_M_S_03_scrambled.png,22,Sad,0.3,M,0,0,practice,on,2,0.5,0.75,0.5,0.87,3,,,,,,,,,,,0,5,5,4,,,,,,,,,,,,,,,,,,,,,,,,,,,,,,,,,,,,,,,,,,,225.8762328,226.3788785,226.3788785,227.1286515,227.1286515,227.6284935,227.6284935,228.497643,228.497643,None,num_4,0.2467721,228.497643,None,,,,,,,,,,,,,,,,,,,,,,,,,,,,,,,,,,,,,,,,,,,,,,,,,,,,,,,,,,,,,,,,,,,,,,,,,,,,,,,40,1,0,20,380,380,2022_Nov_14_1331,Experiment,2021.1.4,360.1695678
images\S22_M_S_03.png,images\S22_M_S_03_scrambled.png,22,Sad,0.3,M,0,0,practice,on,2,0.5,0.75,0.5,0.794,3,,,,,,,,,,,0,6,6,7,,,,,,,,,,,,,,,,,,,,,,,,,,,,,,,,,,,,,,,,,,,228.8142016,229.3140749,229.3140749,230.06661,230.06661,230.5693239,230.5693239,231.3662175,231.3662175,None,num_6,0.6262262,231.3662175,None,,,,,,,,,,,,,,,,,,,,,,,,,,,,,,,,,,,,,,,,,,,,,,,,,,,,,,,,,,,,,,,,,,,,,,,,,,,,,,,40,1,0,20,380,380,2022_Nov_14_1331,Experiment,2021.1.4,360.1695678
images\S21_F_H_02.png,images\S21_F_H_02_scrambled.png,21,Happy,-0.2,F,0,0,practice,off,1,0.5,0.75,0.5,0.91,3,,,,,,,,,,,0,7,7,1,,,,,,,,,,,,,,,,,,,,,,,,,,,,,,,,,,,,,,,,,,,232.0854141,232.5852665,232.5852665,233.3350573,233.3350573,233.8376975,233.8376975,234.7512785,234.7512785,None,num_6,0.392697,234.7512785,None,,,,,,,,,,,,,,,,,,,,,,,,,,,,,,,,,,,,,,,,,,,,,,,,,,,,,,,,,,,,,,,,,,,,,,,,,,,,,,,40,1,0,20,380,380,2022_Nov_14_1331,Experiment,2021.1.4,360.1695678
,,,,,,,,,,,,,,,,,,,,,,,,,,,,,,,,,,,,,,,,,,,,,,,,,,,,,,,,,,,,,,,,,,,,,,,,,,,,,,,,,,,,,,235.1872312,None,space,33.6204146,,,,,,,,,,,,,,,,,,,,,,,,,,,,,,,,,,,,,,,,,,,,,,,,,,,,,,,,,,,,,,,,,,,,,,,,,,,40,1,0,20,380,380,2022_Nov_14_1331,Experiment,2021.1.4,360.1695678
images\S9_F_H_01.png,images\S9_F_H_01_scrambled.png,9,happy,10,female,4,,289,off,1,0.5,0.75,0.5,0.875,3,288,1,1,1,0,0,0,0,4,,,,,,0,0,0,0,,,,,,,,,,,,,,,,,,,,,,,,,,,,,,,,,,,,,,,,,,,,,,,,,,,,,,,,,269.3516473,269.8570786,269.8570786,270.6097296,270.6097296,271.115052,271.115052,271.9953392,271.9953392,None,num_6,0.5406648,271.9953392,None,happy,0,Happy,272.5506979,None,None,272.5506979,None,,,,,,,,,,,,,,,,,,,,,,,,,,,,,,,,,,,,,,,,,,,,,,,,,,,,,40,1,0,20,380,380,2022_Nov_14_1331,Experiment,2021.1.4,360.1695678
images\S4_M_H_03.png,images\S4_M_H_03_scrambled.png,4,happy,30,male,6,,201,on,2,0.5,0.75,0.5,0.903,3,200,1,1,1,2,2,32,128,166,,,,,,0,1,1,1,,,,,,,,,,,,,,,,,,,,,,,,,,,,,,,,,,,,,,,,,,,,,,,,,,,,,,,,,272.6561949,273.1616233,273.1616233,273.9141753,273.9141753,274.4140145,274.4140145,275.3192703,275.3192703,None,num_6,0.5291025,275.3192703,None,happy,0,Happy,275.8775165,None,None,275.8775165,None,,,,,,,,,,,,,,,,,,,,,,,,,,,,,,,,,,,,,,,,,,,,,,,,,,,,,40,1,0,20,380,380,2022_Nov_14_1331,Experiment,2021.1.4,360.1695678
images\S5_F_H_01.png,images\S5_F_H_01_scrambled.png,5,happy,10,female,4,,145,off,1,0.5,0.75,0.5,0.833,3,144,1,1,1,0,0,0,0,4,,,,,,0,2,2,2,,,,,,,,,,,,,,,,,,,,,,,,,,,,,,,,,,,,,,,,,,,,,,,,,,,,,,,,,275.9829481,276.4827966,276.4827966,277.2326148,277.2326148,277.735234,277.735234,278.5710588,278.5710588,None,num_6,0.7168317,278.5710588,None,happy,0,Happy,279.2985727,None,None,279.2985727,None,,,,,,,,,,,,,,,,,,,,,,,,,,,,,,,,,,,,,,,,,,,,,,,,,,,,,40,1,0,20,380,380,2022_Nov_14_1331,Experiment,2021.1.4,360.1695678
images\S1_F_H_01.png,images\S1_F_H_01_scrambled.png,1,happy,10,female,4,,421,on,2,0.5,0.75,0.5,0.85,3,420,1,1,2,2,2,32,128,164,,,,,,0,3,3,3,,,,,,,,,,,,,,,,,,,,,,,,,,,,,,,,,,,,,,,,,,,,,,,,,,,,,,,,,279.398555,279.9012024,279.9012024,280.6537597,280.6537597,281.1536031,281.1536031,282.006101,282.006101,None,num_4,0.4499617,282.006101,None,sad,0,Happy,282.4642792,None,None,282.4642792,None,,,,,,,,,,,,,,,,,,,,,,,,,,,,,,,,,,,,,,,,,,,,,,,,,,,,,40,1,0,20,380,380,2022_Nov_14_1331,Experiment,2021.1.4,360.1695678
images\S9_F_H_03.png,images\S9_F_H_03_scrambled.png,9,happy,30,female,6,,111,on,2,0.5,0.75,0.5,0.864,3,110,2,1,1,2,2,32,128,166,,,,,,0,4,4,4,,,,,,,,,,,,,,,,,,,,,,,,,,,,,,,,,,,,,,,,,,,,,,,,,,,,,,,,,282.5559143,283.0613361,283.0613361,283.8166581,283.8166581,284.3193943,284.3193943,285.1856906,285.1856906,None,num_6,0.414718,285.1856906,None,happy,0,Happy,285.6132706,None,None,285.6132706,None,,,,,,,,,,,,,,,,,,,,,,,,,,,,,,,,,,,,,,,,,,,,,,,,,,,,,40,1,0,20,380,380,2022_Nov_14_1331,Experiment,2021.1.4,360.1695678
images\blank.jpg,images\blank.jpg,none,none,none,none,0,,609,on,2,0.5,0.75,0.5,0.786,0,608,3,1,1,3,3,48,192,240,,,,,,0,5,5,5,,,,,,,,,,,,,,,,,,,,,,,,,,,,,,,,,,,,,,,,,,,,,,,,,,,,,,,,,285.7720091,286.2742268,286.2742268,287.0267667,287.0267667,287.5266181,287.5266181,288.3125532,288.3125532,288.3125532,None,,288.3125532,None,miss,0,,291.3144111,None,None,291.3144111,None,,,,,,,,,,,,,,,,,,,,,,,,,,,,,,,,,,,,,,,,,,,,,,,,,,,,,40,1,0,20,380,380,2022_Nov_14_1331,Experiment,2021.1.4,360.1695678
images\S2_M_H_01.png,images\S2_M_H_01_scrambled.png,2,happy,10,male,4,,547,on,2,0.5,0.75,0.5,0.774,3,546,4,1,1,2,2,32,128,164,,,,,,0,6,6,6,,,,,,,,,,,,,,,,,,,,,,,,,,,,,,,,,,,,,,,,,,,,,,,,,,,,,,,,,291.4867301,291.9891335,291.9891335,292.7444222,292.7444222,293.2499138,293.2499138,294.0301849,294.0301849,None,num_4,0.3945989,294.0301849,291.4867301,sad,0,Happy,294.4327545,None,None,294.4327545,None,,,,,,,,,,,,,,,,,,,,,,,,,,,,,,,,,,,,,,,,,,,,,,,,,,,,,40,1,0,20,380,380,2022_Nov_14_1331,Experiment,2021.1.4,360.1695678
images\S5_F_H_03.png,images\S5_F_H_03_scrambled.png,5,happy,30,female,6,,147,off,1,0.5,0.75,0.5,0.861,3,146,1,1,1,0,0,0,0,6,,,,,,0,7,7,7,,,,,,,,,,,,,,,,,,,,,,,,,,,,,,,,,,,,,,,,,,,,,,,,,,,,,,,,,294.5188792,295.0187208,295.0187208,295.7685292,295.7685292,296.268339,296.268339,297.1319702,297.1319702,None,num_6,0.4603313,297.1319702,None,happy,0,Happy,297.6067911,None,None,297.6067911,None,,,,,,,,,,,,,,,,,,,,,,,,,,,,,,,,,,,,,,,,,,,,,,,,,,,,,40,1,0,20,380,380,2022_Nov_14_1331,Experiment,2021.1.4,360.1695678
images\S6_M_S_03.png,images\S6_M_S_03_scrambled.png,6,sad,-30,male,1,,336,on,2,0.5,0.75,0.5,0.866,3,335,1,1,1,2,2,32,128,161,,,,,,0,8,8,8,,,,,,,,,,,,,,,,,,,,,,,,,,,,,,,,,,,,,,,,,,,,,,,,,,,,,,,,,297.7178871,298.2177463,298.2177463,298.9703389,298.9703389,299.4729053,299.4729053,300.3449333,300.3449333,None,num_4,0.3751478,300.3449333,None,sad,0,Sad,300.7336124,None,None,300.7336124,None,,,,,,,,,,,,,,,,,,,,,,,,,,,,,,,,,,,,,,,,,,,,,,,,,,,,,40,1,0,20,380,380,2022_Nov_14_1331,Experiment,2021.1.4,360.1695678
images\S5_F_S_01.png,images\S5_F_S_01_scrambled.png,5,sad,-10,female,3,,328,on,2,0.5,0.75,0.5,0.774,3,327,2,1,1,2,2,32,128,163,,,,,,0,9,9,9,,,,,,,,,,,,,,,,,,,,,,,,,,,,,,,,,,,,,,,,,,,,,,,,,,,,,,,,,300.8419218,301.3446665,301.3446665,302.0999197,302.0999197,302.6053,302.6053,303.3856142,303.3856142,None,num_6,0.406326,303.3856142,None,happy,0,Sad,303.7965787,None,None,303.7965787,None,,,,,,,,,,,,,,,,,,,,,,,,,,,,,,,,,,,,,,,,,,,,,,,,,,,,,40,1,0,20,380,380,2022_Nov_14_1331,Experiment,2021.1.4,360.1695678
images\S7_F_S_01.png,images\S7_F_S_01_scrambled.png,7,sad,-10,female,3,,340,on,2,0.5,0.75,0.5,0.923,3,339,3,1,2,2,2,32,128,163,,,,,,0,10,10,10,,,,,,,,,,,,,,,,,,,,,,,,,,,,,,,,,,,,,,,,,,,,,,,,,,,,,,,,,303.907637,304.4074917,304.4074917,305.1600886,305.1600886,305.6627038,305.6627038,306.5901965,306.5901965,None,num_4,0.3858088,306.5901965,None,sad,0,Sad,306.9872795,None,None,306.9872795,None,,,,,,,,,,,,,,,,,,,,,,,,,,,,,,,,,,,,,,,,,,,,,,,,,,,,,40,1,0,20,380,380,2022_Nov_14_1331,Experiment,2021.1.4,360.1695678
images\S8_M_H_01.png,images\S8_M_H_01_scrambled.png,8,happy,10,male,4,,343,on,2,0.5,0.75,0.5,0.844,3,342,4,1,1,2,2,32,128,164,,,,,,0,11,11,11,,,,,,,,,,,,,,,,,,,,,,,,,,,,,,,,,,,,,,,,,,,,,,,,,,,,,,,,,307.0733265,307.5759774,307.5759774,308.3257165,308.3257165,308.8284369,308.8284369,309.6753401,309.6753401,None,num_6,0.4126831,309.6753401,None,happy,0,Happy,310.1029373,None,None,310.1029373,None,,,,,,,,,,,,,,,,,,,,,,,,,,,,,,,,,,,,,,,,,,,,,,,,,,,,,40,1,0,20,380,380,2022_Nov_14_1331,Experiment,2021.1.4,360.1695678
images\S3_F_H_03.png,images\S3_F_H_03_scrambled.png,3,happy,30,female,6,,435,on,2,0.5,0.75,0.5,0.814,3,434,5,1,1,2,2,32,128,166,,,,,,0,12,12,12,,,,,,,,,,,,,,,,,,,,,,,,,,,,,,,,,,,,,,,,,,,,,,,,,,,,,,,,,310.2112472,310.713985,310.713985,311.4636702,311.4636702,311.9634794,311.9634794,312.7799508,312.7799508,None,num_6,0.5563774,312.7799508,None,happy,0,Happy,313.3520564,None,None,313.3520564,None,,,,,,,,,,,,,,,,,,,,,,,,,,,,,,,,,,,,,,,,,,,,,,,,,,,,,40,1,0,20,380,380,2022_Nov_14_1331,Experiment,2021.1.4,360.1695678
images\S5_F_S_02.png,images\S5_F_S_02_scrambled.png,5,sad,-20,female,2,,389,off,1,0.5,0.75,0.5,0.843,3,388,1,1,1,0,0,0,0,2,,,,,,0,13,13,13,,,,,,,,,,,,,,,,,,,,,,,,,,,,,,,,,,,,,,,,,,,,,,,,,,,,,,,,,313.4712892,313.9767819,313.9767819,314.7264898,314.7264898,315.2263989,315.2263989,316.0705317,316.0705317,None,num_6,0.63347,316.0705317,None,happy,0,Sad,316.7119804,None,None,316.7119804,None,,,,,,,,,,,,,,,,,,,,,,,,,,,,,,,,,,,,,,,,,,,,,,,,,,,,,40,1,0,20,380,380,2022_Nov_14_1331,Experiment,2021.1.4,360.1695678
images\S1_F_S_01.png,images\S1_F_S_01_scrambled.png,1,sad,-10,female,3,,364,off,1,0.5,0.75,0.5,0.854,3,363,2,1,1,0,0,0,0,3,,,,,,0,14,14,14,,,,,,,,,,,,,,,,,,,,,,,,,,,,,,,,,,,,,,,,,,,,,,,,,,,,,,,,,316.8175408,317.3202978,317.3202978,318.0699258,318.0699258,318.5725405,318.5725405,319.4307266,319.4307266,None,num_4,0.3850268,319.4307266,None,sad,0,Sad,319.8304883,None,None,319.8304883,None,,,,,,,,,,,,,,,,,,,,,,,,,,,,,,,,,,,,,,,,,,,,,,,,,,,,,40,1,0,20,380,380,2022_Nov_14_1331,Experiment,2021.1.4,360.1695678
images\S5_F_H_02.png,images\S5_F_H_02_scrambled.png,5,happy,20,female,5,,566,on,2,0.5,0.75,0.5,0.769,3,565,1,1,1,2,2,32,128,165,,,,,,0,15,15,15,,,,,,,,,,,,,,,,,,,,,,,,,,,,,,,,,,,,,,,,,,,,,,,,,,,,,,,,,319.9165764,320.416435,320.416435,321.1717828,321.1717828,321.6716344,321.6716344,322.4464086,322.4464086,None,num_6,0.4975167,322.4464086,None,happy,0,Happy,322.9573163,None,None,322.9573163,None,,,,,,,,,,,,,,,,,,,,,,,,,,,,,,,,,,,,,,,,,,,,,,,,,,,,,40,1,0,20,380,380,2022_Nov_14_1331,Experiment,2021.1.4,360.1695678
images\S2_M_S_01.png,images\S2_M_S_01_scrambled.png,2,sad,-10,male,3,,10,off,1,0.5,0.75,0.5,0.947,3,9,1,1,1,0,0,0,0,3,,,,,,0,16,16,16,,,,,,,,,,,,,,,,,,,,,,,,,,,,,,,,,,,,,,,,,,,,,,,,,,,,,,,,,323.0461656,323.5515925,323.5515925,324.3041537,324.3041537,324.8039579,324.8039579,325.7536669,325.7536669,None,num_4,0.3741449,325.7536669,None,sad,0,Sad,326.1396608,None,None,326.1396608,None,,,,,,,,,,,,,,,,,,,,,,,,,,,,,,,,,,,,,,,,,,,,,,,,,,,,,40,1,0,20,380,380,2022_Nov_14_1331,Experiment,2021.1.4,360.1695678
images\S10_M_H_01.png,images\S10_M_H_01_scrambled.png,10,happy,10,male,4,,235,on,2,0.5,0.75,0.5,0.913,3,234,1,1,1,2,2,32,128,164,,,,,,0,17,17,17,,,,,,,,,,,,,,,,,,,,,,,,,,,,,,,,,,,,,,,,,,,,,,,,,,,,,,,,,326.2479445,326.7506954,326.7506954,327.5059216,327.5059216,328.0113217,328.0113217,328.9276936,328.9276936,None,num_6,0.456096,328.9276936,None,happy,0,Happy,329.4053534,None,None,329.4053534,None,,,,,,,,,,,,,,,,,,,,,,,,,,,,,,,,,,,,,,,,,,,,,,,,,,,,,40,1,0,20,380,380,2022_Nov_14_1331,Experiment,2021.1.4,360.1695678
images\S8_M_S_02.png,images\S8_M_S_02_scrambled.png,8,sad,-20,male,2,,227,on,2,0.5,0.75,0.5,0.847,3,226,2,1,1,2,2,32,128,162,,,,,,0,18,18,18,,,,,,,,,,,,,,,,,,,,,,,,,,,,,,,,,,,,,,,,,,,,,,,,,,,,,,,,,329.5136087,330.0162671,330.0162671,330.768827,330.768827,331.2686765,331.2686765,332.1211899,332.1211899,None,num_4,0.3033375,332.1211899,None,sad,0,Sad,332.4350615,None,None,332.4350615,None,,,,,,,,,,,,,,,,,,,,,,,,,,,,,,,,,,,,,,,,,,,,,,,,,,,,,40,1,0,20,380,380,2022_Nov_14_1331,Experiment,2021.1.4,360.1695678
images\S9_F_S_01.png,images\S9_F_S_01_scrambled.png,9,sad,-10,female,3,,472,on,2,0.5,0.75,0.5,0.949,3,471,3,1,1,2,2,32,128,163,,,,,,0,19,19,19,,,,,,,,,,,,,,,,,,,,,,,,,,,,,,,,,,,,,,,,,,,,,,,,,,,,,,,,,332.5432228,333.043103,333.043103,333.7928575,333.7928575,334.295574,334.295574,335.2508113,335.2508113,None,num_6,0.3893907,335.2508113,None,happy,0,Sad,335.6451135,None,None,335.6451135,None,,,,,,,,,,,,,,,,,,,,,,,,,,,,,,,,,,,,,,,,,,,,,,,,,,,,,40,1,0,20,380,380,2022_Nov_14_1331,Experiment,2021.1.4,360.1695678
images\S7_F_H_03.png,images\S7_F_H_03_scrambled.png,7,happy,30,female,6,,459,on,2,0.5,0.75,0.5,0.77,3,458,4,1,1,2,2,32,128,166,,,,,,0,20,20,20,,,,,,,,,,,,,,,,,,,,,,,,,,,,,,,,,,,,,,,,,,,,,,,,,,,,,,,,,335.7588968,336.2615606,336.2615606,337.0141044,337.0141044,337.5139713,337.5139713,338.285953,338.285953,None,num_6,0.4980197,338.285953,None,happy,0,Happy,338.7995979,None,None,338.7995979,None,,,,,,,,,,,,,,,,,,,,,,,,,,,,,,,,,,,,,,,,,,,,,,,,,,,,,40,1,0,20,380,380,2022_Nov_14_1331,Experiment,2021.1.4,360.1695678
images\S8_M_H_01.png,images\S8_M_H_01_scrambled.png,8,happy,10,male,4,,463,on,2,0.5,0.75,0.5,0.805,3,462,5,1,1,2,2,32,128,164,,,,,,0,21,21,21,,,,,,,,,,,,,,,,,,,,,,,,,,,,,,,,,,,,,,,,,,,,,,,,,,,,,,,,,338.8440552,339.3467142,339.3467142,340.0964568,340.0964568,340.5991088,340.5991088,341.4071785,341.4071785,None,num_4,0.2967497,341.4071785,None,sad,0,Happy,341.7098164,None,None,341.7098164,None,,,,,,,,,,,,,,,,,,,,,,,,,,,,,,,,,,,,,,,,,,,,,,,,,,,,,40,1,0,20,380,380,2022_Nov_14_1331,Experiment,2021.1.4,360.1695678
images\S8_M_S_03.png,images\S8_M_S_03_scrambled.png,8,sad,-30,male,1,,588,on,2,0.5,0.75,0.5,0.851,3,587,6,2,1,2,2,32,128,161,,,,,,0,22,22,22,,,,,,,,,,,,,,,,,,,,,,,,,,,,,,,,,,,,,,,,,,,,,,,,,,,,,,,,,341.8181329,342.3179906,342.3179906,343.0677661,343.0677661,343.5704865,343.5704865,344.4257851,344.4257851,None,num_4,0.4463038,344.4257851,None,sad,0,Sad,344.8894593,None,None,344.8894593,None,,,,,,,,,,,,,,,,,,,,,,,,,,,,,,,,,,,,,,,,,,,,,,,,,,,,,40,1,0,20,380,380,2022_Nov_14_1331,Experiment,2021.1.4,360.1695678
images\S10_M_H_02.png,images\S10_M_H_02_scrambled.png,10,happy,20,male,5,,176,off,1,0.5,0.75,0.5,0.765,3,175,1,1,1,0,0,0,0,5,,,,,,0,23,23,23,,,,,,,,,,,,,,,,,,,,,,,,,,,,,,,,,,,,,,,,,,,,,,,,,,,,,,,,,345.0004954,345.5059416,345.5059416,346.2612593,346.2612593,346.7638852,346.7638852,347.5358806,347.5358806,None,num_6,0.4244221,347.5358806,None,happy,0,Happy,347.9745449,None,None,347.9745449,None,,,,,,,,,,,,,,,,,,,,,,,,,,,,,,,,,,,,,,,,,,,,,,,,,,,,,40,1,0,20,380,380,2022_Nov_14_1331,Experiment,2021.1.4,360.1695678
images\S3_F_H_01.png,images\S3_F_H_01_scrambled.png,3,happy,10,female,4,,493,off,1,0.5,0.75,0.5,0.831,3,492,2,1,1,0,0,0,0,4,,,,,,0,24,24,24,,,,,,,,,,,,,,,,,,,,,,,,,,,,,,,,,,,,,,,,,,,,,,,,,,,,,,,,,348.0828647,348.5856076,348.5856076,349.3380292,349.3380292,349.8407571,349.8407571,350.6709455,350.6709455,None,num_4,0.3770031,350.6709455,None,sad,0,Happy,351.0541559,None,None,351.0541559,None,,,,,,,,,,,,,,,,,,,,,,,,,,,,,,,,,,,,,,,,,,,,,,,,,,,,,40,1,0,20,380,380,2022_Nov_14_1331,Experiment,2021.1.4,360.1695678
images\blank.jpg,images\blank.jpg,none,none,none,none,0,,627,on,2,0.5,0.75,0.5,0.816,0,626,1,1,1,3,3,48,192,240,,,,,,0,25,25,25,,,,,,,,,,,,,,,,,,,,,,,,,,,,,,,,,,,,,,,,,,,,,,,,,,,,,,,,,351.1515458,351.6567878,351.6567878,352.409341,352.409341,352.9091899,352.9091899,353.7284335,353.7284335,353.7284335,None,,353.7284335,None,miss,0,,356.7303254,None,None,356.7303254,None,,,,,,,,,,,,,,,,,,,,,,,,,,,,,,,,,,,,,,,,,,,,,,,,,,,,,40,1,0,20,380,380,2022_Nov_14_1331,Experiment,2021.1.4,360.1695678
images\S1_F_H_01.png,images\S1_F_H_01_scrambled.png,1,happy,10,female,4,,301,on,2,0.5,0.75,0.5,0.925,3,300,2,1,1,2,2,32,128,164,,,,,,0,26,26,26,,,,,,,,,,,,,,,,,,,,,,,,,,,,,,,,,,,,,,,,,,,,,,,,,,,,,,,,,356.8524703,357.3550318,357.3550318,358.1047923,358.1047923,358.6046649,358.6046649,359.5321317,359.5321317,None,num_4,0.3236784,359.5321317,356.8524703,sad,0,Happy,359.8625132,None,None,359.8625132,None,,,,,,,,,,,,,,,,,,,,,,,,,,,,,,,,,,,,,,,,,,,,,,,,,,,,,40,1,0,20,380,380,2022_Nov_14_1331,Experiment,2021.1.4,360.1695678
images\S2_M_S_01.png,images\S2_M_S_01_scrambled.png,2,sad,-10,male,3,,70,on,2,0.5,0.75,0.5,0.758,3,69,3,1,1,2,2,32,128,163,,,,,,0,27,27,27,,,,,,,,,,,,,,,,,,,,,,,,,,,,,,,,,,,,,,,,,,,,,,,,,,,,,,,,,359.9097596,360.4124004,360.4124004,361.1649614,361.1649614,361.6704664,361.6704664,362.4312431,362.4312431,None,num_4,0.3848635,362.4312431,None,sad,0,Sad,362.8310123,None,None,362.8310123,None,,,,,,,,,,,,,,,,,,,,,,,,,,,,,,,,,,,,,,,,,,,,,,,,,,,,,40,1,0,20,380,380,2022_Nov_14_1331,Experiment,2021.1.4,360.1695678
images\blank.jpg,images\blank.jpg,none,none,none,none,0,,611,on,2,0.5,0.75,0.5,0.847,0,610,4,1,1,3,3,48,192,240,,,,,,0,28,28,28,,,,,,,,,,,,,,,,,,,,,,,,,,,,,,,,,,,,,,,,,,,,,,,,,,,,,,,,,362.9119044,363.4170379,363.4170379,364.1695947,364.1695947,364.6694448,364.6694448,365.51639,365.51639,365.51639,None,,365.51639,None,miss,0,,368.5211274,None,None,368.5211274,None,,,,,,,,,,,,,,,,,,,,,,,,,,,,,,,,,,,,,,,,,,,,,,,,,,,,,40,1,0,20,380,380,2022_Nov_14_1331,Experiment,2021.1.4,360.1695678
images\S1_F_S_01.png,images\S1_F_S_01_scrambled.png,1,sad,-10,female,3,,304,on,2,0.5,0.75,0.5,0.782,3,303,5,1,1,2,2,32,128,163,,,,,,0,29,29,29,,,,,,,,,,,,,,,,,,,,,,,,,,,,,,,,,,,,,,,,,,,,,,,,,,,,,,,,,368.6433918,369.1458549,369.1458549,369.9011709,369.9011709,370.4037892,370.4037892,371.1896318,371.1896318,None,num_4,0.170393,371.1896318,368.6433918,sad,0,Sad,371.3840495,None,None,371.3840495,None,,,,,,,,,,,,,,,,,,,,,,,,,,,,,,,,,,,,,,,,,,,,,,,,,,,,,40,1,0,20,380,380,2022_Nov_14_1331,Experiment,2021.1.4,360.1695678
images\S7_F_H_02.png,images\S7_F_H_02_scrambled.png,7,happy,20,female,5,,158,off,1,0.5,0.75,0.5,0.886,3,157,1,1,1,0,0,0,0,5,,,,,,0,30,30,30,,,,,,,,,,,,,,,,,,,,,,,,,,,,,,,,,,,,,,,,,,,,,,,,,,,,,,,,,371.4922921,371.9949431,371.9949431,372.7474761,372.7474761,373.2502162,373.2502162,374.1415117,374.1415117,None,num_6,0.426846,374.1415117,None,happy,0,Happy,374.5829631,None,None,374.5829631,None,,,,,,,,,,,,,,,,,,,,,,,,,,,,,,,,,,,,,,,,,,,,,,,,,,,,,40,1,0,20,380,380,2022_Nov_14_1331,Experiment,2021.1.4,360.1695678
images\S7_F_H_03.png,images\S7_F_H_03_scrambled.png,7,happy,30,female,6,,99,on,2,0.5,0.75,0.5,0.813,3,98,1,2,1,2,2,32,128,166,,,,,,0,31,31,31,,,,,,,,,,,,,,,,,,,,,,,,,,,,,,,,,,,,,,,,,,,,,,,,,,,,,,,,,374.6302068,375.1328344,375.1328344,375.8855095,375.8855095,376.3908339,376.3908339,377.2072057,377.2072057,None,num_6,0.6731205,377.2072057,None,happy,0,Happy,377.8904425,None,None,377.8904425,None,,,,,,,,,,,,,,,,,,,,,,,,,,,,,,,,,,,,,,,,,,,,,,,,,,,,,40,1,0,20,380,380,2022_Nov_14_1331,Experiment,2021.1.4,360.1695678
images\S6_M_H_02.png,images\S6_M_H_02_scrambled.png,6,happy,20,male,5,,152,off,1,0.5,0.75,0.5,0.832,3,151,1,1,1,0,0,0,0,5,,,,,,0,32,32,32,,,,,,,,,,,,,,,,,,,,,,,,,,,,,,,,,,,,,,,,,,,,,,,,,,,,,,,,,377.9875051,378.4901549,378.4901549,379.2399216,379.2399216,379.7397394,379.7397394,380.5757149,380.5757149,None,num_6,0.3844644,380.5757149,None,happy,0,Happy,380.9727395,None,None,380.9727395,None,,,,,,,,,,,,,,,,,,,,,,,,,,,,,,,,,,,,,,,,,,,,,,,,,,,,,40,1,0,20,380,380,2022_Nov_14_1331,Experiment,2021.1.4,360.1695678
images\S7_F_H_01.png,images\S7_F_H_01_scrambled.png,7,happy,10,female,4,,37,off,1,0.5,0.75,0.5,0.851,3,36,2,1,1,0,0,0,0,4,,,,,,0,33,33,33,,,,,,,,,,,,,,,,,,,,,,,,,,,,,,,,,,,,,,,,,,,,,,,,,,,,,,,,,381.0809906,381.5864265,381.5864265,382.3389434,382.3389434,382.8415957,382.8415957,383.6968811,383.6968811,None,num_6,0.8875554,383.6968811,None,happy,0,Happy,384.5993306,None,None,384.5993306,None,,,,,,,,,,,,,,,,,,,,,,,,,,,,,,,,,,,,,,,,,,,,,,,,,,,,,40,1,0,20,380,380,2022_Nov_14_1331,Experiment,2021.1.4,360.1695678
images\S1_F_H_02.png,images\S1_F_H_02_scrambled.png,1,happy,20,female,5,,242,off,1,0.5,0.75,0.5,0.802,3,241,3,1,1,0,0,0,0,5,,,,,,0,34,34,34,,,,,,,,,,,,,,,,,,,,,,,,,,,,,,,,,,,,,,,,,,,,,,,,,,,,,,,,,384.7076447,385.2102915,385.2102915,385.9600369,385.9600369,386.4655768,386.4655768,387.2680002,387.2680002,None,num_6,0.5238842,387.2680002,None,happy,0,Happy,387.8066461,None,None,387.8066461,None,,,,,,,,,,,,,,,,,,,,,,,,,,,,,,,,,,,,,,,,,,,,,,,,,,,,,40,1,0,20,380,380,2022_Nov_14_1331,Experiment,2021.1.4,360.1695678
images\S8_M_H_01.png,images\S8_M_H_01_scrambled.png,8,happy,10,male,4,,163,off,1,0.5,0.75,0.5,0.94,3,162,4,1,1,0,0,0,0,4,,,,,,0,35,35,35,,,,,,,,,,,,,,,,,,,,,,,,,,,,,,,,,,,,,,,,,,,,,,,,,,,,,,,,,387.870554,388.3703994,388.3703994,389.1257971,389.1257971,389.6311813,389.6311813,390.5754105,390.5754105,None,num_4,0.5046361,390.5754105,None,sad,0,Happy,391.0889699,None,None,391.0889699,None,,,,,,,,,,,,,,,,,,,,,,,,,,,,,,,,,,,,,,,,,,,,,,,,,,,,,40,1,0,20,380,380,2022_Nov_14_1331,Experiment,2021.1.4,360.1695678
images\S4_M_S_02.png,images\S4_M_S_02_scrambled.png,4,sad,-20,male,2,,23,off,1,0.5,0.75,0.5,0.753,3,22,5,1,1,0,0,0,0,2,,,,,,0,36,36,36,,,,,,,,,,,,,,,,,,,,,,,,,,,,,,,,,,,,,,,,,,,,,,,,,,,,,,,,,391.1945267,391.6943743,391.6943743,392.4441877,392.4441877,392.9440225,392.9440225,393.6994355,393.6994355,None,num_4,0.5247991,393.6994355,None,sad,0,Sad,394.2379971,None,None,394.2379971,None,,,,,,,,,,,,,,,,,,,,,,,,,,,,,,,,,,,,,,,,,,,,,,,,,,,,,40,1,0,20,380,380,2022_Nov_14_1331,Experiment,2021.1.4,360.1695678
images\S4_M_H_02.png,images\S4_M_H_02_scrambled.png,4,happy,20,male,5,,380,off,1,0.5,0.75,0.5,0.862,3,379,6,2,1,0,0,0,0,5,,,,,,0,37,37,37,,,,,,,,,,,,,,,,,,,,,,,,,,,,,,,,,,,,,,,,,,,,,,,,,,,,,,,,,394.3463318,394.8517598,394.8517598,395.6014998,395.6014998,396.1013823,396.1013823,396.9706195,396.9706195,None,num_4,0.4053617,396.9706195,None,sad,0,Happy,397.3842153,None,None,397.3842153,None,,,,,,,,,,,,,,,,,,,,,,,,,,,,,,,,,,,,,,,,,,,,,,,,,,,,,40,1,0,20,380,380,2022_Nov_14_1331,Experiment,2021.1.4,360.1695678
images\S8_M_H_03.png,images\S8_M_H_03_scrambled.png,8,happy,30,male,6,,225,on,2,0.5,0.75,0.5,0.847,3,224,1,1,1,2,2,32,128,166,,,,,,0,38,38,38,,,,,,,,,,,,,,,,,,,,,,,,,,,,,,,,,,,,,,,,,,,,,,,,,,,,,,,,,397.4926049,397.9979935,397.9979935,398.7506129,398.7506129,399.2559685,399.2559685,400.1057497,400.1057497,None,num_6,0.4380237,400.1057497,None,happy,0,Happy,400.5611025,None,None,400.5611025,None,,,,,,,,,,,,,,,,,,,,,,,,,,,,,,,,,,,,,,,,,,,,,,,,,,,,,40,1,0,20,380,380,2022_Nov_14_1331,Experiment,2021.1.4,360.1695678
images\S8_M_S_02.png,images\S8_M_S_02_scrambled.png,8,sad,-20,male,2,,347,on,2,0.5,0.75,0.5,0.884,3,346,2,2,1,2,2,32,128,162,,,,,,0,39,39,39,,,,,,,,,,,,,,,,,,,,,,,,,,,,,,,,,,,,,,,,,,,,,,,,,,,,,,,,,400.6082834,401.108143,401.108143,401.8607545,401.8607545,402.363351,402.363351,403.251939,403.251939,None,num_4,0.4202333,403.251939,None,sad,0,Sad,403.6935163,None,None,403.6935163,None,,,,,,,,,,,,,,,,,,,,,,,,,,,,,,,,,,,,,,,,,,,,,,,,,,,,,40,1,0,20,380,380,2022_Nov_14_1331,Experiment,2021.1.4,360.1695678
images\S4_M_H_02.png,images\S4_M_H_02_scrambled.png,4,happy,20,male,5,,560,on,2,0.5,0.75,0.5,0.787,3,559,3,1,1,2,2,32,128,165,,,,,,0,40,40,40,,,,,,,,,,,,,,,,,,,,,,,,,,,,,,,,,,,,,,,,,,,,,,,,,,,,,,,,,403.7462022,404.2460535,404.2460535,404.9986417,404.9986417,405.4984999,405.4984999,406.2898916,406.2898916,None,num_4,0.4061063,406.2898916,None,sad,0,Happy,406.7009431,None,None,406.7009431,None,,,,,,,,,,,,,,,,,,,,,,,,,,,,,,,,,,,,,,,,,,,,,,,,,,,,,40,1,0,20,380,380,2022_Nov_14_1331,Experiment,2021.1.4,360.1695678
images\S3_F_S_01.png,images\S3_F_S_01_scrambled.png,3,sad,-10,female,3,,196,on,2,0.5,0.75,0.5,0.876,3,195,4,1,1,2,2,32,128,163,,,,,,0,41,41,41,,,,,,,,,,,,,,,,,,,,,,,,,,,,,,,,,,,,,,,,,,,,,,,,,,,,,,,,,406.8119233,407.314657,407.314657,408.0643387,408.0643387,408.5641856,408.5641856,409.4445439,409.4445439,None,num_4,0.3392507,409.4445439,None,sad,0,Sad,409.8026909,None,None,409.8026909,None,,,,,,,,,,,,,,,,,,,,,,,,,,,,,,,,,,,,,,,,,,,,,,,,,,,,,40,1,0,20,380,380,2022_Nov_14_1331,Experiment,2021.1.4,360.1695678
images\blank.jpg,images\blank.jpg,none,none,none,none,0,,648,on,2,0.5,0.75,0.5,0.773,0,647,5,1,1,3,3,48,192,240,,,,,,0,42,42,42,,,,,,,,,,,,,,,,,,,,,,,,,,,,,,,,,,,,,,,,,,,,,,,,,,,,,,,,,409.8918146,410.3913661,410.3913661,411.1411465,411.1411465,411.6438149,411.6438149,412.418571,412.418571,412.418571,None,,412.418571,None,miss,0,,415.4203823,None,None,415.4203823,None,,,,,,,,,,,,,,,,,,,,,,,,,,,,,,,,,,,,,,,,,,,,,,,,,,,,,40,1,0,20,380,380,2022_Nov_14_1331,Experiment,2021.1.4,360.1695678
images\S4_M_S_03.png,images\S4_M_S_03_scrambled.png,4,sad,-30,male,1,,504,off,1,0.5,0.75,0.5,0.906,3,503,1,1,1,0,0,0,0,1,,,,,,0,43,43,43,,,,,,,,,,,,,,,,,,,,,,,,,,,,,,,,,,,,,,,,,,,,,,,,,,,,,,,,,415.5705145,416.0757807,416.0757807,416.8310847,416.8310847,417.3337297,417.3337297,418.2445234,418.2445234,None,num_4,0.3474637,418.2445234,415.5705145,sad,0,Sad,418.6054852,None,None,418.6054852,None,,,,,,,,,,,,,,,,,,,,,,,,,,,,,,,,,,,,,,,,,,,,,,,,,,,,,40,1,0,20,380,380,2022_Nov_14_1331,Experiment,2021.1.4,360.1695678
images\S5_F_H_02.png,images\S5_F_H_02_scrambled.png,5,happy,20,female,5,,326,on,2,0.5,0.75,0.5,0.894,3,325,1,1,1,2,2,32,128,165,,,,,,0,44,44,44,,,,,,,,,,,,,,,,,,,,,,,,,,,,,,,,,,,,,,,,,,,,,,,,,,,,,,,,,418.6499253,419.149776,419.149776,419.9052193,419.9052193,420.4105961,420.4105961,421.3046596,421.3046596,None,num_6,0.5355204,421.3046596,None,happy,0,Happy,421.8544582,None,None,421.8544582,None,,,,,,,,,,,,,,,,,,,,,,,,,,,,,,,,,,,,,,,,,,,,,,,,,,,,,40,1,0,20,380,380,2022_Nov_14_1331,Experiment,2021.1.4,360.1695678
images\S8_M_S_01.png,images\S8_M_S_01_scrambled.png,8,sad,-10,male,3,,526,off,1,0.5,0.75,0.5,0.844,3,525,1,1,1,0,0,0,0,3,,,,,,0,45,45,45,,,,,,,,,,,,,,,,,,,,,,,,,,,,,,,,,,,,,,,,,,,,,,,,,,,,,,,,,421.9572357,422.459858,422.459858,423.2096512,423.2096512,423.7151611,423.7151611,424.5620103,424.5620103,None,num_4,0.3821229,424.5620103,None,sad,0,Sad,424.9675176,None,None,424.9675176,None,,,,,,,,,,,,,,,,,,,,,,,,,,,,,,,,,,,,,,,,,,,,,,,,,,,,,40,1,0,20,380,380,2022_Nov_14_1331,Experiment,2021.1.4,360.1695678
images\S5_F_S_01.png,images\S5_F_S_01_scrambled.png,5,sad,-10,female,3,,208,on,2,0.5,0.75,0.5,0.95,3,207,1,1,2,2,2,32,128,163,,,,,,0,46,46,46,,,,,,,,,,,,,,,,,,,,,,,,,,,,,,,,,,,,,,,,,,,,,,,,,,,,,,,,,425.0229662,425.5256615,425.5256615,426.2809576,426.2809576,426.7835768,426.7835768,427.7360427,427.7360427,None,num_6,0.3756129,427.7360427,None,happy,0,Sad,428.1219291,None,None,428.1219291,None,,,,,,,,,,,,,,,,,,,,,,,,,,,,,,,,,,,,,,,,,,,,,,,,,,,,,40,1,0,20,380,380,2022_Nov_14_1331,Experiment,2021.1.4,360.1695678
images\S1_F_H_03.png,images\S1_F_H_03_scrambled.png,1,happy,30,female,6,,303,on,2,0.5,0.75,0.5,0.883,3,302,2,1,1,2,2,32,128,166,,,,,,0,47,47,47,,,,,,,,,,,,,,,,,,,,,,,,,,,,,,,,,,,,,,,,,,,,,,,,,,,,,,,,,428.233056,428.7329275,428.7329275,429.4855796,429.4855796,429.9908998,429.9908998,430.8767247,430.8767247,None,num_6,0.443038,430.8767247,None,happy,0,Happy,431.3376548,None,None,431.3376548,None,,,,,,,,,,,,,,,,,,,,,,,,,,,,,,,,,,,,,,,,,,,,,,,,,,,,,40,1,0,20,380,380,2022_Nov_14_1331,Experiment,2021.1.4,360.1695678
images\S1_F_S_03.png,images\S1_F_S_03_scrambled.png,1,sad,-30,female,1,,126,off,1,0.5,0.75,0.5,0.766,3,125,1,2,1,0,0,0,0,1,,,,,,0,48,48,48,,,,,,,,,,,,,,,,,,,,,,,,,,,,,,,,,,,,,,,,,,,,,,,,,,,,,,,,,431.4459706,431.951401,431.951401,432.7039492,432.7039492,433.2037793,433.2037793,433.9757965,433.9757965,None,num_4,0.37569,433.9757965,None,sad,0,Sad,434.3728485,None,None,434.3728485,None,,,,,,,,,,,,,,,,,,,,,,,,,,,,,,,,,,,,,,,,,,,,,,,,,,,,,40,1,0,20,380,380,2022_Nov_14_1331,Experiment,2021.1.4,360.1695678
images\S9_F_H_01.png,images\S9_F_H_01_scrambled.png,9,happy,10,female,4,,229,on,2,0.5,0.75,0.5,0.914,3,228,1,1,1,2,2,32,128,164,,,,,,0,49,49,49,,,,,,,,,,,,,,,,,,,,,,,,,,,,,,,,,,,,,,,,,,,,,,,,,,,,,,,,,434.4256009,434.9310435,434.9310435,435.6863616,435.6863616,436.1889882,436.1889882,437.1053307,437.1053307,None,num_6,0.3743849,437.1053307,None,happy,0,Happy,437.4940891,None,None,437.4940891,None,,,,,,,,,,,,,,,,,,,,,,,,,,,,,,,,,,,,,,,,,,,,,,,,,,,,,40,1,0,20,380,380,2022_Nov_14_1331,Experiment,2021.1.4,360.1695678
images\S10_M_S_02.png,images\S10_M_S_02_scrambled.png,10,sad,-20,male,2,,359,on,2,0.5,0.75,0.5,0.835,3,358,2,1,1,2,2,32,128,162,,,,,,0,50,50,50,,,,,,,,,,,,,,,,,,,,,,,,,,,,,,,,,,,,,,,,,,,,,,,,,,,,,,,,,437.5940651,438.0967151,438.0967151,438.852043,438.852043,439.3518814,439.3518814,440.1905691,440.1905691,None,num_6,0.6170192,440.1905691,None,happy,0,Sad,440.8152542,None,None,440.8152542,None,,,,,,,,,,,,,,,,,,,,,,,,,,,,,,,,,,,,,,,,,,,,,,,,,,,,,40,1,0,20,380,380,2022_Nov_14_1331,Experiment,2021.1.4,360.1695678
images\S10_M_S_01.png,images\S10_M_S_01_scrambled.png,10,sad,-10,male,3,,118,on,2,0.5,0.75,0.5,0.832,3,117,3,2,1,2,2,32,128,163,,,,,,0,51,51,51,,,,,,,,,,,,,,,,,,,,,,,,,,,,,,,,,,,,,,,,,,,,,,,,,,,,,,,,,440.9208172,441.4206443,441.4206443,442.1760215,442.1760215,442.6786679,442.6786679,443.5144828,443.5144828,None,num_6,0.5014761,443.5144828,None,happy,0,Sad,444.0253804,None,None,444.0253804,None,,,,,,,,,,,,,,,,,,,,,,,,,,,,,,,,,,,,,,,,,,,,,,,,,,,,,40,1,0,20,380,380,2022_Nov_14_1331,Experiment,2021.1.4,360.1695678
images\S6_M_H_01.png,images\S6_M_H_01_scrambled.png,6,happy,10,male,4,,391,off,1,0.5,0.75,0.5,0.88,3,390,1,1,1,0,0,0,0,4,,,,,,0,52,52,52,,,,,,,,,,,,,,,,,,,,,,,,,,,,,,,,,,,,,,,,,,,,,,,,,,,,,,,,,444.1364858,444.6419131,444.6419131,445.3944775,445.3944775,445.8943103,445.8943103,446.7802333,446.7802333,None,num_6,1.8754115,446.7802333,None,happy,0,Happy,448.6683908,None,None,448.6683908,None,,,,,,,,,,,,,,,,,,,,,,,,,,,,,,,,,,,,,,,,,,,,,,,,,,,,,40,1,0,20,380,380,2022_Nov_14_1331,Experiment,2021.1.4,360.1695678
images\S5_F_H_03.png,images\S5_F_H_03_scrambled.png,5,happy,30,female,6,,447,on,2,0.5,0.75,0.5,0.787,3,446,1,1,1,2,2,32,128,166,,,,,,0,53,53,53,,,,,,,,,,,,,,,,,,,,,,,,,,,,,,,,,,,,,,,,,,,,,,,,,,,,,,,,,448.7128548,449.2155756,449.2155756,449.970848,449.970848,450.4734697,450.4734697,451.2648562,451.2648562,None,num_6,0.5989782,451.2648562,None,happy,0,Happy,451.8785084,None,None,451.8785084,None,,,,,,,,,,,,,,,,,,,,,,,,,,,,,,,,,,,,,,,,,,,,,,,,,,,,,40,1,0,20,380,380,2022_Nov_14_1331,Experiment,2021.1.4,360.1695678
images\S3_F_H_03.png,images\S3_F_H_03_scrambled.png,3,happy,30,female,6,,195,on,2,0.5,0.75,0.5,0.802,3,194,2,1,2,2,2,32,128,166,,,,,,0,54,54,54,,,,,,,,,,,,,,,,,,,,,,,,,,,,,,,,,,,,,,,,,,,,,,,,,,,,,,,,,451.9229765,452.4256553,452.4256553,453.1809432,453.1809432,453.6835866,453.6835866,454.4916575,454.4916575,None,num_6,0.5399802,454.4916575,None,happy,0,Happy,455.0442074,None,None,455.0442074,None,,,,,,,,,,,,,,,,,,,,,,,,,,,,,,,,,,,,,,,,,,,,,,,,,,,,,40,1,0,20,380,380,2022_Nov_14_1331,Experiment,2021.1.4,360.1695678
images\blank.jpg,images\blank.jpg,none,none,none,none,0,,608,on,2,0.5,0.75,0.5,0.944,0,607,3,1,1,3,3,48,192,240,,,,,,0,55,55,55,,,,,,,,,,,,,,,,,,,,,,,,,,,,,,,,,,,,,,,,,,,,,,,,,,,,,,,,,455.1249797,455.6273747,455.6273747,456.3771629,456.3771629,456.8799148,456.8799148,457.8239114,457.8239114,457.8239114,None,,457.8239114,None,miss,0,,460.8259025,None,None,460.8259025,None,,,,,,,,,,,,,,,,,,,,,,,,,,,,,,,,,,,,,,,,,,,,,,,,,,,,,40,1,0,20,380,380,2022_Nov_14_1331,Experiment,2021.1.4,360.1695678
images\S6_M_S_02.png,images\S6_M_S_02_scrambled.png,6,sad,-20,male,2,,35,off,1,0.5,0.75,0.5,0.914,3,34,1,1,1,0,0,0,0,2,,,,,,0,56,56,56,,,,,,,,,,,,,,,,,,,,,,,,,,,,,,,,,,,,,,,,,,,,,,,,,,,,,,,,,461.0009712,461.5005738,461.5005738,462.2559459,462.2559459,462.7613261,462.7613261,463.680535,463.680535,None,num_4,0.3031632,463.680535,461.0009712,sad,0,Sad,463.9969966,None,None,463.9969966,None,,,,,,,,,,,,,,,,,,,,,,,,,,,,,,,,,,,,,,,,,,,,,,,,,,,,,40,1,0,20,380,380,2022_Nov_14_1331,Experiment,2021.1.4,360.1695678
images\S8_M_S_01.png,images\S8_M_S_01_scrambled.png,8,sad,-10,male,3,,586,on,2,0.5,0.75,0.5,0.788,3,585,1,1,1,2,2,32,128,163,,,,,,0,57,57,57,,,,,,,,,,,,,,,,,,,,,,,,,,,,,,,,,,,,,,,,,,,,,,,,,,,,,,,,,464.0608892,464.5663186,464.5663186,465.3188628,465.3188628,465.8187297,465.8187297,466.6102191,466.6102191,None,num_4,0.3575105,466.6102191,None,sad,0,Sad,466.9821916,None,None,466.9821916,None,,,,,,,,,,,,,,,,,,,,,,,,,,,,,,,,,,,,,,,,,,,,,,,,,,,,,40,1,0,20,380,380,2022_Nov_14_1331,Experiment,2021.1.4,360.1695678
images\S10_M_S_01.png,images\S10_M_S_01_scrambled.png,10,sad,-10,male,3,,58,off,1,0.5,0.75,0.5,0.854,3,57,1,1,2,0,0,0,0,3,,,,,,0,58,58,58,,,,,,,,,,,,,,,,,,,,,,,,,,,,,,,,,,,,,,,,,,,,,,,,,,,,,,,,,467.0460723,467.5459249,467.5459249,468.298515,468.298515,468.801117,468.801117,469.6592804,469.6592804,None,num_4,0.4523974,469.6592804,None,sad,0,Sad,470.125644,None,None,470.125644,None,,,,,,,,,,,,,,,,,,,,,,,,,,,,,,,,,,,,,,,,,,,,,,,,,,,,,40,1,0,20,380,380,2022_Nov_14_1331,Experiment,2021.1.4,360.1695678
images\S7_F_S_02.png,images\S7_F_S_02_scrambled.png,7,sad,-20,female,2,,461,on,2,0.5,0.75,0.5,0.757,3,460,1,1,1,2,2,32,128,162,,,,,,0,59,59,59,,,,,,,,,,,,,,,,,,,,,,,,,,,,,,,,,,,,,,,,,,,,,,,,,,,,,,,,,470.2089812,470.7116277,470.7116277,471.4641803,471.4641803,471.9640283,471.9640283,472.7249639,472.7249639,None,num_4,0.4346091,472.7249639,None,sad,0,Sad,473.1830575,None,None,473.1830575,None,,,,,,,,,,,,,,,,,,,,,,,,,,,,,,,,,,,,,,,,,,,,,,,,,,,,,40,1,0,20,380,380,2022_Nov_14_1331,Experiment,2021.1.4,360.1695678
images\S3_F_H_03.png,images\S3_F_H_03_scrambled.png,3,happy,30,female,6,,375,off,1,0.5,0.75,0.5,0.805,3,374,1,1,1,0,0,0,0,6,,,,,,0,60,60,60,,,,,,,,,,,,,,,,,,,,,,,,,,,,,,,,,,,,,,,,,,,,,,,,,,,,,,,,,473.2358178,473.7412558,473.7412558,474.4938097,474.4938097,474.9936638,474.9936638,475.8017187,475.8017187,None,num_6,0.4223108,475.8017187,None,happy,0,Happy,476.2349725,None,None,476.2349725,None,,,,,,,,,,,,,,,,,,,,,,,,,,,,,,,,,,,,,,,,,,,,,,,,,,,,,40,1,0,20,380,380,2022_Nov_14_1331,Experiment,2021.1.4,360.1695678
images\S8_M_S_01.png,images\S8_M_S_01_scrambled.png,8,sad,-10,male,3,,406,off,1,0.5,0.75,0.5,0.848,3,405,2,1,1,0,0,0,0,3,,,,,,0,61,61,61,,,,,,,,,,,,,,,,,,,,,,,,,,,,,,,,,,,,,,,,,,,,,,,,,,,,,,,,,476.2793249,476.7791606,476.7791606,477.5289734,477.5289734,478.0288175,478.0288175,478.8813229,478.8813229,None,num_4,0.4545426,478.8813229,None,sad,0,Sad,479.3505478,None,None,479.3505478,None,,,,,,,,,,,,,,,,,,,,,,,,,,,,,,,,,,,,,,,,,,,,,,,,,,,,,40,1,0,20,380,380,2022_Nov_14_1331,Experiment,2021.1.4,360.1695678
images\blank.jpg,images\blank.jpg,none,none,none,none,0,,614,on,2,0.5,0.75,0.5,0.881,0,613,1,1,1,3,3,48,192,240,,,,,,0,62,62,62,,,,,,,,,,,,,,,,,,,,,,,,,,,,,,,,,,,,,,,,,,,,,,,,,,,,,,,,,479.4313922,479.9309966,479.9309966,480.6863322,480.6863322,481.1861432,481.1861432,482.0664444,482.0664444,482.0664444,None,,482.0664444,None,miss,0,,485.0711579,None,None,485.0711579,None,,,,,,,,,,,,,,,,,,,,,,,,,,,,,,,,,,,,,,,,,,,,,,,,,,,,,40,1,0,20,380,380,2022_Nov_14_1331,Experiment,2021.1.4,360.1695678
images\S3_F_H_01.png,images\S3_F_H_01_scrambled.png,3,happy,10,female,4,,373,off,1,0.5,0.75,0.5,0.759,3,372,1,1,1,0,0,0,0,4,,,,,,0,63,63,63,,,,,,,,,,,,,,,,,,,,,,,,,,,,,,,,,,,,,,,,,,,,,,,,,,,,,,,,,485.19344,485.6959093,485.6959093,486.4484516,486.4484516,486.9510696,486.9510696,487.7119223,487.7119223,None,num_6,0.4077388,487.7119223,485.19344,happy,0,Happy,488.1450844,None,None,488.1450844,None,,,,,,,,,,,,,,,,,,,,,,,,,,,,,,,,,,,,,,,,,,,,,,,,,,,,,40,1,0,20,380,380,2022_Nov_14_1331,Experiment,2021.1.4,360.1695678
images\S7_F_H_02.png,images\S7_F_H_02_scrambled.png,7,happy,20,female,5,,98,on,2,0.5,0.75,0.5,0.868,3,97,1,1,1,2,2,32,128,165,,,,,,0,64,64,64,,,,,,,,,,,,,,,,,,,,,,,,,,,,,,,,,,,,,,,,,,,,,,,,,,,,,,,,,488.1950809,488.700557,488.700557,489.4558604,489.4558604,489.9556476,489.9556476,490.8304723,490.8304723,None,num_6,0.4974098,490.8304723,None,happy,0,Happy,491.338641,None,None,491.338641,None,,,,,,,,,,,,,,,,,,,,,,,,,,,,,,,,,,,,,,,,,,,,,,,,,,,,,40,1,0,20,380,380,2022_Nov_14_1331,Experiment,2021.1.4,360.1695678
images\S1_F_S_02.png,images\S1_F_S_02_scrambled.png,1,sad,-20,female,2,,545,on,2,0.5,0.75,0.5,0.863,3,544,2,1,1,2,2,32,128,162,,,,,,0,65,65,65,,,,,,,,,,,,,,,,,,,,,,,,,,,,,,,,,,,,,,,,,,,,,,,,,,,,,,,,,491.4468502,491.9467093,491.9467093,492.6992888,492.6992888,493.1991295,493.1991295,494.0655159,494.0655159,None,num_6,0.5501435,494.0655159,None,happy,0,Sad,494.6235816,None,None,494.6235816,None,,,,,,,,,,,,,,,,,,,,,,,,,,,,,,,,,,,,,,,,,,,,,,,,,,,,,40,1,0,20,380,380,2022_Nov_14_1331,Experiment,2021.1.4,360.1695678
images\S2_M_S_01.png,images\S2_M_S_01_scrambled.png,2,sad,-10,male,3,,130,off,1,0.5,0.75,0.5,0.825,3,129,1,1,1,0,0,0,0,3,,,,,,0,66,66,66,,,,,,,,,,,,,,,,,,,,,,,,,,,,,,,,,,,,,,,,,,,,,,,,,,,,,,,,,494.6680785,495.1707616,495.1707616,495.9205004,495.9205004,496.4259229,496.4259229,497.2562043,497.2562043,None,num_4,0.4872137,497.2562043,None,sad,0,Sad,497.7587923,None,None,497.7587923,None,,,,,,,,,,,,,,,,,,,,,,,,,,,,,,,,,,,,,,,,,,,,,,,,,,,,,40,1,0,20,380,380,2022_Nov_14_1331,Experiment,2021.1.4,360.1695678
images\blank.jpg,images\blank.jpg,none,none,none,none,0,,626,on,2,0.5,0.75,0.5,0.879,0,625,1,1,1,3,3,48,192,240,,,,,,0,67,67,67,,,,,,,,,,,,,,,,,,,,,,,,,,,,,,,,,,,,,,,,,,,,,,,,,,,,,,,,,497.8395255,498.3392048,498.3392048,499.0889728,499.0889728,499.5887625,499.5887625,500.4747251,500.4747251,500.4747251,None,,500.4747251,None,miss,0,,503.4737277,None,None,503.4737277,None,,,,,,,,,,,,,,,,,,,,,,,,,,,,,,,,,,,,,,,,,,,,,,,,,,,,,40,1,0,20,380,380,2022_Nov_14_1331,Experiment,2021.1.4,360.1695678
images\S10_M_H_01.png,images\S10_M_H_01_scrambled.png,10,happy,10,male,4,,295,off,1,0.5,0.75,0.5,0.856,3,294,1,1,1,0,0,0,0,4,,,,,,0,68,68,68,,,,,,,,,,,,,,,,,,,,,,,,,,,,,,,,,,,,,,,,,,,,,,,,,,,,,,,,,503.5932725,504.0957255,504.0957255,504.8510985,504.8510985,505.3536978,505.3536978,506.2089559,506.2089559,None,num_6,0.3192526,506.2089559,503.5932725,happy,0,Happy,506.5421477,None,None,506.5421477,None,,,,,,,,,,,,,,,,,,,,,,,,,,,,,,,,,,,,,,,,,,,,,,,,,,,,,40,1,0,20,380,380,2022_Nov_14_1331,Experiment,2021.1.4,360.1695678
images\S9_F_S_03.png,images\S9_F_S_03_scrambled.png,9,sad,-30,female,1,,294,off,1,0.5,0.75,0.5,0.85,3,293,2,1,1,0,0,0,0,1,,,,,,0,69,69,69,,,,,,,,,,,,,,,,,,,,,,,,,,,,,,,,,,,,,,,,,,,,,,,,,,,,,,,,,506.6532418,507.155943,507.155943,507.9084852,507.9084852,508.4110882,508.4110882,509.2663808,509.2663808,None,num_4,0.3895189,509.2663808,None,sad,0,Sad,509.6689935,None,None,509.6689935,None,,,,,,,,,,,,,,,,,,,,,,,,,,,,,,,,,,,,,,,,,,,,,,,,,,,,,40,1,0,20,380,380,2022_Nov_14_1331,Experiment,2021.1.4,360.1695678
images\S3_F_S_01.png,images\S3_F_S_01_scrambled.png,3,sad,-10,female,3,,436,on,2,0.5,0.75,0.5,0.845,3,435,1,1,1,2,2,32,128,163,,,,,,0,70,70,70,,,,,,,,,,,,,,,,,,,,,,,,,,,,,,,,,,,,,,,,,,,,,,,,,,,,,,,,,509.7162148,510.218825,510.218825,510.9686468,510.9686468,511.4684184,511.4684184,512.3154825,512.3154825,None,num_4,0.4126108,512.3154825,None,sad,0,Sad,512.7430071,None,None,512.7430071,None,,,,,,,,,,,,,,,,,,,,,,,,,,,,,,,,,,,,,,,,,,,,,,,,,,,,,40,1,0,20,380,380,2022_Nov_14_1331,Experiment,2021.1.4,360.1695678
images\S8_M_S_01.png,images\S8_M_S_01_scrambled.png,8,sad,-10,male,3,,46,off,1,0.5,0.75,0.5,0.798,3,45,1,1,2,0,0,0,0,3,,,,,,0,71,71,71,,,,,,,,,,,,,,,,,,,,,,,,,,,,,,,,,,,,,,,,,,,,,,,,,,,,,,,,,512.7874785,513.2902208,513.2902208,514.0454924,514.0454924,514.5508586,514.5508586,515.3505984,515.3505984,None,num_4,0.5050758,515.3505984,None,sad,0,Sad,515.8670907,None,None,515.8670907,None,,,,,,,,,,,,,,,,,,,,,,,,,,,,,,,,,,,,,,,,,,,,,,,,,,,,,40,1,0,20,380,380,2022_Nov_14_1331,Experiment,2021.1.4,360.1695678
images\S6_M_S_02.png,images\S6_M_S_02_scrambled.png,6,sad,-20,male,2,,515,off,1,0.5,0.75,0.5,0.768,3,514,2,1,1,0,0,0,0,2,,,,,,0,72,72,72,,,,,,,,,,,,,,,,,,,,,,,,,,,,,,,,,,,,,,,,,,,,,,,,,,,,,,,,,515.914286,516.4169381,516.4169381,517.1694792,517.1694792,517.6693415,517.6693415,518.438481,518.438481,None,num_4,0.3770028,518.438481,None,sad,0,Sad,518.8300216,None,None,518.8300216,None,,,,,,,,,,,,,,,,,,,,,,,,,,,,,,,,,,,,,,,,,,,,,,,,,,,,,40,1,0,20,380,380,2022_Nov_14_1331,Experiment,2021.1.4,360.1695678
images\S5_F_S_02.png,images\S5_F_S_02_scrambled.png,5,sad,-20,female,2,,509,off,1,0.5,0.75,0.5,0.841,3,508,3,1,2,0,0,0,0,2,,,,,,0,73,73,73,,,,,,,,,,,,,,,,,,,,,,,,,,,,,,,,,,,,,,,,,,,,,,,,,,,,,,,,,518.8744965,519.3743524,519.3743524,520.124116,520.124116,520.62398,520.62398,521.4709625,521.4709625,None,num_6,0.3689905,521.4709625,None,happy,0,Sad,521.8485517,None,None,521.8485517,None,,,,,,,,,,,,,,,,,,,,,,,,,,,,,,,,,,,,,,,,,,,,,,,,,,,,,40,1,0,20,380,380,2022_Nov_14_1331,Experiment,2021.1.4,360.1695678
images\S6_M_H_01.png,images\S6_M_H_01_scrambled.png,6,happy,10,male,4,,91,on,2,0.5,0.75,0.5,0.912,3,90,1,1,1,2,2,32,128,164,,,,,,0,74,74,74,,,,,,,,,,,,,,,,,,,,,,,,,,,,,,,,,,,,,,,,,,,,,,,,,,,,,,,,,521.8929924,522.3928276,522.3928276,523.1454467,523.1454467,523.6508296,523.6508296,524.5671846,524.5671846,None,num_4,0.4649351,524.5671846,None,sad,0,Happy,525.0421125,None,None,525.0421125,None,,,,,,,,,,,,,,,,,,,,,,,,,,,,,,,,,,,,,,,,,,,,,,,,,,,,,40,1,0,20,380,380,2022_Nov_14_1331,Experiment,2021.1.4,360.1695678
images\S5_F_S_01.png,images\S5_F_S_01_scrambled.png,5,sad,-10,female,3,,568,on,2,0.5,0.75,0.5,0.801,3,567,2,1,1,2,2,32,128,163,,,,,,0,75,75,75,,,,,,,,,,,,,,,,,,,,,,,,,,,,,,,,,,,,,,,,,,,,,,,,,,,,,,,,,525.0975581,525.6001989,525.6001989,526.3555601,526.3555601,526.8581417,526.8581417,527.6662532,527.6662532,None,num_6,0.4694189,527.6662532,None,happy,0,Sad,528.1410951,None,None,528.1410951,None,,,,,,,,,,,,,,,,,,,,,,,,,,,,,,,,,,,,,,,,,,,,,,,,,,,,,40,1,0,20,380,380,2022_Nov_14_1331,Experiment,2021.1.4,360.1695678
images\S8_M_H_03.png,images\S8_M_H_03_scrambled.png,8,happy,30,male,6,,345,on,2,0.5,0.75,0.5,0.787,3,344,3,1,1,2,2,32,128,166,,,,,,0,76,76,76,,,,,,,,,,,,,,,,,,,,,,,,,,,,,,,,,,,,,,,,,,,,,,,,,,,,,,,,,528.2049296,528.7047824,528.7047824,529.4545696,529.4545696,529.9543835,529.9543835,530.7458483,530.7458483,None,num_6,0.3736454,530.7458483,None,happy,0,Happy,531.142916,None,None,531.142916,None,,,,,,,,,,,,,,,,,,,,,,,,,,,,,,,,,,,,,,,,,,,,,,,,,,,,,40,1,0,20,380,380,2022_Nov_14_1331,Experiment,2021.1.4,360.1695678
images\S1_F_H_01.png,images\S1_F_H_01_scrambled.png,1,happy,10,female,4,,1,off,1,0.5,0.75,0.5,0.759,3,0,1,1,1,0,0,0,0,4,,,,,,0,77,77,77,,,,,,,,,,,,,,,,,,,,,,,,,,,,,,,,,,,,,,,,,,,,,,,,,,,,,,,,,531.1956875,531.7011078,531.7011078,532.4536689,532.4536689,532.9535003,532.9535003,533.7143602,533.7143602,None,num_6,0.4371034,533.7143602,None,happy,0,Happy,534.1641843,None,None,534.1641843,None,,,,,,,,,,,,,,,,,,,,,,,,,,,,,,,,,,,,,,,,,,,,,,,,,,,,,40,1,0,20,380,380,2022_Nov_14_1331,Experiment,2021.1.4,360.1695678
images\S4_M_H_01.png,images\S4_M_H_01_scrambled.png,4,happy,10,male,4,,19,off,1,0.5,0.75,0.5,0.934,3,18,2,1,2,0,0,0,0,4,,,,,,0,78,78,78,,,,,,,,,,,,,,,,,,,,,,,,,,,,,,,,,,,,,,,,,,,,,,,,,,,,,,,,,534.2724972,534.7751391,534.7751391,535.5304828,535.5304828,536.0331187,536.0331187,536.9689362,536.9689362,None,num_6,0.5749552,536.9689362,None,happy,0,Happy,537.5660595,None,None,537.5660595,None,,,,,,,,,,,,,,,,,,,,,,,,,,,,,,,,,,,,,,,,,,,,,,,,,,,,,40,1,0,20,380,380,2022_Nov_14_1331,Experiment,2021.1.4,360.1695678
images\S3_F_S_02.png,images\S3_F_S_02_scrambled.png,3,sad,-20,female,2,,497,off,1,0.5,0.75,0.5,0.803,3,496,3,1,1,0,0,0,0,2,,,,,,0,79,79,79,,,,,,,,,,,,,,,,,,,,,,,,,,,,,,,,,,,,,,,,,,,,,,,,,,,,,,,,,537.6520077,538.1547688,538.1547688,538.9044324,538.9044324,539.4042685,539.4042685,540.2096825,540.2096825,None,num_4,0.6457182,540.2096825,None,sad,0,Sad,540.8676744,None,None,540.8676744,None,,,,,,,,,,,,,,,,,,,,,,,,,,,,,,,,,,,,,,,,,,,,,,,,,,,,,40,1,0,20,380,380,2022_Nov_14_1331,Experiment,2021.1.4,360.1695678
images\S3_F_S_03.png,images\S3_F_S_03_scrambled.png,3,sad,-30,female,1,,18,off,1,0.5,0.75,0.5,0.753,3,17,4,2,1,0,0,0,0,1,,,,,,0,80,80,80,,,,,,,,,,,,,,,,,,,,,,,,,,,,,,,,,,,,,,,,,,,,,,,,,,,,,,,,,540.9509895,541.4564174,541.4564174,542.2117515,542.2117515,542.7115785,542.7115785,543.4669046,543.4669046,None,num_4,0.4533998,543.4669046,None,sad,0,Sad,543.9334718,None,None,543.9334718,None,,,,,,,,,,,,,,,,,,,,,,,,,,,,,,,,,,,,,,,,,,,,,,,,,,,,,40,1,0,20,380,380,2022_Nov_14_1331,Experiment,2021.1.4,360.1695678
images\S3_F_S_02.png,images\S3_F_S_02_scrambled.png,3,sad,-20,female,2,,557,on,2,0.5,0.75,0.5,0.927,3,556,1,3,1,2,2,32,128,162,,,,,,0,81,81,81,,,,,,,,,,,,,,,,,,,,,,,,,,,,,,,,,,,,,,,,,,,,,,,,,,,,,,,,,543.9806022,544.4832227,544.4832227,545.2358268,545.2358268,545.738448,545.738448,546.6714675,546.6714675,None,num_4,0.4163533,546.6714675,None,sad,0,Sad,547.0991504,None,None,547.0991504,None,,,,,,,,,,,,,,,,,,,,,,,,,,,,,,,,,,,,,,,,,,,,,,,,,,,,,40,1,0,20,380,380,2022_Nov_14_1331,Experiment,2021.1.4,360.1695678
images\S2_M_S_02.png,images\S2_M_S_02_scrambled.png,2,sad,-20,male,2,,311,on,2,0.5,0.75,0.5,0.863,3,310,2,1,2,2,2,32,128,162,,,,,,0,82,82,82,,,,,,,,,,,,,,,,,,,,,,,,,,,,,,,,,,,,,,,,,,,,,,,,,,,,,,,,,547.1823936,547.6850312,547.6850312,548.4404257,548.4404257,548.9430143,548.9430143,549.8121535,549.8121535,None,num_4,0.4992647,549.8121535,None,sad,0,Sad,550.3230693,None,None,550.3230693,None,,,,,,,,,,,,,,,,,,,,,,,,,,,,,,,,,,,,,,,,,,,,,,,,,,,,,40,1,0,20,380,380,2022_Nov_14_1331,Experiment,2021.1.4,360.1695678
images\S7_F_S_03.png,images\S7_F_S_03_scrambled.png,7,sad,-30,female,1,,402,off,1,0.5,0.75,0.5,0.918,3,401,1,1,1,0,0,0,0,1,,,,,,0,83,83,83,,,,,,,,,,,,,,,,,,,,,,,,,,,,,,,,,,,,,,,,,,,,,,,,,,,,,,,,,550.4063985,550.9118242,550.9118242,551.6615635,551.6615635,552.1614396,552.1614396,553.0861625,553.0861625,None,num_6,0.6252962,553.0861625,None,happy,0,Sad,553.7164947,None,None,553.7164947,None,,,,,,,,,,,,,,,,,,,,,,,,,,,,,,,,,,,,,,,,,,,,,,,,,,,,,40,1,0,20,380,380,2022_Nov_14_1331,Experiment,2021.1.4,360.1695678
images\S2_M_H_01.png,images\S2_M_H_01_scrambled.png,2,happy,10,male,4,,307,on,2,0.5,0.75,0.5,0.856,3,306,1,1,1,2,2,32,128,164,,,,,,0,84,84,84,,,,,,,,,,,,,,,,,,,,,,,,,,,,,,,,,,,,,,,,,,,,,,,,,,,,,,,,,553.7775729,554.2802815,554.2802815,555.0355837,555.0355837,555.5409576,555.5409576,556.3990245,556.3990245,None,num_6,0.496348,556.3990245,None,happy,0,Happy,556.9099522,None,None,556.9099522,None,,,,,,,,,,,,,,,,,,,,,,,,,,,,,,,,,,,,,,,,,,,,,,,,,,,,,40,1,0,20,380,380,2022_Nov_14_1331,Experiment,2021.1.4,360.1695678
images\S7_F_H_01.png,images\S7_F_H_01_scrambled.png,7,happy,10,female,4,,337,on,2,0.5,0.75,0.5,0.939,3,336,2,1,2,2,2,32,128,164,,,,,,0,85,85,85,,,,,,,,,,,,,,,,,,,,,,,,,,,,,,,,,,,,,,,,,,,,,,,,,,,,,,,,,556.9571541,557.4599001,557.4599001,558.2095397,558.2095397,558.7121599,558.7121599,559.6535863,559.6535863,None,num_6,0.354056,559.6535863,None,happy,0,Happy,560.022974,None,None,560.022974,None,,,,,,,,,,,,,,,,,,,,,,,,,,,,,,,,,,,,,,,,,,,,,,,,,,,,,40,1,0,20,380,380,2022_Nov_14_1331,Experiment,2021.1.4,360.1695678
images\blank.jpg,images\blank.jpg,none,none,none,none,0,,603,on,2,0.5,0.75,0.5,0.94,0,602,3,1,1,3,3,48,192,240,,,,,,0,86,86,86,,,,,,,,,,,,,,,,,,,,,,,,,,,,,,,,,,,,,,,,,,,,,,,,,,,,,,,,,560.1092112,560.6116038,560.6116038,561.3641617,561.3641617,561.8639721,561.8639721,562.8053204,562.8053204,562.8053204,None,,562.8053204,None,miss,0,,565.8100709,None,None,565.8100709,None,,,,,,,,,,,,,,,,,,,,,,,,,,,,,,,,,,,,,,,,,,,,,,,,,,,,,40,1,0,20,380,380,2022_Nov_14_1331,Experiment,2021.1.4,360.1695678
images\S2_M_H_03.png,images\S2_M_H_03_scrambled.png,2,happy,30,male,6,,549,on,2,0.5,0.75,0.5,0.795,3,548,4,1,1,2,2,32,128,166,,,,,,0,87,87,87,,,,,,,,,,,,,,,,,,,,,,,,,,,,,,,,,,,,,,,,,,,,,,,,,,,,,,,,,565.9823942,566.4848799,566.4848799,567.2345242,567.2345242,567.7343975,567.7343975,568.531373,568.531373,None,num_6,0.5404174,568.531373,565.9823942,happy,0,Happy,569.0839631,None,None,569.0839631,None,,,,,,,,,,,,,,,,,,,,,,,,,,,,,,,,,,,,,,,,,,,,,,,,,,,,,40,1,0,20,380,380,2022_Nov_14_1331,Experiment,2021.1.4,360.1695678
images\S3_F_S_03.png,images\S3_F_S_03_scrambled.png,3,sad,-30,female,1,,258,off,1,0.5,0.75,0.5,0.793,3,257,1,1,1,0,0,0,0,1,,,,,,0,88,88,88,,,,,,,,,,,,,,,,,,,,,,,,,,,,,,,,,,,,,,,,,,,,,,,,,,,,,,,,,569.1311609,569.6365831,569.6365831,570.3891387,570.3891387,570.888987,570.888987,571.6859651,571.6859651,None,num_4,0.4175949,571.6859651,None,sad,0,Sad,572.1136634,None,None,572.1136634,None,,,,,,,,,,,,,,,,,,,,,,,,,,,,,,,,,,,,,,,,,,,,,,,,,,,,,40,1,0,20,380,380,2022_Nov_14_1331,Experiment,2021.1.4,360.1695678
images\S8_M_S_01.png,images\S8_M_S_01_scrambled.png,8,sad,-10,male,3,,346,on,2,0.5,0.75,0.5,0.773,3,345,1,1,1,2,2,32,128,163,,,,,,0,89,89,89,,,,,,,,,,,,,,,,,,,,,,,,,,,,,,,,,,,,,,,,,,,,,,,,,,,,,,,,,572.1607817,572.6606177,572.6606177,573.4103984,573.4103984,573.9130666,573.9130666,574.6906253,574.6906253,None,num_6,0.4528148,574.6906253,None,happy,0,Sad,575.1514836,None,None,575.1514836,None,,,,,,,,,,,,,,,,,,,,,,,,,,,,,,,,,,,,,,,,,,,,,,,,,,,,,40,1,0,20,380,380,2022_Nov_14_1331,Experiment,2021.1.4,360.1695678
images\S10_M_H_03.png,images\S10_M_H_03_scrambled.png,10,happy,30,male,6,,357,on,2,0.5,0.75,0.5,0.835,3,356,2,1,1,2,2,32,128,166,,,,,,0,90,90,90,,,,,,,,,,,,,,,,,,,,,,,,,,,,,,,,,,,,,,,,,,,,,,,,,,,,,,,,,575.2570416,575.7596621,575.7596621,576.509471,576.509471,577.0093069,577.0093069,577.8507197,577.8507197,None,num_6,0.4446865,577.8507197,None,happy,0,Happy,578.3088496,None,None,578.3088496,None,,,,,,,,,,,,,,,,,,,,,,,,,,,,,,,,,,,,,,,,,,,,,,,,,,,,,40,1,0,20,380,380,2022_Nov_14_1331,Experiment,2021.1.4,360.1695678
images\S3_F_S_01.png,images\S3_F_S_01_scrambled.png,3,sad,-10,female,3,,376,off,1,0.5,0.75,0.5,0.793,3,375,1,1,1,0,0,0,0,3,,,,,,0,91,91,91,,,,,,,,,,,,,,,,,,,,,,,,,,,,,,,,,,,,,,,,,,,,,,,,,,,,,,,,,578.3560808,578.8615156,578.8615156,579.6140571,579.6140571,580.1139043,580.1139043,580.9108875,580.9108875,None,num_4,0.4087524,580.9108875,None,sad,0,Sad,581.3302609,None,None,581.3302609,None,,,,,,,,,,,,,,,,,,,,,,,,,,,,,,,,,,,,,,,,,,,,,,,,,,,,,40,1,0,20,380,380,2022_Nov_14_1331,Experiment,2021.1.4,360.1695678
images\S6_M_H_01.png,images\S6_M_H_01_scrambled.png,6,happy,10,male,4,,571,on,2,0.5,0.75,0.5,0.849,3,570,1,1,1,2,2,32,128,164,,,,,,0,92,92,92,,,,,,,,,,,,,,,,,,,,,,,,,,,,,,,,,,,,,,,,,,,,,,,,,,,,,,,,,581.3773727,581.8801028,581.8801028,582.6297805,582.6297805,583.1352678,583.1352678,583.9905021,583.9905021,None,num_4,0.4567384,583.9905021,None,sad,0,Happy,584.4569751,None,None,584.4569751,None,,,,,,,,,,,,,,,,,,,,,,,,,,,,,,,,,,,,,,,,,,,,,,,,,,,,,40,1,0,20,380,380,2022_Nov_14_1331,Experiment,2021.1.4,360.1695678
images\S4_M_H_01.png,images\S4_M_H_01_scrambled.png,4,happy,10,male,4,,139,off,1,0.5,0.75,0.5,0.91,3,138,1,1,2,0,0,0,0,4,,,,,,0,93,93,93,,,,,,,,,,,,,,,,,,,,,,,,,,,,,,,,,,,,,,,,,,,,,,,,,,,,,,,,,584.5041888,585.0040566,585.0040566,585.7565711,585.7565711,586.2564545,586.2564545,587.1701605,587.1701605,None,num_4,0.3813514,587.1701605,None,sad,0,Happy,587.5587622,None,None,587.5587622,None,,,,,,,,,,,,,,,,,,,,,,,,,,,,,,,,,,,,,,,,,,,,,,,,,,,,,40,1,0,20,380,380,2022_Nov_14_1331,Experiment,2021.1.4,360.1695678
images\blank.jpg,images\blank.jpg,none,none,none,none,0,,645,on,2,0.5,0.75,0.5,0.861,0,644,1,1,1,3,3,48,192,240,,,,,,0,94,94,94,,,,,,,,,,,,,,,,,,,,,,,,,,,,,,,,,,,,,,,,,,,,,,,,,,,,,,,,,587.6395588,588.1419657,588.1419657,588.8945273,588.8945273,589.3971335,589.3971335,590.2580073,590.2580073,590.2580073,None,,590.2580073,None,miss,0,,593.2598135,None,None,593.2598135,None,,,,,,,,,,,,,,,,,,,,,,,,,,,,,,,,,,,,,,,,,,,,,,,,,,,,,40,1,0,20,380,380,2022_Nov_14_1331,Experiment,2021.1.4,360.1695678
images\S3_F_H_01.png,images\S3_F_H_01_scrambled.png,3,happy,10,female,4,,13,off,1,0.5,0.75,0.5,0.759,3,12,1,1,1,0,0,0,0,4,,,,,,0,95,95,95,,,,,,,,,,,,,,,,,,,,,,,,,,,,,,,,,,,,,,,,,,,,,,,,,,,,,,,,,593.3709624,593.8763102,593.8763102,594.6288727,594.6288727,595.1287188,595.1287188,595.8895719,595.8895719,None,num_6,0.3659802,595.8895719,593.3709624,happy,0,Happy,596.2699813,None,None,596.2699813,None,,,,,,,,,,,,,,,,,,,,,,,,,,,,,,,,,,,,,,,,,,,,,,,,,,,,,40,1,0,20,380,380,2022_Nov_14_1331,Experiment,2021.1.4,360.1695678
images\S10_M_S_02.png,images\S10_M_S_02_scrambled.png,10,sad,-20,male,2,,599,on,2,0.5,0.75,0.5,0.822,3,598,1,1,1,2,2,32,128,162,,,,,,0,96,96,96,,,,,,,,,,,,,,,,,,,,,,,,,,,,,,,,,,,,,,,,,,,,,,,,,,,,,,,,,596.3144199,596.8170377,596.8170377,597.5696152,597.5696152,598.0694489,598.0694489,598.8969637,598.8969637,None,num_6,0.3827298,598.8969637,None,happy,0,Sad,599.2858062,None,None,599.2858062,None,,,,,,,,,,,,,,,,,,,,,,,,,,,,,,,,,,,,,,,,,,,,,,,,,,,,,40,1,0,20,380,380,2022_Nov_14_1331,Experiment,2021.1.4,360.1695678
images\S8_M_H_03.png,images\S8_M_H_03_scrambled.png,8,happy,30,male,6,,165,off,1,0.5,0.75,0.5,0.838,3,164,1,1,1,0,0,0,0,6,,,,,,0,97,97,97,,,,,,,,,,,,,,,,,,,,,,,,,,,,,,,,,,,,,,,,,,,,,,,,,,,,,,,,,599.3495933,599.8494332,599.8494332,600.5992358,600.5992358,601.0990495,601.0990495,601.9405256,601.9405256,None,num_6,0.4027958,601.9405256,None,happy,0,Happy,602.3542132,None,None,602.3542132,None,,,,,,,,,,,,,,,,,,,,,,,,,,,,,,,,,,,,,,,,,,,,,,,,,,,,,40,1,0,20,380,380,2022_Nov_14_1331,Experiment,2021.1.4,360.1695678
images\blank.jpg,images\blank.jpg,none,none,none,none,0,,606,on,2,0.5,0.75,0.5,0.84,0,605,1,1,1,3,3,48,192,240,,,,,,0,98,98,98,,,,,,,,,,,,,,,,,,,,,,,,,,,,,,,,,,,,,,,,,,,,,,,,,,,,,,,,,602.4349619,602.9373898,602.9373898,603.6899358,603.6899358,604.1925516,604.1925516,605.0339713,605.0339713,605.0339713,None,,605.0339713,None,miss,0,,608.0357875,None,None,608.0357875,None,,,,,,,,,,,,,,,,,,,,,,,,,,,,,,,,,,,,,,,,,,,,,,,,,,,,,40,1,0,20,380,380,2022_Nov_14_1331,Experiment,2021.1.4,360.1695678
images\S5_F_H_01.png,images\S5_F_H_01_scrambled.png,5,happy,10,female,4,,265,off,1,0.5,0.75,0.5,0.803,3,264,1,1,1,0,0,0,0,4,,,,,,0,99,99,99,,,,,,,,,,,,,,,,,,,,,,,,,,,,,,,,,,,,,,,,,,,,,,,,,,,,,,,,,608.1498631,608.6495205,608.6495205,609.39926,609.39926,609.901918,609.901918,610.7072095,610.7072095,None,num_6,0.4841651,610.7072095,608.1498631,happy,0,Happy,611.2015416,None,None,611.2015416,None,,,,,,,,,,,,,,,,,,,,,,,,,,,,,,,,,,,,,,,,,,,,,,,,,,,,,40,1,0,20,380,380,2022_Nov_14_1331,Experiment,2021.1.4,360.1695678
images\S9_F_H_02.png,images\S9_F_H_02_scrambled.png,9,happy,20,female,5,,230,on,2,0.5,0.75,0.5,0.828,3,229,1,1,1,2,2,32,128,165,,,,,,0,100,100,100,,,,,,,,,,,,,,,,,,,,,,,,,,,,,,,,,,,,,,,,,,,,,,,,,,,,,,,,,611.3125567,611.8152723,611.8152723,612.5705521,612.5705521,613.0759409,613.0759409,613.9062271,613.9062271,None,num_6,0.4131047,613.9062271,None,happy,0,Happy,614.3310806,None,None,614.3310806,None,,,,,,,,,,,,,,,,,,,,,,,,,,,,,,,,,,,,,,,,,,,,,,,,,,,,,40,1,0,20,380,380,2022_Nov_14_1331,Experiment,2021.1.4,360.1695678
images\S3_F_H_02.png,images\S3_F_H_02_scrambled.png,3,happy,20,female,5,,554,on,2,0.5,0.75,0.5,0.826,3,553,2,1,2,2,2,32,128,165,,,,,,0,101,101,101,,,,,,,,,,,,,,,,,,,,,,,,,,,,,,,,,,,,,,,,,,,,,,,,,,,,,,,,,614.4365922,614.9364322,614.9364322,615.6890356,615.6890356,616.191633,616.191633,617.0191263,617.0191263,None,num_6,0.308015,617.0191263,None,happy,0,Happy,617.3384955,None,None,617.3384955,None,,,,,,,,,,,,,,,,,,,,,,,,,,,,,,,,,,,,,,,,,,,,,,,,,,,,,40,1,0,20,380,380,2022_Nov_14_1331,Experiment,2021.1.4,360.1695678
images\S3_F_S_02.png,images\S3_F_S_02_scrambled.png,3,sad,-20,female,2,,77,on,2,0.5,0.75,0.5,0.781,3,76,3,2,1,2,2,32,128,162,,,,,,0,102,102,102,,,,,,,,,,,,,,,,,,,,,,,,,,,,,,,,,,,,,,,,,,,,,,,,,,,,,,,,,617.382902,617.8855791,617.8855791,618.638132,618.638132,619.1379395,619.1379395,619.9210449,619.9210449,None,num_4,0.2865645,619.9210449,None,sad,0,Sad,620.2375597,None,None,620.2375597,None,,,,,,,,,,,,,,,,,,,,,,,,,,,,,,,,,,,,,,,,,,,,,,,,,,,,,40,1,0,20,380,380,2022_Nov_14_1331,Experiment,2021.1.4,360.1695678
images\S3_F_S_03.png,images\S3_F_S_03_scrambled.png,3,sad,-30,female,1,,558,on,2,0.5,0.75,0.5,0.775,3,557,4,3,1,2,2,32,128,161,,,,,,0,103,103,103,,,,,,,,,,,,,,,,,,,,,,,,,,,,,,,,,,,,,,,,,,,,,,,,,,,,,,,,,620.2903469,620.7957854,620.7957854,621.5483355,621.5483355,622.0481807,622.0481807,622.8257133,622.8257133,None,num_4,0.429762,622.8257133,None,sad,0,Sad,623.2699033,None,None,623.2699033,None,,,,,,,,,,,,,,,,,,,,,,,,,,,,,,,,,,,,,,,,,,,,,,,,,,,,,40,1,0,20,380,380,2022_Nov_14_1331,Experiment,2021.1.4,360.1695678
images\S10_M_S_01.png,images\S10_M_S_01_scrambled.png,10,sad,-10,male,3,,178,off,1,0.5,0.75,0.5,0.853,3,177,1,1,1,0,0,0,0,3,,,,,,0,104,104,104,,,,,,,,,,,,,,,,,,,,,,,,,,,,,,,,,,,,,,,,,,,,,,,,,,,,,,,,,623.3144014,623.8170435,623.8170435,624.5695983,624.5695983,625.0694408,625.0694408,625.9248316,625.9248316,None,num_6,0.2749578,625.9248316,None,happy,0,Sad,626.2079211,None,None,626.2079211,None,,,,,,,,,,,,,,,,,,,,,,,,,,,,,,,,,,,,,,,,,,,,,,,,,,,,,40,1,0,20,380,380,2022_Nov_14_1331,Experiment,2021.1.4,360.1695678
images\S1_F_S_03.png,images\S1_F_S_03_scrambled.png,1,sad,-30,female,1,,186,on,2,0.5,0.75,0.5,0.882,3,185,1,1,1,2,2,32,128,161,,,,,,0,105,105,105,,,,,,,,,,,,,,,,,,,,,,,,,,,,,,,,,,,,,,,,,,,,,,,,,,,,,,,,,626.2551729,626.7605954,626.7605954,627.5131574,627.5131574,628.0130038,628.0130038,628.8989053,628.8989053,None,num_4,0.2445672,628.8989053,None,sad,0,Sad,629.1570035,None,None,629.1570035,None,,,,,,,,,,,,,,,,,,,,,,,,,,,,,,,,,,,,,,,,,,,,,,,,,,,,,40,1,0,20,380,380,2022_Nov_14_1331,Experiment,2021.1.4,360.1695678
images\S4_M_S_03.png,images\S4_M_S_03_scrambled.png,4,sad,-30,male,1,,324,on,2,0.5,0.75,0.5,0.865,3,323,2,1,2,2,2,32,128,161,,,,,,0,106,106,106,,,,,,,,,,,,,,,,,,,,,,,,,,,,,,,,,,,,,,,,,,,,,,,,,,,,,,,,,629.2209075,629.7263355,629.7263355,630.4788816,630.4788816,630.9787374,630.9787374,631.8450944,631.8450944,None,num_4,0.4022179,631.8450944,None,sad,0,Sad,632.2588769,None,None,632.2588769,None,,,,,,,,,,,,,,,,,,,,,,,,,,,,,,,,,,,,,,,,,,,,,,,,,,,,,40,1,0,20,380,380,2022_Nov_14_1331,Experiment,2021.1.4,360.1695678
images\S7_F_S_01.png,images\S7_F_S_01_scrambled.png,7,sad,-10,female,3,,280,off,1,0.5,0.75,0.5,0.918,3,279,1,1,1,0,0,0,0,3,,,,,,0,107,107,107,,,,,,,,,,,,,,,,,,,,,,,,,,,,,,,,,,,,,,,,,,,,,,,,,,,,,,,,,632.3060612,632.8114901,632.8114901,633.5640385,633.5640385,634.0638857,634.0638857,634.9858334,634.9858334,None,num_6,0.4298393,634.9858334,None,happy,0,Sad,635.421815,None,None,635.421815,None,,,,,,,,,,,,,,,,,,,,,,,,,,,,,,,,,,,,,,,,,,,,,,,,,,,,,40,1,0,20,380,380,2022_Nov_14_1331,Experiment,2021.1.4,360.1695678
images\S7_F_S_01.png,images\S7_F_S_01_scrambled.png,7,sad,-10,female,3,,220,on,2,0.5,0.75,0.5,0.927,3,219,1,2,2,2,2,32,128,163,,,,,,0,108,108,108,,,,,,,,,,,,,,,,,,,,,,,,,,,,,,,,,,,,,,,,,,,,,,,,,,,,,,,,,635.4800897,635.9855437,635.9855437,636.738082,636.738082,637.2406936,637.2406936,638.1709559,638.1709559,None,num_4,0.3722341,638.1709559,None,sad,0,Sad,638.5597235,None,None,638.5597235,None,,,,,,,,,,,,,,,,,,,,,,,,,,,,,,,,,,,,,,,,,,,,,,,,,,,,,40,1,0,20,380,380,2022_Nov_14_1331,Experiment,2021.1.4,360.1695678
images\S1_F_S_03.png,images\S1_F_S_03_scrambled.png,1,sad,-30,female,1,,486,off,1,0.5,0.75,0.5,0.875,3,485,1,1,1,0,0,0,0,1,,,,,,0,109,109,109,,,,,,,,,,,,,,,,,,,,,,,,,,,,,,,,,,,,,,,,,,,,,,,,,,,,,,,,,638.6068938,639.1123105,639.1123105,639.8649639,639.8649639,640.3703007,640.3703007,641.2505582,641.2505582,None,num_4,0.3006289,641.2505582,None,sad,0,Sad,641.5642853,None,None,641.5642853,None,,,,,,,,,,,,,,,,,,,,,,,,,,,,,,,,,,,,,,,,,,,,,,,,,,,,,40,1,0,20,380,380,2022_Nov_14_1331,Experiment,2021.1.4,360.1695678
images\S10_M_H_02.png,images\S10_M_H_02_scrambled.png,10,happy,20,male,5,,536,off,1,0.5,0.75,0.5,0.893,3,535,2,1,1,0,0,0,0,5,,,,,,0,110,110,110,,,,,,,,,,,,,,,,,,,,,,,,,,,,,,,,,,,,,,,,,,,,,,,,,,,,,,,,,641.608747,642.1113973,642.1113973,642.8639318,642.8639318,643.3637397,643.3637397,644.2607424,644.2607424,None,num_6,0.3946192,644.2607424,None,happy,0,Happy,644.6688703,None,None,644.6688703,None,,,,,,,,,,,,,,,,,,,,,,,,,,,,,,,,,,,,,,,,,,,,,,,,,,,,,40,1,0,20,380,380,2022_Nov_14_1331,Experiment,2021.1.4,360.1695678
images\S3_F_S_01.png,images\S3_F_S_01_scrambled.png,3,sad,-10,female,3,,16,off,1,0.5,0.75,0.5,0.812,3,15,3,1,1,0,0,0,0,3,,,,,,0,111,111,111,,,,,,,,,,,,,,,,,,,,,,,,,,,,,,,,,,,,,,,,,,,,,,,,,,,,,,,,,644.7161217,645.2215416,645.2215416,645.9712809,645.9712809,646.4711567,646.4711567,647.2903805,647.2903805,None,num_4,0.53336,647.2903805,None,sad,0,Sad,647.8375192,None,None,647.8375192,None,,,,,,,,,,,,,,,,,,,,,,,,,,,,,,,,,,,,,,,,,,,,,,,,,,,,,40,1,0,20,380,380,2022_Nov_14_1331,Experiment,2021.1.4,360.1695678
images\S9_F_S_02.png,images\S9_F_S_02_scrambled.png,9,sad,-20,female,2,,473,on,2,0.5,0.75,0.5,0.932,3,472,1,1,1,2,2,32,128,162,,,,,,0,112,112,112,,,,,,,,,,,,,,,,,,,,,,,,,,,,,,,,,,,,,,,,,,,,,,,,,,,,,,,,,647.9456762,648.4511123,648.4511123,649.2036599,649.2036599,649.7062729,649.7062729,650.6420867,650.6420867,None,num_4,0.5975728,650.6420867,None,sad,0,Sad,651.2502856,None,None,651.2502856,None,,,,,,,,,,,,,,,,,,,,,,,,,,,,,,,,,,,,,,,,,,,,,,,,,,,,,40,1,0,20,380,380,2022_Nov_14_1331,Experiment,2021.1.4,360.1695678
images\S2_M_H_01.png,images\S2_M_H_01_scrambled.png,2,happy,10,male,4,,127,off,1,0.5,0.75,0.5,0.751,3,126,1,1,1,0,0,0,0,4,,,,,,0,113,113,113,,,,,,,,,,,,,,,,,,,,,,,,,,,,,,,,,,,,,,,,,,,,,,,,,,,,,,,,,651.2974235,651.8001461,651.8001461,652.5554203,652.5554203,653.0607992,653.0607992,653.8161264,653.8161264,None,num_6,0.3033751,653.8161264,None,happy,0,Happy,654.1326951,None,None,654.1326951,None,,,,,,,,,,,,,,,,,,,,,,,,,,,,,,,,,,,,,,,,,,,,,,,,,,,,,40,1,0,20,380,380,2022_Nov_14_1331,Experiment,2021.1.4,360.1695678
images\S9_F_H_03.png,images\S9_F_H_03_scrambled.png,9,happy,30,female,6,,591,on,2,0.5,0.75,0.5,0.814,3,590,1,1,1,2,2,32,128,166,,,,,,0,114,114,114,,,,,,,,,,,,,,,,,,,,,,,,,,,,,,,,,,,,,,,,,,,,,,,,,,,,,,,,,654.1770777,654.6797211,654.6797211,655.4351297,655.4351297,655.9404652,655.9404652,656.7568587,656.7568587,None,num_6,0.4744097,656.7568587,None,happy,0,Happy,657.2428142,None,None,657.2428142,None,,,,,,,,,,,,,,,,,,,,,,,,,,,,,,,,,,,,,,,,,,,,,,,,,,,,,40,1,0,20,380,380,2022_Nov_14_1331,Experiment,2021.1.4,360.1695678
images\S9_F_S_01.png,images\S9_F_S_01_scrambled.png,9,sad,-10,female,3,,112,on,2,0.5,0.75,0.5,0.906,3,111,2,2,1,2,2,32,128,163,,,,,,0,115,115,115,,,,,,,,,,,,,,,,,,,,,,,,,,,,,,,,,,,,,,,,,,,,,,,,,,,,,,,,,657.2900519,657.7954567,657.7954567,658.5507635,658.5507635,659.0533887,659.0533887,659.9614261,659.9614261,None,num_6,0.310112,659.9614261,None,happy,0,Sad,660.2780408,None,None,660.2780408,None,,,,,,,,,,,,,,,,,,,,,,,,,,,,,,,,,,,,,,,,,,,,,,,,,,,,,40,1,0,20,380,380,2022_Nov_14_1331,Experiment,2021.1.4,360.1695678
images\S2_M_H_03.png,images\S2_M_H_03_scrambled.png,2,happy,30,male,6,,429,on,2,0.5,0.75,0.5,0.763,3,428,3,1,1,2,2,32,128,166,,,,,,0,116,116,116,,,,,,,,,,,,,,,,,,,,,,,,,,,,,,,,,,,,,,,,,,,,,,,,,,,,,,,,,660.3390634,660.8389406,660.8389406,661.5887019,661.5887019,662.0885514,662.0885514,662.8550533,662.8550533,None,num_6,0.2800705,662.8550533,None,happy,0,Happy,663.1631978,None,None,663.1631978,None,,,,,,,,,,,,,,,,,,,,,,,,,,,,,,,,,,,,,,,,,,,,,,,,,,,,,40,1,0,20,380,380,2022_Nov_14_1331,Experiment,2021.1.4,360.1695678
images\S7_F_S_03.png,images\S7_F_S_03_scrambled.png,7,sad,-30,female,1,,342,on,2,0.5,0.75,0.5,0.867,3,341,4,1,1,2,2,32,128,161,,,,,,0,117,117,117,,,,,,,,,,,,,,,,,,,,,,,,,,,,,,,,,,,,,,,,,,,,,,,,,,,,,,,,,663.221445,663.7213466,663.7213466,664.4738927,664.4738927,664.9737816,664.9737816,665.8457306,665.8457306,None,num_4,0.2336675,665.8457306,None,sad,0,Sad,666.0928114,None,None,666.0928114,None,,,,,,,,,,,,,,,,,,,,,,,,,,,,,,,,,,,,,,,,,,,,,,,,,,,,,40,1,0,20,380,380,2022_Nov_14_1331,Experiment,2021.1.4,360.1695678
images\S5_F_S_02.png,images\S5_F_S_02_scrambled.png,5,sad,-20,female,2,,569,on,2,0.5,0.75,0.5,0.903,3,568,5,1,1,2,2,32,128,162,,,,,,0,118,118,118,,,,,,,,,,,,,,,,,,,,,,,,,,,,,,,,,,,,,,,,,,,,,,,,,,,,,,,,,666.1372729,666.6400357,666.6400357,667.3896881,667.3896881,667.8951484,667.8951484,668.800392,668.800392,None,num_6,0.2387179,668.800392,None,happy,0,Sad,669.0474976,None,None,669.0474976,None,,,,,,,,,,,,,,,,,,,,,,,,,,,,,,,,,,,,,,,,,,,,,,,,,,,,,40,1,0,20,380,380,2022_Nov_14_1331,Experiment,2021.1.4,360.1695678
images\S5_F_S_03.png,images\S5_F_S_03_scrambled.png,5,sad,-30,female,1,,570,on,2,0.5,0.75,0.5,0.8,3,569,6,2,1,2,2,32,128,161,,,,,,0,119,119,119,,,,,,,,,,,,,,,,,,,,,,,,,,,,,,,,,,,,,,,,,,,,,,,,,,,,,,,,,669.1558165,669.6612074,669.6612074,670.4137605,670.4137605,670.9135717,670.9135717,671.7161266,671.7161266,None,num_4,0.3713265,671.7161266,None,sad,0,Sad,672.1021308,None,None,672.1021308,None,,,,,,,,,,,,,,,,,,,,,,,,,,,,,,,,,,,,,,,,,,,,,,,,,,,,,40,1,0,20,380,380,2022_Nov_14_1331,Experiment,2021.1.4,360.1695678
images\S5_F_S_01.png,images\S5_F_S_01_scrambled.png,5,sad,-10,female,3,,148,off,1,0.5,0.75,0.5,0.823,3,147,1,3,1,0,0,0,0,3,,,,,,0,120,120,120,,,,,,,,,,,,,,,,,,,,,,,,,,,,,,,,,,,,,,,,,,,,,,,,,,,,,,,,,672.1493004,672.6491617,672.6491617,673.398938,673.398938,673.8987857,673.8987857,674.726304,674.726304,None,num_6,0.384757,674.726304,None,happy,0,Sad,675.1177659,None,None,675.1177659,None,,,,,,,,,,,,,,,,,,,,,,,,,,,,,,,,,,,,,,,,,,,,,,,,,,,,,40,1,0,20,380,380,2022_Nov_14_1331,Experiment,2021.1.4,360.1695678
images\S4_M_S_02.png,images\S4_M_S_02_scrambled.png,4,sad,-20,male,2,,143,off,1,0.5,0.75,0.5,0.898,3,142,2,1,1,0,0,0,0,2,,,,,,0,121,121,121,,,,,,,,,,,,,,,,,,,,,,,,,,,,,,,,,,,,,,,,,,,,,,,,,,,,,,,,,675.1622549,675.665012,675.665012,676.4202565,676.4202565,676.9228758,676.9228758,677.8253817,677.8253817,None,num_4,0.4378325,677.8253817,None,sad,0,Sad,678.2779197,None,None,678.2779197,None,,,,,,,,,,,,,,,,,,,,,,,,,,,,,,,,,,,,,,,,,,,,,,,,,,,,,40,1,0,20,380,380,2022_Nov_14_1331,Experiment,2021.1.4,360.1695678
images\S4_M_S_01.png,images\S4_M_S_01_scrambled.png,4,sad,-10,male,3,,262,off,1,0.5,0.75,0.5,0.908,3,261,3,2,1,0,0,0,0,3,,,,,,0,122,122,122,,,,,,,,,,,,,,,,,,,,,,,,,,,,,,,,,,,,,,,,,,,,,,,,,,,,,,,,,678.3807363,678.88056,678.88056,679.6331363,679.6331363,680.1357548,680.1357548,681.0465528,681.0465528,None,num_4,0.4005786,681.0465528,None,sad,0,Sad,681.4575516,None,None,681.4575516,None,,,,,,,,,,,,,,,,,,,,,,,,,,,,,,,,,,,,,,,,,,,,,,,,,,,,,40,1,0,20,380,380,2022_Nov_14_1331,Experiment,2021.1.4,360.1695678
images\S4_M_S_01.png,images\S4_M_S_01_scrambled.png,4,sad,-10,male,3,,442,on,2,0.5,0.75,0.5,0.898,3,441,1,3,2,2,2,32,128,163,,,,,,0,123,123,123,,,,,,,,,,,,,,,,,,,,,,,,,,,,,,,,,,,,,,,,,,,,,,,,,,,,,,,,,681.5075321,682.0102056,682.0102056,682.7627392,682.7627392,683.2625175,683.2625175,684.1651116,684.1651116,None,num_4,0.353984,684.1651116,None,sad,0,Sad,684.542708,None,None,684.542708,None,,,,,,,,,,,,,,,,,,,,,,,,,,,,,,,,,,,,,,,,,,,,,,,,,,,,,40,1,0,20,380,380,2022_Nov_14_1331,Experiment,2021.1.4,360.1695678
images\S5_F_S_03.png,images\S5_F_S_03_scrambled.png,5,sad,-30,female,1,,330,on,2,0.5,0.75,0.5,0.788,3,329,2,1,1,2,2,32,128,161,,,,,,0,124,124,124,,,,,,,,,,,,,,,,,,,,,,,,,,,,,,,,,,,,,,,,,,,,,,,,,,,,,,,,,684.5954483,685.1008881,685.1008881,685.8534335,685.8534335,686.3532774,686.3532774,687.1448029,687.1448029,None,num_4,0.3342236,687.1448029,None,sad,0,Sad,687.4945489,None,None,687.4945489,None,,,,,,,,,,,,,,,,,,,,,,,,,,,,,,,,,,,,,,,,,,,,,,,,,,,,,40,1,0,20,380,380,2022_Nov_14_1331,Experiment,2021.1.4,360.1695678
images\S1_F_S_02.png,images\S1_F_S_02_scrambled.png,1,sad,-20,female,2,,305,on,2,0.5,0.75,0.5,0.855,3,304,3,1,1,2,2,32,128,162,,,,,,0,125,125,125,,,,,,,,,,,,,,,,,,,,,,,,,,,,,,,,,,,,,,,,,,,,,,,,,,,,,,,,,687.5389889,688.0388565,688.0388565,688.7886365,688.7886365,689.2884256,689.2884256,690.1465278,690.1465278,None,num_6,0.3165307,690.1465278,None,happy,0,Sad,690.4686398,None,None,690.4686398,None,,,,,,,,,,,,,,,,,,,,,,,,,,,,,,,,,,,,,,,,,,,,,,,,,,,,,40,1,0,20,380,380,2022_Nov_14_1331,Experiment,2021.1.4,360.1695678
images\S5_F_S_02.png,images\S5_F_S_02_scrambled.png,5,sad,-20,female,2,,29,off,1,0.5,0.75,0.5,0.904,3,28,1,1,2,0,0,0,0,2,,,,,,0,126,126,126,,,,,,,,,,,,,,,,,,,,,,,,,,,,,,,,,,,,,,,,,,,,,,,,,,,,,,,,,690.51584,691.0184698,691.0184698,691.7682485,691.7682485,692.2681375,692.2681375,693.1761665,693.1761665,None,num_6,0.3111595,693.1761665,None,happy,0,Sad,693.4927302,None,None,693.4927302,None,,,,,,,,,,,,,,,,,,,,,,,,,,,,,,,,,,,,,,,,,,,,,,,,,,,,,40,1,0,20,380,380,2022_Nov_14_1331,Experiment,2021.1.4,360.1695678
images\S4_M_H_01.png,images\S4_M_H_01_scrambled.png,4,happy,10,male,4,,79,on,2,0.5,0.75,0.5,0.943,3,78,1,1,1,2,2,32,128,164,,,,,,0,127,127,127,,,,,,,,,,,,,,,,,,,,,,,,,,,,,,,,,,,,,,,,,,,,,,,,,,,,,,,,,693.5399057,694.0453522,694.0453522,694.7950475,694.7950475,695.3005249,695.3005249,696.244652,696.244652,None,num_6,0.4186,696.244652,None,happy,0,Happy,696.6806382,None,None,696.6806382,None,,,,,,,,,,,,,,,,,,,,,,,,,,,,,,,,,,,,,,,,,,,,,,,,,,,,,40,1,0,20,380,380,2022_Nov_14_1331,Experiment,2021.1.4,360.1695678
images\S5_F_S_02.png,images\S5_F_S_02_scrambled.png,5,sad,-20,female,2,,329,on,2,0.5,0.75,0.5,0.894,3,328,2,1,1,2,2,32,128,162,,,,,,0,128,128,128,,,,,,,,,,,,,,,,,,,,,,,,,,,,,,,,,,,,,,,,,,,,,,,,,,,,,,,,,696.7305866,697.2360106,697.2360106,697.9857455,697.9857455,698.4856262,698.4856262,699.3853798,699.3853798,None,num_6,0.3177153,699.3853798,None,happy,0,Sad,699.7129942,None,None,699.7129942,None,,,,,,,,,,,,,,,,,,,,,,,,,,,,,,,,,,,,,,,,,,,,,,,,,,,,,40,1,0,20,380,380,2022_Nov_14_1331,Experiment,2021.1.4,360.1695678
images\S10_M_H_02.png,images\S10_M_H_02_scrambled.png,10,happy,20,male,5,,356,on,2,0.5,0.75,0.5,0.855,3,355,3,1,1,2,2,32,128,165,,,,,,0,129,129,129,,,,,,,,,,,,,,,,,,,,,,,,,,,,,,,,,,,,,,,,,,,,,,,,,,,,,,,,,699.7574284,700.2601253,700.2601253,701.0154237,701.0154237,701.5152224,701.5152224,702.3733194,702.3733194,None,num_6,0.338081,702.3733194,None,happy,0,Happy,702.7398924,None,None,702.7398924,None,,,,,,,,,,,,,,,,,,,,,,,,,,,,,,,,,,,,,,,,,,,,,,,,,,,,,40,1,0,20,380,380,2022_Nov_14_1331,Experiment,2021.1.4,360.1695678
images\S2_M_S_01.png,images\S2_M_S_01_scrambled.png,2,sad,-10,male,3,,550,on,2,0.5,0.75,0.5,0.765,3,549,4,1,1,2,2,32,128,163,,,,,,0,130,130,130,,,,,,,,,,,,,,,,,,,,,,,,,,,,,,,,,,,,,,,,,,,,,,,,,,,,,,,,,702.7926003,703.2952629,703.2952629,704.0506002,704.0506002,704.5532225,704.5532225,705.3252044,705.3252044,None,num_4,0.2900345,705.3252044,None,sad,0,Sad,705.6306083,None,space,705.6306083,None,27.6320682,,,,,,,,,,,,,,,,,,,,,,,,,,,,,,,,,,,,,,,,,,,,,,,,,,,,40,1,0,20,380,380,2022_Nov_14_1331,Experiment,2021.1.4,360.1695678
images\S4_M_H_03.png,images\S4_M_H_03_scrambled.png,4,happy,30,male,6,,261,off,1,0.5,0.75,0.5,0.819,3,260,1,1,1,0,0,0,0,6,,,,,,0,131,131,131,,,,,,,,,,,,,,,,,,,,,,,,,,,,,,,,,,,,,,,,,,,,,,,,,,,,,,,,,733.3275787,733.8302793,733.8302793,734.5827972,734.5827972,735.0826668,735.0826668,735.904714,735.904714,None,num_6,0.6064662,735.904714,None,happy,0,Happy,736.5321457,None,None,736.5321457,None,,,,,,,,,,,,,,,,,,,,,,,,,,,,,,,,,,,,,,,,,,,,,,,,,,,,,40,1,0,20,380,380,2022_Nov_14_1331,Experiment,2021.1.4,360.1695678
images\S10_M_S_02.png,images\S10_M_S_02_scrambled.png,10,sad,-20,male,2,,299,off,1,0.5,0.75,0.5,0.942,3,298,2,1,1,0,0,0,0,2,,,,,,0,132,132,132,,,,,,,,,,,,,,,,,,,,,,,,,,,,,,,,,,,,,,,,,,,,,,,,,,,,,,,,,736.5849256,737.090371,737.090371,737.8456848,737.8456848,738.3455326,738.3455326,739.2897728,739.2897728,None,num_4,0.3092636,739.2897728,None,sad,0,Sad,739.6089895,None,None,739.6089895,None,,,,,,,,,,,,,,,,,,,,,,,,,,,,,,,,,,,,,,,,,,,,,,,,,,,,,40,1,0,20,380,380,2022_Nov_14_1331,Experiment,2021.1.4,360.1695678
images\blank.jpg,images\blank.jpg,none,none,none,none,0,,601,on,2,0.5,0.75,0.5,0.885,0,600,1,1,1,3,3,48,192,240,,,,,,0,133,133,133,,,,,,,,,,,,,,,,,,,,,,,,,,,,,,,,,,,,,,,,,,,,,,,,,,,,,,,,,739.6897658,740.1950097,740.1950097,740.9502979,740.9502979,741.4556785,741.4556785,742.3414803,742.3414803,742.3414803,None,,742.3414803,None,miss,0,,745.3433665,None,None,745.3433665,None,,,,,,,,,,,,,,,,,,,,,,,,,,,,,,,,,,,,,,,,,,,,,,,,,,,,,40,1,0,20,380,380,2022_Nov_14_1331,Experiment,2021.1.4,360.1695678
images\S3_F_H_03.png,images\S3_F_H_03_scrambled.png,3,happy,30,female,6,,135,off,1,0.5,0.75,0.5,0.764,3,134,1,1,1,0,0,0,0,6,,,,,,0,134,134,134,,,,,,,,,,,,,,,,,,,,,,,,,,,,,,,,,,,,,,,,,,,,,,,,,,,,,,,,,745.4629594,745.9654235,745.9654235,746.7207253,746.7207253,747.2205111,747.2205111,747.9898317,747.9898317,None,num_6,0.3131725,747.9898317,745.4629594,happy,0,Happy,748.3146134,None,None,748.3146134,None,,,,,,,,,,,,,,,,,,,,,,,,,,,,,,,,,,,,,,,,,,,,,,,,,,,,,40,1,0,20,380,380,2022_Nov_14_1331,Experiment,2021.1.4,360.1695678
images\S8_M_S_02.png,images\S8_M_S_02_scrambled.png,8,sad,-20,male,2,,287,off,1,0.5,0.75,0.5,0.854,3,286,2,1,1,0,0,0,0,2,,,,,,0,135,135,135,,,,,,,,,,,,,,,,,,,,,,,,,,,,,,,,,,,,,,,,,,,,,,,,,,,,,,,,,748.3618357,748.8645715,748.8645715,749.6142575,749.6142575,750.1140725,750.1140725,750.9721558,750.9721558,None,num_4,0.2910388,750.9721558,None,sad,0,Sad,751.283217,None,None,751.283217,None,,,,,,,,,,,,,,,,,,,,,,,,,,,,,,,,,,,,,,,,,,,,,,,,,,,,,40,1,0,20,380,380,2022_Nov_14_1331,Experiment,2021.1.4,360.1695678
images\S2_M_S_02.png,images\S2_M_S_02_scrambled.png,2,sad,-20,male,2,,131,off,1,0.5,0.75,0.5,0.932,3,130,3,1,2,0,0,0,0,2,,,,,,0,136,136,136,,,,,,,,,,,,,,,,,,,,,,,,,,,,,,,,,,,,,,,,,,,,,,,,,,,,,,,,,751.3359202,751.8357611,751.8357611,752.5883514,752.5883514,753.0881876,753.0881876,754.0240053,754.0240053,None,num_4,0.311269,754.0240053,None,sad,0,Sad,754.3572036,None,None,754.3572036,None,,,,,,,,,,,,,,,,,,,,,,,,,,,,,,,,,,,,,,,,,,,,,,,,,,,,,40,1,0,20,380,380,2022_Nov_14_1331,Experiment,2021.1.4,360.1695678
images\S5_F_H_01.png,images\S5_F_H_01_scrambled.png,5,happy,10,female,4,,385,off,1,0.5,0.75,0.5,0.851,3,384,4,1,1,0,0,0,0,4,,,,,,0,137,137,137,,,,,,,,,,,,,,,,,,,,,,,,,,,,,,,,,,,,,,,,,,,,,,,,,,,,,,,,,754.4099697,754.9153962,754.9153962,755.6679174,755.6679174,756.1678055,756.1678055,757.0230967,757.0230967,None,num_6,0.3119651,757.0230967,None,happy,0,Happy,757.3479485,None,None,757.3479485,None,,,,,,,,,,,,,,,,,,,,,,,,,,,,,,,,,,,,,,,,,,,,,,,,,,,,,40,1,0,20,380,380,2022_Nov_14_1331,Experiment,2021.1.4,360.1695678
images\blank.jpg,images\blank.jpg,none,none,none,none,0,,649,on,2,0.5,0.75,0.5,0.814,0,648,1,1,1,3,3,48,192,240,,,,,,0,138,138,138,,,,,,,,,,,,,,,,,,,,,,,,,,,,,,,,,,,,,,,,,,,,,,,,,,,,,,,,,757.4287259,757.9340147,757.9340147,758.6836487,758.6836487,759.186298,759.186298,760.0027453,760.0027453,760.0027453,None,,760.0027453,None,miss,0,,763.0046302,None,None,763.0046302,None,,,,,,,,,,,,,,,,,,,,,,,,,,,,,,,,,,,,,,,,,,,,,,,,,,,,,40,1,0,20,380,380,2022_Nov_14_1331,Experiment,2021.1.4,360.1695678
images\S8_M_S_03.png,images\S8_M_S_03_scrambled.png,8,sad,-30,male,1,,528,off,1,0.5,0.75,0.5,0.804,3,527,1,1,1,0,0,0,0,1,,,,,,0,139,139,139,,,,,,,,,,,,,,,,,,,,,,,,,,,,,,,,,,,,,,,,,,,,,,,,,,,,,,,,,763.1297731,763.6349794,763.6349794,764.3902689,764.3902689,764.895651,764.895651,765.7065114,765.7065114,None,num_4,0.3088619,765.7065114,763.1297731,sad,0,Sad,766.0259303,None,None,766.0259303,None,,,,,,,,,,,,,,,,,,,,,,,,,,,,,,,,,,,,,,,,,,,,,,,,,,,,,40,1,0,20,380,380,2022_Nov_14_1331,Experiment,2021.1.4,360.1695678
images\S2_M_H_02.png,images\S2_M_H_02_scrambled.png,2,happy,20,male,5,,8,off,1,0.5,0.75,0.5,0.782,3,7,2,1,1,0,0,0,0,5,,,,,,0,140,140,140,,,,,,,,,,,,,,,,,,,,,,,,,,,,,,,,,,,,,,,,,,,,,,,,,,,,,,,,,766.1341196,766.6367603,766.6367603,767.389388,767.389388,767.8947793,767.8947793,768.6777882,768.6777882,None,num_4,0.3698088,768.6777882,None,sad,0,Happy,769.0555514,None,None,769.0555514,None,,,,,,,,,,,,,,,,,,,,,,,,,,,,,,,,,,,,,,,,,,,,,,,,,,,,,40,1,0,20,380,380,2022_Nov_14_1331,Experiment,2021.1.4,360.1695678
images\S7_F_H_02.png,images\S7_F_H_02_scrambled.png,7,happy,20,female,5,,338,on,2,0.5,0.75,0.5,0.816,3,337,1,1,2,2,2,32,128,165,,,,,,0,141,141,141,,,,,,,,,,,,,,,,,,,,,,,,,,,,,,,,,,,,,,,,,,,,,,,,,,,,,,,,,769.1137591,769.6163732,769.6163732,770.368951,770.368951,770.868793,770.868793,771.6880206,771.6880206,None,num_6,0.3830586,771.6880206,None,happy,0,Happy,772.0823055,None,None,772.0823055,None,,,,,,,,,,,,,,,,,,,,,,,,,,,,,,,,,,,,,,,,,,,,,,,,,,,,,40,1,0,20,380,380,2022_Nov_14_1331,Experiment,2021.1.4,360.1695678
images\S2_M_S_02.png,images\S2_M_S_02_scrambled.png,2,sad,-20,male,2,,551,on,2,0.5,0.75,0.5,0.773,3,550,2,1,1,2,2,32,128,162,,,,,,0,142,142,142,,,,,,,,,,,,,,,,,,,,,,,,,,,,,,,,,,,,,,,,,,,,,,,,,,,,,,,,,772.1296509,772.6349661,772.6349661,773.3902669,773.3902669,773.8928863,773.8928863,774.6704094,774.6704094,None,num_6,0.5047584,774.6704094,None,happy,0,Sad,775.1813358,None,None,775.1813358,None,,,,,,,,,,,,,,,,,,,,,,,,,,,,,,,,,,,,,,,,,,,,,,,,,,,,,40,1,0,20,380,380,2022_Nov_14_1331,Experiment,2021.1.4,360.1695678
images\S6_M_S_01.png,images\S6_M_S_01_scrambled.png,6,sad,-10,male,3,,514,off,1,0.5,0.75,0.5,0.803,3,513,1,1,1,0,0,0,0,3,,,,,,0,143,143,143,,,,,,,,,,,,,,,,,,,,,,,,,,,,,,,,,,,,,,,,,,,,,,,,,,,,,,,,,775.2896231,775.7894899,775.7894899,776.5392577,776.5392577,777.039103,777.039103,777.8471767,777.8471767,None,num_4,0.391829,777.8471767,None,sad,0,Sad,778.2554112,None,None,778.2554112,None,,,,,,,,,,,,,,,,,,,,,,,,,,,,,,,,,,,,,,,,,,,,,,,,,,,,,40,1,0,20,380,380,2022_Nov_14_1331,Experiment,2021.1.4,360.1695678
images\S3_F_S_03.png,images\S3_F_S_03_scrambled.png,3,sad,-30,female,1,,498,off,1,0.5,0.75,0.5,0.798,3,497,2,1,1,0,0,0,0,1,,,,,,0,144,144,144,,,,,,,,,,,,,,,,,,,,,,,,,,,,,,,,,,,,,,,,,,,,,,,,,,,,,,,,,778.3192464,778.8218774,778.8218774,779.5745433,779.5745433,780.0799108,780.0799108,780.8851681,780.8851681,None,num_4,0.3456734,780.8851681,None,sad,0,Sad,781.246125,None,None,781.246125,None,,,,,,,,,,,,,,,,,,,,,,,,,,,,,,,,,,,,,,,,,,,,,,,,,,,,,40,1,0,20,380,380,2022_Nov_14_1331,Experiment,2021.1.4,360.1695678
images\S6_M_S_03.png,images\S6_M_S_03_scrambled.png,6,sad,-30,male,1,,96,on,2,0.5,0.75,0.5,0.876,3,95,1,1,2,2,2,32,128,161,,,,,,0,145,145,145,,,,,,,,,,,,,,,,,,,,,,,,,,,,,,,,,,,,,,,,,,,,,,,,,,,,,,,,,781.3099799,781.8154288,781.8154288,782.5679313,782.5679313,783.0678286,783.0678286,783.948093,783.948093,None,num_4,0.3235636,783.948093,None,sad,0,Sad,784.2868172,None,None,784.2868172,None,,,,,,,,,,,,,,,,,,,,,,,,,,,,,,,,,,,,,,,,,,,,,,,,,,,,,40,1,0,20,380,380,2022_Nov_14_1331,Experiment,2021.1.4,360.1695678
images\S7_F_H_01.png,images\S7_F_H_01_scrambled.png,7,happy,10,female,4,,577,on,2,0.5,0.75,0.5,0.858,3,576,2,1,1,2,2,32,128,164,,,,,,0,146,146,146,,,,,,,,,,,,,,,,,,,,,,,,,,,,,,,,,,,,,,,,,,,,,,,,,,,,,,,,,784.3479323,784.8505781,784.8505781,785.6031193,785.6031193,786.1057488,786.1057488,786.9665847,786.9665847,None,num_6,0.2884443,786.9665847,None,happy,0,Happy,787.2665323,None,None,787.2665323,None,,,,,,,,,,,,,,,,,,,,,,,,,,,,,,,,,,,,,,,,,,,,,,,,,,,,,40,1,0,20,380,380,2022_Nov_14_1331,Experiment,2021.1.4,360.1695678
images\S10_M_S_03.png,images\S10_M_S_03_scrambled.png,10,sad,-30,male,1,,60,off,1,0.5,0.75,0.5,0.794,3,59,1,1,1,0,0,0,0,1,,,,,,0,147,147,147,,,,,,,,,,,,,,,,,,,,,,,,,,,,,,,,,,,,,,,,,,,,,,,,,,,,,,,,,787.372001,787.8747509,787.8747509,788.6299803,788.6299803,789.1326056,789.1326056,789.9296698,789.9296698,None,num_4,0.3093355,789.9296698,None,sad,0,Sad,790.2543992,None,None,790.2543992,None,,,,,,,,,,,,,,,,,,,,,,,,,,,,,,,,,,,,,,,,,,,,,,,,,,,,,40,1,0,20,380,380,2022_Nov_14_1331,Experiment,2021.1.4,360.1695678
images\S5_F_S_03.png,images\S5_F_S_03_scrambled.png,5,sad,-30,female,1,,510,off,1,0.5,0.75,0.5,0.766,3,509,2,1,2,0,0,0,0,1,,,,,,0,148,148,148,,,,,,,,,,,,,,,,,,,,,,,,,,,,,,,,,,,,,,,,,,,,,,,,,,,,,,,,,790.3016456,790.8044076,790.8044076,791.5540335,791.5540335,792.0539126,792.0539126,792.823125,792.823125,None,num_4,0.3039928,792.823125,None,sad,0,Sad,793.1369839,None,None,793.1369839,None,,,,,,,,,,,,,,,,,,,,,,,,,,,,,,,,,,,,,,,,,,,,,,,,,,,,,40,1,0,20,380,380,2022_Nov_14_1331,Experiment,2021.1.4,360.1695678
images\S6_M_S_03.png,images\S6_M_S_03_scrambled.png,6,sad,-30,male,1,,156,off,1,0.5,0.75,0.5,0.924,3,155,3,1,3,0,0,0,0,1,,,,,,0,149,149,149,,,,,,,,,,,,,,,,,,,,,,,,,,,,,,,,,,,,,,,,,,,,,,,,,,,,,,,,,793.1840936,793.6867293,793.6867293,794.4393708,794.4393708,794.9447748,794.9447748,795.8749743,795.8749743,None,num_4,0.2758918,795.8749743,None,sad,0,Sad,796.1610317,None,None,796.1610317,None,,,,,,,,,,,,,,,,,,,,,,,,,,,,,,,,,,,,,,,,,,,,,,,,,,,,,40,1,0,20,380,380,2022_Nov_14_1331,Experiment,2021.1.4,360.1695678
images\S3_F_S_02.png,images\S3_F_S_02_scrambled.png,3,sad,-20,female,2,,137,off,1,0.5,0.75,0.5,0.917,3,136,4,1,1,0,0,0,0,2,,,,,,0,150,150,150,,,,,,,,,,,,,,,,,,,,,,,,,,,,,,,,,,,,,,,,,,,,,,,,,,,,,,,,,796.2248153,796.7302581,796.7302581,797.4799893,797.4799893,797.9798627,797.9798627,798.8990233,798.8990233,None,num_4,0.2997981,798.8990233,None,sad,0,Sad,799.2127133,None,None,799.2127133,None,,,,,,,,,,,,,,,,,,,,,,,,,,,,,,,,,,,,,,,,,,,,,,,,,,,,,40,1,0,20,380,380,2022_Nov_14_1331,Experiment,2021.1.4,360.1695678
images\S5_F_H_02.png,images\S5_F_H_02_scrambled.png,5,happy,20,female,5,,146,off,1,0.5,0.75,0.5,0.84,3,145,5,1,1,0,0,0,0,5,,,,,,0,151,151,151,,,,,,,,,,,,,,,,,,,,,,,,,,,,,,,,,,,,,,,,,,,,,,,,,,,,,,,,,799.2572114,799.7570714,799.7570714,800.5097129,800.5097129,801.0150555,801.0150555,801.8591984,801.8591984,None,num_6,0.3396083,801.8591984,None,happy,0,Happy,802.2090944,None,None,802.2090944,None,,,,,,,,,,,,,,,,,,,,,,,,,,,,,,,,,,,,,,,,,,,,,,,,,,,,,40,1,0,20,380,380,2022_Nov_14_1331,Experiment,2021.1.4,360.1695678
images\S1_F_H_01.png,images\S1_F_H_01_scrambled.png,1,happy,10,female,4,,241,off,1,0.5,0.75,0.5,0.882,3,240,6,1,1,0,0,0,0,4,,,,,,0,152,152,152,,,,,,,,,,,,,,,,,,,,,,,,,,,,,,,,,,,,,,,,,,,,,,,,,,,,,,,,,802.2562807,802.7589318,802.7589318,803.5087154,803.5087154,804.0085564,804.0085564,804.8944781,804.8944781,None,num_6,0.3283782,804.8944781,None,happy,0,Happy,805.2442585,None,None,805.2442585,None,,,,,,,,,,,,,,,,,,,,,,,,,,,,,,,,,,,,,,,,,,,,,,,,,,,,,40,1,0,20,380,380,2022_Nov_14_1331,Experiment,2021.1.4,360.1695678
images\S1_F_H_01.png,images\S1_F_H_01_scrambled.png,1,happy,10,female,4,,61,on,2,0.5,0.75,0.5,0.779,3,60,1,2,2,2,2,32,128,164,,,,,,0,153,153,153,,,,,,,,,,,,,,,,,,,,,,,,,,,,,,,,,,,,,,,,,,,,,,,,,,,,,,,,,805.2970085,805.7968709,805.7968709,806.5495235,806.5495235,807.0548754,807.0548754,807.8407093,807.8407093,None,num_6,0.3741909,807.8407093,None,happy,0,Happy,808.2294542,None,None,808.2294542,None,,,,,,,,,,,,,,,,,,,,,,,,,,,,,,,,,,,,,,,,,,,,,,,,,,,,,40,1,0,20,380,380,2022_Nov_14_1331,Experiment,2021.1.4,360.1695678
images\S10_M_H_02.png,images\S10_M_H_02_scrambled.png,10,happy,20,male,5,,476,on,2,0.5,0.75,0.5,0.935,3,475,2,1,1,2,2,32,128,165,,,,,,0,154,154,154,,,,,,,,,,,,,,,,,,,,,,,,,,,,,,,,,,,,,,,,,,,,,,,,,,,,,,,,,808.2766555,808.7793837,808.7793837,809.5290644,809.5290644,810.0345556,810.0345556,810.9730729,810.9730729,None,num_6,0.3060725,810.9730729,None,happy,0,Happy,811.2952545,None,None,811.2952545,None,,,,,,,,,,,,,,,,,,,,,,,,,,,,,,,,,,,,,,,,,,,,,,,,,,,,,40,1,0,20,380,380,2022_Nov_14_1331,Experiment,2021.1.4,360.1695678
images\S8_M_H_02.png,images\S8_M_H_02_scrambled.png,8,happy,20,male,5,,464,on,2,0.5,0.75,0.5,0.805,3,463,3,1,2,2,2,32,128,165,,,,,,0,155,155,155,,,,,,,,,,,,,,,,,,,,,,,,,,,,,,,,,,,,,,,,,,,,,,,,,,,,,,,,,811.4006589,811.9061029,811.9061029,812.6586594,812.6586594,813.1612567,813.1612567,813.9694512,813.9694512,None,num_6,0.2695706,813.9694512,None,happy,0,Happy,814.2525372,None,None,814.2525372,None,,,,,,,,,,,,,,,,,,,,,,,,,,,,,,,,,,,,,,,,,,,,,,,,,,,,,40,1,0,20,380,380,2022_Nov_14_1331,Experiment,2021.1.4,360.1695678
images\S2_M_S_01.png,images\S2_M_S_01_scrambled.png,2,sad,-10,male,3,,250,off,1,0.5,0.75,0.5,0.778,3,249,1,1,1,0,0,0,0,3,,,,,,0,156,156,156,,,,,,,,,,,,,,,,,,,,,,,,,,,,,,,,,,,,,,,,,,,,,,,,,,,,,,,,,814.2970025,814.7996944,814.7996944,815.5549999,815.5549999,816.0576232,816.0576232,816.8406583,816.8406583,None,num_4,0.2862084,816.8406583,None,sad,0,Sad,817.1378176,None,None,817.1378176,None,,,,,,,,,,,,,,,,,,,,,,,,,,,,,,,,,,,,,,,,,,,,,,,,,,,,,40,1,0,20,380,380,2022_Nov_14_1331,Experiment,2021.1.4,360.1695678
images\S5_F_S_03.png,images\S5_F_S_03_scrambled.png,5,sad,-30,female,1,,210,on,2,0.5,0.75,0.5,0.784,3,209,1,1,1,2,2,32,128,161,,,,,,0,157,157,157,,,,,,,,,,,,,,,,,,,,,,,,,,,,,,,,,,,,,,,,,,,,,,,,,,,,,,,,,817.1850004,817.6876166,817.6876166,818.4402208,818.4402208,818.9428487,818.9428487,819.7286863,819.7286863,None,num_4,0.2785607,819.7286863,None,sad,0,Sad,820.0286229,None,None,820.0286229,None,,,,,,,,,,,,,,,,,,,,,,,,,,,,,,,,,,,,,,,,,,,,,,,,,,,,,40,1,0,20,380,380,2022_Nov_14_1331,Experiment,2021.1.4,360.1695678
images\S3_F_S_03.png,images\S3_F_S_03_scrambled.png,3,sad,-30,female,1,,138,off,1,0.5,0.75,0.5,0.855,3,137,1,1,2,0,0,0,0,1,,,,,,0,158,158,158,,,,,,,,,,,,,,,,,,,,,,,,,,,,,,,,,,,,,,,,,,,,,,,,,,,,,,,,,820.0813229,820.5867425,820.5867425,821.3393736,821.3393736,821.844755,821.844755,822.7055504,822.7055504,None,num_4,0.3499475,822.7055504,None,sad,0,Sad,823.0666101,None,None,823.0666101,None,,,,,,,,,,,,,,,,,,,,,,,,,,,,,,,,,,,,,,,,,,,,,,,,,,,,,40,1,0,20,380,380,2022_Nov_14_1331,Experiment,2021.1.4,360.1695678
images\S5_F_H_03.png,images\S5_F_H_03_scrambled.png,5,happy,30,female,6,,567,on,2,0.5,0.75,0.5,0.753,3,566,1,1,1,2,2,32,128,166,,,,,,0,159,159,159,,,,,,,,,,,,,,,,,,,,,,,,,,,,,,,,,,,,,,,,,,,,,,,,,,,,,,,,,823.1109399,823.6163739,823.6163739,824.3690385,824.3690385,824.8715289,824.8715289,825.6296064,825.6296064,None,num_6,0.409297,825.6296064,None,happy,0,Happy,826.0489647,None,None,826.0489647,None,,,,,,,,,,,,,,,,,,,,,,,,,,,,,,,,,,,,,,,,,,,,,,,,,,,,,40,1,0,20,380,380,2022_Nov_14_1331,Experiment,2021.1.4,360.1695678
images\S2_M_S_02.png,images\S2_M_S_02_scrambled.png,2,sad,-20,male,2,,431,on,2,0.5,0.75,0.5,0.775,3,430,2,1,1,2,2,32,128,162,,,,,,0,160,160,160,,,,,,,,,,,,,,,,,,,,,,,,,,,,,,,,,,,,,,,,,,,,,,,,,,,,,,,,,826.0961287,826.5987832,826.5987832,827.3485557,827.3485557,827.8483636,827.8483636,828.6259381,828.6259381,None,num_4,0.2932035,828.6259381,None,sad,0,Sad,828.9370096,None,None,828.9370096,None,,,,,,,,,,,,,,,,,,,,,,,,,,,,,,,,,,,,,,,,,,,,,,,,,,,,,40,1,0,20,380,380,2022_Nov_14_1331,Experiment,2021.1.4,360.1695678
images\S10_M_S_01.png,images\S10_M_S_01_scrambled.png,10,sad,-10,male,3,,478,on,2,0.5,0.75,0.5,0.925,3,477,3,1,1,2,2,32,128,163,,,,,,0,161,161,161,,,,,,,,,,,,,,,,,,,,,,,,,,,,,,,,,,,,,,,,,,,,,,,,,,,,,,,,,828.9896792,829.4895187,829.4895187,830.2449158,830.2449158,830.7475256,830.7475256,831.6750208,831.6750208,None,num_6,0.3320762,831.6750208,None,happy,0,Sad,832.0165809,None,None,832.0165809,None,,,,,,,,,,,,,,,,,,,,,,,,,,,,,,,,,,,,,,,,,,,,,,,,,,,,,40,1,0,20,380,380,2022_Nov_14_1331,Experiment,2021.1.4,360.1695678
images\S7_F_H_01.png,images\S7_F_H_01_scrambled.png,7,happy,10,female,4,,217,on,2,0.5,0.75,0.5,0.829,3,216,4,1,1,2,2,32,128,164,,,,,,0,162,162,162,,,,,,,,,,,,,,,,,,,,,,,,,,,,,,,,,,,,,,,,,,,,,,,,,,,,,,,,,832.0692881,832.5691445,832.5691445,833.3188932,833.3188932,833.8187693,833.8187693,834.6546822,834.6546822,None,num_6,0.3365245,834.6546822,None,happy,0,Happy,835.0184705,None,None,835.0184705,None,,,,,,,,,,,,,,,,,,,,,,,,,,,,,,,,,,,,,,,,,,,,,,,,,,,,,40,1,0,20,380,380,2022_Nov_14_1331,Experiment,2021.1.4,360.1695678
images\S10_M_H_02.png,images\S10_M_H_02_scrambled.png,10,happy,20,male,5,,296,off,1,0.5,0.75,0.5,0.758,3,295,1,1,1,0,0,0,0,5,,,,,,0,163,163,163,,,,,,,,,,,,,,,,,,,,,,,,,,,,,,,,,,,,,,,,,,,,,,,,,,,,,,,,,835.071131,835.573789,835.573789,836.3235734,836.3235734,836.823407,836.823407,837.5842568,837.5842568,None,num_6,0.5105234,837.5842568,None,happy,0,Happy,838.1091048,None,None,838.1091048,None,,,,,,,,,,,,,,,,,,,,,,,,,,,,,,,,,,,,,,,,,,,,,,,,,,,,,40,1,0,20,380,380,2022_Nov_14_1331,Experiment,2021.1.4,360.1695678
images\S8_M_S_03.png,images\S8_M_S_03_scrambled.png,8,sad,-30,male,1,,108,on,2,0.5,0.75,0.5,0.945,3,107,1,1,1,2,2,32,128,161,,,,,,0,164,164,164,,,,,,,,,,,,,,,,,,,,,,,,,,,,,,,,,,,,,,,,,,,,,,,,,,,,,,,,,838.156309,838.6589388,838.6589388,839.4114483,839.4114483,839.9140969,839.9140969,840.8638913,840.8638913,None,num_4,0.3348158,840.8638913,None,sad,0,Sad,841.2275452,None,None,841.2275452,None,,,,,,,,,,,,,,,,,,,,,,,,,,,,,,,,,,,,,,,,,,,,,,,,,,,,,40,1,0,20,380,380,2022_Nov_14_1331,Experiment,2021.1.4,360.1695678
images\blank.jpg,images\blank.jpg,none,none,none,none,0,,634,on,2,0.5,0.75,0.5,0.782,0,633,2,1,1,3,3,48,192,240,,,,,,0,165,165,165,,,,,,,,,,,,,,,,,,,,,,,,,,,,,,,,,,,,,,,,,,,,,,,,,,,,,,,,,841.3166589,841.8190653,841.8190653,842.568844,842.568844,843.0686871,843.0686871,843.8518488,843.8518488,843.8518488,None,,843.8518488,None,miss,0,,846.8537157,None,None,846.8537157,None,,,,,,,,,,,,,,,,,,,,,,,,,,,,,,,,,,,,,,,,,,,,,,,,,,,,,40,1,0,20,380,380,2022_Nov_14_1331,Experiment,2021.1.4,360.1695678
images\S6_M_H_02.png,images\S6_M_H_02_scrambled.png,6,happy,20,male,5,,272,off,1,0.5,0.75,0.5,0.894,3,271,1,1,1,0,0,0,0,5,,,,,,0,166,166,166,,,,,,,,,,,,,,,,,,,,,,,,,,,,,,,,,,,,,,,,,,,,,,,,,,,,,,,,,846.975866,847.4812119,847.4812119,848.2309461,848.2309461,848.7308396,848.7308396,849.630547,849.630547,None,num_6,0.4166899,849.630547,846.975866,happy,0,Happy,850.0666018,None,None,850.0666018,None,,,,,,,,,,,,,,,,,,,,,,,,,,,,,,,,,,,,,,,,,,,,,,,,,,,,,40,1,0,20,380,380,2022_Nov_14_1331,Experiment,2021.1.4,360.1695678
