image_face,image_scram,avatar,emo,emotion,sex,trigeeg,dac,trial_no,NMES,stimtime,baseline,iti,face,scr_face,resp_time,index,count_NMES,count_avatar,count_emotion,dac1,dac2,dac1_output,dac2_output,trigs_out,nmes,practice_trials.thisRepN,practice_trials.thisTrialN,practice_trials.thisN,practice_trials.thisIndex,real_trials.thisRepN,real_trials.thisTrialN,real_trials.thisN,real_trials.thisIndex,trials.thisRepN,trials.thisTrialN,trials.thisN,trials.thisIndex,position,Welcome.started,Welcome.stopped,Welcome_resp.keys,Welcome_resp.rt,text_2.started,text_2.stopped,form_2.index,form_2.itemText,form_2.type,form_2.response,form_2.rt,key_resp_4.keys,key_resp_4.rt,key_resp_4.started,key_resp_4.stopped,instructions.started,instructions.stopped,end_instr.keys,end_instr.rt,instructions_2.started,instructions_2.stopped,end_instr_2.keys,end_instr_2.rt,end_instr_2.started,end_instr_2.stopped,instruct_keypress.started,instruct_keypress.stopped,end_instruct_keypress.keys,end_instruct_keypress.rt,start_practice.started,start_practice.stopped,start_practice_resp.keys,start_practice_resp.rt,prac_baseline.started,prac_baseline.stopped,prac_iti.started,prac_iti.stopped,prac_stimulus.started,prac_stimulus.stopped,prac_scram_stim.started,prac_scram_stim.stopped,prac_stimulus_resp.started,prac_stimulus_resp.stopped,prac_resp.keys,prac_resp.rt,prac_resp.started,prac_resp.stopped,transition_to_real.started,transition_to_real.stopped,end_transition_to_real.keys,end_transition_to_real.rt,fixation_cross.started,fixation_cross.stopped,tr_iti.started,tr_iti.stopped,stimulus.started,stimulus.stopped,scram_stim.started,scram_stim.stopped,response_txt.started,response_txt.stopped,response.keys,response.rt,response.started,response.stopped,participant_Resp,grouping,corAnswer,break_msg.started,break_msg.stopped,end_break.keys,end_break.started,end_break.stopped,end_break.rt,text.started,text.stopped,key_resp_3.keys,key_resp_3.rt,key_resp_3.started,key_resp_3.stopped,fix_cross_comf.started,fix_cross_comf.stopped,stimulation_comf.started,stimulation_comf.stopped,rate_instr.started,rate_instr.stopped,comfort_rating.response,comfort_rating.rt,comfort_rating.started,comfort_rating.stopped,resp_form.keys,resp_form.rt,resp_form.started,resp_form.stopped,survey_instructions.started,survey_instructions.stopped,key_resp_2.keys,key_resp_2.rt,key_resp_2.started,key_resp_2.stopped,form.index,form.itemText,form.type,form.response,form.rt,key_resp.keys,key_resp.rt,key_resp.started,key_resp.stopped,text_3.started,text_3.stopped,rate_smile.response,rate_smile.rt,rate_smile.started,rate_smile.stopped,key_resp_5.keys,key_resp_5.rt,key_resp_5.started,key_resp_5.stopped,end_msg.started,end_msg.stopped,end_resp.keys,end_resp.rt,end_resp.started,end_resp.stopped,participant,session,gender,age,LEFT,RIGHT,date,expName,psychopyVersion,frameRate,
,,,,,,,,,,,,,,,,,,,,,,,,,,,,,,,,,,,,,,H-S,26.620828199999778,None,num_add,4.295244099999763,,,,,,,,,,,,,,,,,,,,,,,,,,,,,,,,,,,,,,,,,,,,,,,,,,,,,,,,,,,,,,,,,,,,,,,,,,,,,,,,,,,,,,,,,,,,,,,,,,,,,,,,,,,,,,,,,,,,,,,,,,41,001,1,34,450,450,2022_Nov_16_1038,Experiment,2021.1.4,360.0735990407891,
,,,,,,,,,,,,,,,,,,,,,,,,,,,,,,,,,,,,,,,,,,,30.923994499999935,32.9566947000003,1,"This scale consistes of a number of words that describe different feelings and emotion. Read each item and then list the number from the scale below each word. Indicate (by clicking) to what extend you feel this way RIGHT NOW, that is, AT THE PRESENT MOMENT.",description,,,,,,,,,,,,,,,,,,,,,,,,,,,,,,,,,,,,,,,,,,,,,,,,,,,,,,,,,,,,,,,,,,,,,,,,,,,,,,,,,,,,,,,,,,,,,,,,,,,,,,,,,,,,,,,,,,,,,41,001,1,34,450,450,2022_Nov_16_1038,Experiment,2021.1.4,360.0735990407891,
,,,,,,,,,,,,,,,,,,,,,,,,,,,,,,,,,,,,,,,,,,,,,2,Interested,rating,4.0,21.31662150000011,,,,,,,,,,,,,,,,,,,,,,,,,,,,,,,,,,,,,,,,,,,,,,,,,,,,,,,,,,,,,,,,,,,,,,,,,,,,,,,,,,,,,,,,,,,,,,,,,,,,,,,,,,,,,,,,,,,41,001,1,34,450,450,2022_Nov_16_1038,Experiment,2021.1.4,360.0735990407891,
,,,,,,,,,,,,,,,,,,,,,,,,,,,,,,,,,,,,,,,,,,,,,3,Distressed,rating,1.0,26.943888400000105,,,,,,,,,,,,,,,,,,,,,,,,,,,,,,,,,,,,,,,,,,,,,,,,,,,,,,,,,,,,,,,,,,,,,,,,,,,,,,,,,,,,,,,,,,,,,,,,,,,,,,,,,,,,,,,,,,,41,001,1,34,450,450,2022_Nov_16_1038,Experiment,2021.1.4,360.0735990407891,
,,,,,,,,,,,,,,,,,,,,,,,,,,,,,,,,,,,,,,,,,,,,,4,Excited,rating,3.0,34.173348199999964,,,,,,,,,,,,,,,,,,,,,,,,,,,,,,,,,,,,,,,,,,,,,,,,,,,,,,,,,,,,,,,,,,,,,,,,,,,,,,,,,,,,,,,,,,,,,,,,,,,,,,,,,,,,,,,,,,,41,001,1,34,450,450,2022_Nov_16_1038,Experiment,2021.1.4,360.0735990407891,
,,,,,,,,,,,,,,,,,,,,,,,,,,,,,,,,,,,,,,,,,,,,,5,Upset,rating,1.0,40.946646399999736,,,,,,,,,,,,,,,,,,,,,,,,,,,,,,,,,,,,,,,,,,,,,,,,,,,,,,,,,,,,,,,,,,,,,,,,,,,,,,,,,,,,,,,,,,,,,,,,,,,,,,,,,,,,,,,,,,,41,001,1,34,450,450,2022_Nov_16_1038,Experiment,2021.1.4,360.0735990407891,
,,,,,,,,,,,,,,,,,,,,,,,,,,,,,,,,,,,,,,,,,,,,,6,Strong,rating,4.0,43.95597819999966,,,,,,,,,,,,,,,,,,,,,,,,,,,,,,,,,,,,,,,,,,,,,,,,,,,,,,,,,,,,,,,,,,,,,,,,,,,,,,,,,,,,,,,,,,,,,,,,,,,,,,,,,,,,,,,,,,,41,001,1,34,450,450,2022_Nov_16_1038,Experiment,2021.1.4,360.0735990407891,
,,,,,,,,,,,,,,,,,,,,,,,,,,,,,,,,,,,,,,,,,,,,,7,Guilty,rating,None,None,,,,,,,,,,,,,,,,,,,,,,,,,,,,,,,,,,,,,,,,,,,,,,,,,,,,,,,,,,,,,,,,,,,,,,,,,,,,,,,,,,,,,,,,,,,,,,,,,,,,,,,,,,,,,,,,,,,41,001,1,34,450,450,2022_Nov_16_1038,Experiment,2021.1.4,360.0735990407891,
,,,,,,,,,,,,,,,,,,,,,,,,,,,,,,,,,,,,,,,,,,,,,8,Scared,rating,None,None,,,,,,,,,,,,,,,,,,,,,,,,,,,,,,,,,,,,,,,,,,,,,,,,,,,,,,,,,,,,,,,,,,,,,,,,,,,,,,,,,,,,,,,,,,,,,,,,,,,,,,,,,,,,,,,,,,,41,001,1,34,450,450,2022_Nov_16_1038,Experiment,2021.1.4,360.0735990407891,
,,,,,,,,,,,,,,,,,,,,,,,,,,,,,,,,,,,,,,,,,,,,,9,Hostile,rating,None,None,,,,,,,,,,,,,,,,,,,,,,,,,,,,,,,,,,,,,,,,,,,,,,,,,,,,,,,,,,,,,,,,,,,,,,,,,,,,,,,,,,,,,,,,,,,,,,,,,,,,,,,,,,,,,,,,,,,41,001,1,34,450,450,2022_Nov_16_1038,Experiment,2021.1.4,360.0735990407891,
,,,,,,,,,,,,,,,,,,,,,,,,,,,,,,,,,,,,,,,,,,,,,10,Enthusiastic,rating,None,None,,,,,,,,,,,,,,,,,,,,,,,,,,,,,,,,,,,,,,,,,,,,,,,,,,,,,,,,,,,,,,,,,,,,,,,,,,,,,,,,,,,,,,,,,,,,,,,,,,,,,,,,,,,,,,,,,,,41,001,1,34,450,450,2022_Nov_16_1038,Experiment,2021.1.4,360.0735990407891,
,,,,,,,,,,,,,,,,,,,,,,,,,,,,,,,,,,,,,,,,,,,,,11,Proud,rating,3.0,9.500207400000363,,,,,,,,,,,,,,,,,,,,,,,,,,,,,,,,,,,,,,,,,,,,,,,,,,,,,,,,,,,,,,,,,,,,,,,,,,,,,,,,,,,,,,,,,,,,,,,,,,,,,,,,,,,,,,,,,,,41,001,1,34,450,450,2022_Nov_16_1038,Experiment,2021.1.4,360.0735990407891,
,,,,,,,,,,,,,,,,,,,,,,,,,,,,,,,,,,,,,,,,,,,,,12,Irritable,rating,1.0,12.561034300000756,,,,,,,,,,,,,,,,,,,,,,,,,,,,,,,,,,,,,,,,,,,,,,,,,,,,,,,,,,,,,,,,,,,,,,,,,,,,,,,,,,,,,,,,,,,,,,,,,,,,,,,,,,,,,,,,,,,41,001,1,34,450,450,2022_Nov_16_1038,Experiment,2021.1.4,360.0735990407891,
,,,,,,,,,,,,,,,,,,,,,,,,,,,,,,,,,,,,,,,,,,,,,13,Alert,rating,4.0,15.253627799999776,,,,,,,,,,,,,,,,,,,,,,,,,,,,,,,,,,,,,,,,,,,,,,,,,,,,,,,,,,,,,,,,,,,,,,,,,,,,,,,,,,,,,,,,,,,,,,,,,,,,,,,,,,,,,,,,,,,41,001,1,34,450,450,2022_Nov_16_1038,Experiment,2021.1.4,360.0735990407891,
,,,,,,,,,,,,,,,,,,,,,,,,,,,,,,,,,,,,,,,,,,,,,14,Ashamed,rating,1.0,22.11471739999979,,,,,,,,,,,,,,,,,,,,,,,,,,,,,,,,,,,,,,,,,,,,,,,,,,,,,,,,,,,,,,,,,,,,,,,,,,,,,,,,,,,,,,,,,,,,,,,,,,,,,,,,,,,,,,,,,,,41,001,1,34,450,450,2022_Nov_16_1038,Experiment,2021.1.4,360.0735990407891,
,,,,,,,,,,,,,,,,,,,,,,,,,,,,,,,,,,,,,,,,,,,,,15,Inspired,rating,4.0,27.484130800000457,,,,,,,,,,,,,,,,,,,,,,,,,,,,,,,,,,,,,,,,,,,,,,,,,,,,,,,,,,,,,,,,,,,,,,,,,,,,,,,,,,,,,,,,,,,,,,,,,,,,,,,,,,,,,,,,,,,41,001,1,34,450,450,2022_Nov_16_1038,Experiment,2021.1.4,360.0735990407891,
,,,,,,,,,,,,,,,,,,,,,,,,,,,,,,,,,,,,,,,,,,,,,16,Nervous,rating,1.0,16.323974399999315,,,,,,,,,,,,,,,,,,,,,,,,,,,,,,,,,,,,,,,,,,,,,,,,,,,,,,,,,,,,,,,,,,,,,,,,,,,,,,,,,,,,,,,,,,,,,,,,,,,,,,,,,,,,,,,,,,,41,001,1,34,450,450,2022_Nov_16_1038,Experiment,2021.1.4,360.0735990407891,
,,,,,,,,,,,,,,,,,,,,,,,,,,,,,,,,,,,,,,,,,,,,,17,Determined,rating,3.0,19.984391900000446,,,,,,,,,,,,,,,,,,,,,,,,,,,,,,,,,,,,,,,,,,,,,,,,,,,,,,,,,,,,,,,,,,,,,,,,,,,,,,,,,,,,,,,,,,,,,,,,,,,,,,,,,,,,,,,,,,,41,001,1,34,450,450,2022_Nov_16_1038,Experiment,2021.1.4,360.0735990407891,
,,,,,,,,,,,,,,,,,,,,,,,,,,,,,,,,,,,,,,,,,,,,,18,Attentive,rating,4.0,21.618279399999665,,,,,,,,,,,,,,,,,,,,,,,,,,,,,,,,,,,,,,,,,,,,,,,,,,,,,,,,,,,,,,,,,,,,,,,,,,,,,,,,,,,,,,,,,,,,,,,,,,,,,,,,,,,,,,,,,,,41,001,1,34,450,450,2022_Nov_16_1038,Experiment,2021.1.4,360.0735990407891,
,,,,,,,,,,,,,,,,,,,,,,,,,,,,,,,,,,,,,,,,,,,,,19,Jittery,rating,1.0,26.231750900000407,,,,,,,,,,,,,,,,,,,,,,,,,,,,,,,,,,,,,,,,,,,,,,,,,,,,,,,,,,,,,,,,,,,,,,,,,,,,,,,,,,,,,,,,,,,,,,,,,,,,,,,,,,,,,,,,,,,41,001,1,34,450,450,2022_Nov_16_1038,Experiment,2021.1.4,360.0735990407891,
,,,,,,,,,,,,,,,,,,,,,,,,,,,,,,,,,,,,,,,,,,,,,20,Active,rating,3.0,31.6681423,,,,,,,,,,,,,,,,,,,,,,,,,,,,,,,,,,,,,,,,,,,,,,,,,,,,,,,,,,,,,,,,,,,,,,,,,,,,,,,,,,,,,,,,,,,,,,,,,,,,,,,,,,,,,,,,,,,41,001,1,34,450,450,2022_Nov_16_1038,Experiment,2021.1.4,360.0735990407891,
,,,,,,,,,,,,,,,,,,,,,,,,,,,,,,,,,,,,,,,,,,,,,21,Afraid,rating,1.0,36.60169719999976,,,,,,,,,,,,,,,,,,,,,,,,,,,,,,,,,,,,,,,,,,,,,,,,,,,,,,,,,,,,,,,,,,,,,,,,,,,,,,,,,,,,,,,,,,,,,,,,,,,,,,,,,,,,,,,,,,,41,001,1,34,450,450,2022_Nov_16_1038,Experiment,2021.1.4,360.0735990407891,
,,,,,,,,,,,,,,,,,,,,,,,,,,,,,,,,,,,,,,,,,,,,,22,Press the + button to submit your answers,description,,,,,,,,,,,,,,,,,,,,,,,,,,,,,,,,,,,,,,,,,,,,,,,,,,,,,,,,,,,,,,,,,,,,,,,,,,,,,,,,,,,,,,,,,,,,,,,,,,,,,,,,,,,,,,,,,,,,,41,001,1,34,450,450,2022_Nov_16_1038,Experiment,2021.1.4,360.0735990407891,
,,,,,,,,,,,,,,,,,,,,,,,,,,,,,,,,,,,,,,,,,,,,,,,,,,num_add,94.15373699999964,40.95422150000013,None,,,,,,,,,,,,,,,,,,,,,,,,,,,,,,,,,,,,,,,,,,,,,,,,,,,,,,,,,,,,,,,,,,,,,,,,,,,,,,,,,,,,,,,,,,,,,,,,,,,,,,,,,,,,,,,41,001,1,34,450,450,2022_Nov_16_1038,Experiment,2021.1.4,360.0735990407891,
,,,,,,,,,,,,,,,,,,,,,,,,,,,,,,,,,,,,,,,,,,,,,,,,,,,,,,135.12527630000022,None,num_add,25.078729399999247,,,,,,,,,,,,,,,,,,,,,,,,,,,,,,,,,,,,,,,,,,,,,,,,,,,,,,,,,,,,,,,,,,,,,,,,,,,,,,,,,,,,,,,,,,,,,,,,,,,,,,,,,,,41,001,1,34,450,450,2022_Nov_16_1038,Experiment,2021.1.4,360.0735990407891,
,,,,,,,,,,,,,,,,,,,,,,,,,,,,,,,,,,,,,,,,,,,,,,,,,,,,,,,,,,160.2118400999998,None,num_add,12.112314800000604,160.2118400999998,None,,,,,,,,,,,,,,,,,,,,,,,,,,,,,,,,,,,,,,,,,,,,,,,,,,,,,,,,,,,,,,,,,,,,,,,,,,,,,,,,,,,,,,,,,,,,,,,,,,,,,41,001,1,34,450,450,2022_Nov_16_1038,Experiment,2021.1.4,360.0735990407891,
,,,,,,,,,,,,,,,,,,,,,,,,,,,,,,,,,,,,,,,,,,,,,,,,,,,,,,,,,,,,,,,,172.3497729999999,None,num_add,22.814337400000113,,,,,,,,,,,,,,,,,,,,,,,,,,,,,,,,,,,,,,,,,,,,,,,,,,,,,,,,,,,,,,,,,,,,,,,,,,,,,,,,,,,,,,,,,,,,,,,,,41,001,1,34,450,450,2022_Nov_16_1038,Experiment,2021.1.4,360.0735990407891,
,,,,,,,,,,,,,,,,,,,,,,,,,,,,,,,,,,,,,,,,,,,,,,,,,,,,,,,,,,,,,,,,,,,,195.17605249999997,None,space,58.18791349999992,,,,,,,,,,,,,,,,,,,,,,,,,,,,,,,,,,,,,,,,,,,,,,,,,,,,,,,,,,,,,,,,,,,,,,,,,,,,,,,,,,,,,,,,,,,,,41,001,1,34,450,450,2022_Nov_16_1038,Experiment,2021.1.4,360.0735990407891,
images\S22_M_S_02.png,images\S22_M_S_02_scrambled.png,22,Sad,0.2,M,0,0,practice,on,2,0.5,0.75,0.5,0.783,3,,,,,,,,,,,0,0,0,6,,,,,,,,,,,,,,,,,,,,,,,,,,,,,,,,,,,,,,,,,,,253.53295799999978,254.03564749999987,254.03564749999987,254.79100500000004,254.79100500000004,255.29640569999992,255.29640569999992,256.08513420000054,256.08513420000054,None,num_6,1.2948699999997189,256.08513420000054,None,,,,,,,,,,,,,,,,,,,,,,,,,,,,,,,,,,,,,,,,,,,,,,,,,,,,,,,,,,,,,,,,,,,,,,,,,,,,,,,41,001,1,34,450,450,2022_Nov_16_1038,Experiment,2021.1.4,360.0735990407891,
images\S21_F_H_01.png,images\S21_F_H_01_scrambled.png,21,Happy,-0.1,F,0,0,practice,off,1,0.5,0.75,0.5,0.853,3,,,,,,,,,,,0,1,1,0,,,,,,,,,,,,,,,,,,,,,,,,,,,,,,,,,,,,,,,,,,,257.4373755000006,257.93721730000016,257.93721730000016,258.68974720000006,258.68974720000006,259.18963429999985,259.18963429999985,260.0450225000004,260.0450225000004,None,num_4,1.3588943999993717,260.0450225000004,None,,,,,,,,,,,,,,,,,,,,,,,,,,,,,,,,,,,,,,,,,,,,,,,,,,,,,,,,,,,,,,,,,,,,,,,,,,,,,,,41,001,1,34,450,450,2022_Nov_16_1038,Experiment,2021.1.4,360.0735990407891,
images\S22_M_H_02.png,images\S22_M_H_02_scrambled.png,22,Happy,-0.2,M,0,0,practice,off,1,0.5,0.75,0.5,0.883,3,,,,,,,,,,,0,2,2,2,,,,,,,,,,,,,,,,,,,,,,,,,,,,,,,,,,,,,,,,,,,261.4611214000006,261.96655420000025,261.96655420000025,262.7218761000004,262.7218761000004,263.22461660000045,263.22461660000045,264.1104089999999,264.1104089999999,None,num_4,1.1575114000006579,264.1104089999999,None,,,,,,,,,,,,,,,,,,,,,,,,,,,,,,,,,,,,,,,,,,,,,,,,,,,,,,,,,,,,,,,,,,,,,,,,,,,,,,,41,001,1,34,450,450,2022_Nov_16_1038,Experiment,2021.1.4,360.0735990407891,
images\S22_M_S_03.png,images\S22_M_S_03_scrambled.png,22,Sad,0.3,M,0,0,practice,on,2,0.5,0.75,0.5,0.87,3,,,,,,,,,,,0,3,3,4,,,,,,,,,,,,,,,,,,,,,,,,,,,,,,,,,,,,,,,,,,,265.32938209999975,265.82925479999994,265.82925479999994,266.5817828999998,266.5817828999998,267.0845158000002,267.0845158000002,267.9563796000002,267.9563796000002,None,num_4,0.583299499999157,267.9563796000002,None,,,,,,,,,,,,,,,,,,,,,,,,,,,,,,,,,,,,,,,,,,,,,,,,,,,,,,,,,,,,,,,,,,,,,,,,,,,,,,,41,001,1,34,450,450,2022_Nov_16_1038,Experiment,2021.1.4,360.0735990407891,
images\S22_M_S_01.png,images\S22_M_S_01_scrambled.png,22,Sad,0.1,M,0,0,practice,on,2,0.5,0.75,0.5,0.867,3,,,,,,,,,,,0,4,4,5,,,,,,,,,,,,,,,,,,,,,,,,,,,,,,,,,,,,,,,,,,,268.5978132,269.1032178000005,269.1032178000005,269.85298930000044,269.85298930000044,270.3556544000003,270.3556544000003,271.2247772999999,271.2247772999999,None,num_4,0.9150012000000061,271.2247772999999,None,,,,,,,,,,,,,,,,,,,,,,,,,,,,,,,,,,,,,,,,,,,,,,,,,,,,,,,,,,,,,,,,,,,,,,,,,,,,,,,41,001,1,34,450,450,2022_Nov_16_1038,Experiment,2021.1.4,360.0735990407891,
images\S21_F_H_02.png,images\S21_F_H_02_scrambled.png,21,Happy,-0.2,F,0,0,practice,off,1,0.5,0.75,0.5,0.91,3,,,,,,,,,,,0,5,5,1,,,,,,,,,,,,,,,,,,,,,,,,,,,,,,,,,,,,,,,,,,,272.1994851999998,272.7021179000003,272.7021179000003,273.457437,273.457437,273.95726340000056,273.95726340000056,274.87091169999985,274.87091169999985,None,num_4,1.028816299999562,274.87091169999985,None,,,,,,,,,,,,,,,,,,,,,,,,,,,,,,,,,,,,,,,,,,,,,,,,,,,,,,,,,,,,,,,,,,,,,,,,,,,,,,,41,001,1,34,450,450,2022_Nov_16_1038,Experiment,2021.1.4,360.0735990407891,
images\S22_M_S_02.png,images\S22_M_S_02_scrambled.png,22,Sad,0.2,M,0,0,practice,off,1,0.5,0.75,0.5,0.751,3,,,,,,,,,,,0,6,6,3,,,,,,,,,,,,,,,,,,,,,,,,,,,,,,,,,,,,,,,,,,,275.9511157000006,276.45652450000034,276.45652450000034,277.2062622000003,277.2062622000003,277.70610680000027,277.70610680000027,278.4586625000002,278.4586625000002,None,num_4,0.8331032999994932,278.4586625000002,None,,,,,,,,,,,,,,,,,,,,,,,,,,,,,,,,,,,,,,,,,,,,,,,,,,,,,,,,,,,,,,,,,,,,,,,,,,,,,,,41,001,1,34,450,450,2022_Nov_16_1038,Experiment,2021.1.4,360.0735990407891,
images\S22_M_S_03.png,images\S22_M_S_03_scrambled.png,22,Sad,0.3,M,0,0,practice,on,2,0.5,0.75,0.5,0.794,3,,,,,,,,,,,0,7,7,7,,,,,,,,,,,,,,,,,,,,,,,,,,,,,,,,,,,,,,,,,,,279.3417175000004,279.8443655000001,279.8443655000001,280.5997551999999,280.5997551999999,281.10230279999996,281.10230279999996,281.8992564,281.8992564,None,num_6,0.41659600000002683,281.8992564,None,,,,,,,,,,,,,,,,,,,,,,,,,,,,,,,,,,,,,,,,,,,,,,,,,,,,,,,,,,,,,,,,,,,,,,,,,,,,,,,41,001,1,34,450,450,2022_Nov_16_1038,Experiment,2021.1.4,360.0735990407891,
,,,,,,,,,,,,,,,,,,,,,,,,,,,,,,,,,,,,,,,,,,,,,,,,,,,,,,,,,,,,,,,,,,,,,,,,,,,,,,,,,,,,,,282.3435681000001,None,space,25.188086199999816,,,,,,,,,,,,,,,,,,,,,,,,,,,,,,,,,,,,,,,,,,,,,,,,,,,,,,,,,,,,,,,,,,,,,,,,,,,41,001,1,34,450,450,2022_Nov_16_1038,Experiment,2021.1.4,360.0735990407891,
images\S3_F_H_02.png,images\S3_F_H_02_scrambled.png,3,happy,20,female,5,,194,on,2,0.5,0.75,0.5,0.879,3,193,1,1,1,2,2,32,128,165,,,,,,0,0,0,0,,,,,,,,,,,,,,,,,,,,,,,,,,,,,,,,,,,,,,,,,,,,,,,,,,,,,,,,,308.0300698000001,308.5355176000003,308.5355176000003,309.2908402000003,309.2908402000003,309.79341600000043,309.79341600000043,310.67647829999987,310.67647829999987,None,num_4,0.3432431999999608,310.67647829999987,None,happy,1,Happy,311.0486645700002,None,None,311.0486645700002,None,,,,,,,,,,,,,,,,,,,,,,,,,,,,,,,,,,,,,,,,,,,,,,,,,,,,,41,001,1,34,450,450,2022_Nov_16_1038,Experiment,2021.1.4,360.0735990407891,
images\S10_M_S_01.png,images\S10_M_S_01_scrambled.png,10,sad,-10,male,3,,58,off,1,0.5,0.75,0.5,0.854,3,57,1,1,1,0,0,0,0,3,,,,,,0,1,1,1,,,,,,,,,,,,,,,,,,,,,,,,,,,,,,,,,,,,,,,,,,,,,,,,,,,,,,,,,311.11801019999984,311.6206725000002,311.6206725000002,312.3731886000005,312.3731886000005,312.8758434000001,312.8758434000001,313.73667470000055,313.73667470000055,None,num_4,0.7792432999995071,313.73667470000055,None,happy,1,Sad,314.52530396000043,None,None,314.52530396000043,None,,,,,,,,,,,,,,,,,,,,,,,,,,,,,,,,,,,,,,,,,,,,,,,,,,,,,41,001,1,34,450,450,2022_Nov_16_1038,Experiment,2021.1.4,360.0735990407891,
images\S6_M_H_03.png,images\S6_M_H_03_scrambled.png,6,happy,30,male,6,,513,off,1,0.5,0.75,0.5,0.845,3,512,2,1,1,0,0,0,0,6,,,,,,0,2,2,2,,,,,,,,,,,,,,,,,,,,,,,,,,,,,,,,,,,,,,,,,,,,,,,,,,,,,,,,,314.5808305999999,315.0834654,315.0834654,315.836002,315.836002,316.3386661000004,316.3386661000004,317.1855800000003,317.1855800000003,None,num_4,0.9062859000005119,317.1855800000003,None,happy,1,Happy,318.10474452000057,None,None,318.10474452000057,None,,,,,,,,,,,,,,,,,,,,,,,,,,,,,,,,,,,,,,,,,,,,,,,,,,,,,41,001,1,34,450,450,2022_Nov_16_1038,Experiment,2021.1.4,360.0735990407891,
images\S9_F_S_03.png,images\S9_F_S_03_scrambled.png,9,sad,-30,female,1,,174,off,1,0.5,0.75,0.5,0.813,3,173,3,1,1,0,0,0,0,1,,,,,,0,3,3,3,,,,,,,,,,,,,,,,,,,,,,,,,,,,,,,,,,,,,,,,,,,,,,,,,,,,,,,,,318.1630644000006,318.6657206,318.6657206,319.4154552,319.4154552,319.91811359999974,319.91811359999974,320.7372812000003,320.7372812000003,None,num_6,0.9304701999999452,320.7372812000003,None,sad,1,Sad,321.6814309200003,None,None,321.6814309200003,None,,,,,,,,,,,,,,,,,,,,,,,,,,,,,,,,,,,,,,,,,,,,,,,,,,,,,41,001,1,34,450,450,2022_Nov_16_1038,Experiment,2021.1.4,360.0735990407891,
images\S5_F_S_03.png,images\S5_F_S_03_scrambled.png,5,sad,-30,female,1,,90,on,2,0.5,0.75,0.5,0.929,3,89,1,1,2,2,2,32,128,161,,,,,,0,4,4,4,,,,,,,,,,,,,,,,,,,,,,,,,,,,,,,,,,,,,,,,,,,,,,,,,,,,,,,,,321.73697170000014,322.2423709000004,322.2423709000004,322.9950410000001,322.9950410000001,323.49752810000064,323.49752810000064,324.43062759999975,324.43062759999975,None,num_6,0.8610873999996329,324.43062759999975,None,sad,1,Sad,325.30254392000046,None,None,325.30254392000046,None,,,,,,,,,,,,,,,,,,,,,,,,,,,,,,,,,,,,,,,,,,,,,,,,,,,,,41,001,1,34,450,450,2022_Nov_16_1038,Experiment,2021.1.4,360.0735990407891,
images\S1_F_S_03.png,images\S1_F_S_03_scrambled.png,1,sad,-30,female,1,,366,off,1,0.5,0.75,0.5,0.802,3,365,1,1,3,0,0,0,0,1,,,,,,0,5,5,5,,,,,,,,,,,,,,,,,,,,,,,,,,,,,,,,,,,,,,,,,,,,,,,,,,,,,,,,,325.3580603999999,325.8606808000004,325.8606808000004,326.61044630000015,326.61044630000015,327.11590440000055,327.11590440000055,327.92119360000015,327.92119360000015,None,num_6,0.906437100000403,327.92119360000015,None,sad,1,Sad,328.84033072000005,None,None,328.84033072000005,None,,,,,,,,,,,,,,,,,,,,,,,,,,,,,,,,,,,,,,,,,,,,,,,,,,,,,41,001,1,34,450,450,2022_Nov_16_1038,Experiment,2021.1.4,360.0735990407891,
images\S10_M_S_02.png,images\S10_M_S_02_scrambled.png,10,sad,-20,male,2,,179,off,1,0.5,0.75,0.5,0.904,3,178,2,1,1,0,0,0,0,2,,,,,,0,6,6,6,,,,,,,,,,,,,,,,,,,,,,,,,,,,,,,,,,,,,,,,,,,,,,,,,,,,,,,,,328.89586359999976,329.39570060000005,329.39570060000005,330.14830260000053,330.14830260000053,330.65090860000055,330.65090860000055,331.5617265000001,331.5617265000001,None,num_4,0.937977000000501,331.5617265000001,None,happy,1,Sad,332.5058744600003,None,None,332.5058744600003,None,,,,,,,,,,,,,,,,,,,,,,,,,,,,,,,,,,,,,,,,,,,,,,,,,,,,,41,001,1,34,450,450,2022_Nov_16_1038,Experiment,2021.1.4,360.0735990407891,
images\S9_F_S_03.png,images\S9_F_S_03_scrambled.png,9,sad,-30,female,1,,414,off,1,0.5,0.75,0.5,0.81,3,413,3,1,1,0,0,0,0,1,,,,,,0,7,7,7,,,,,,,,,,,,,,,,,,,,,,,,,,,,,,,,,,,,,,,,,,,,,,,,,,,,,,,,,332.5530591000006,333.0557361000001,333.0557361000001,333.8110453999998,333.8110453999998,334.31365370000003,334.31365370000003,335.1301428000006,335.1301428000006,None,num_4,1.0096690000000308,335.1301428000006,None,happy,1,Sad,336.1491807600007,None,None,336.1491807600007,None,,,,,,,,,,,,,,,,,,,,,,,,,,,,,,,,,,,,,,,,,,,,,,,,,,,,,41,001,1,34,450,450,2022_Nov_16_1038,Experiment,2021.1.4,360.0735990407891,
images\S8_M_S_03.png,images\S8_M_S_03_scrambled.png,8,sad,-30,male,1,,348,on,2,0.5,0.75,0.5,0.79,3,347,1,1,2,2,2,32,128,161,,,,,,0,8,8,8,,,,,,,,,,,,,,,,,,,,,,,,,,,,,,,,,,,,,,,,,,,,,,,,,,,,,,,,,336.2074925000006,336.7102160000004,336.7102160000004,337.46548690000054,337.46548690000054,337.9708879,337.9708879,338.7622519000006,338.7622519000006,None,num_6,1.0576310999995258,338.7622519000006,None,sad,1,Sad,339.83416212000014,None,None,339.83416212000014,None,,,,,,,,,,,,,,,,,,,,,,,,,,,,,,,,,,,,,,,,,,,,,,,,,,,,,41,001,1,34,450,450,2022_Nov_16_1038,Experiment,2021.1.4,360.0735990407891,
images\S8_M_H_02.png,images\S8_M_H_02_scrambled.png,8,happy,20,male,5,,524,off,1,0.5,0.75,0.5,0.807,3,523,1,2,1,0,0,0,0,5,,,,,,0,9,9,9,,,,,,,,,,,,,,,,,,,,,,,,,,,,,,,,,,,,,,,,,,,,,,,,,,,,,,,,,339.89246360000016,340.39509929999986,340.39509929999986,341.1504498000004,341.1504498000004,341.6558549000001,341.6558549000001,342.4666895999999,342.4666895999999,None,num_4,0.784977200000867,342.4666895999999,None,happy,1,Happy,343.2636561200001,None,None,343.2636561200001,None,,,,,,,,,,,,,,,,,,,,,,,,,,,,,,,,,,,,,,,,,,,,,,,,,,,,,41,001,1,34,450,450,2022_Nov_16_1038,Experiment,2021.1.4,360.0735990407891,
images\S5_F_S_03.png,images\S5_F_S_03_scrambled.png,5,sad,-30,female,1,,450,on,2,0.5,0.75,0.5,0.779,3,449,1,1,1,2,2,32,128,161,,,,,,0,10,10,10,,,,,,,,,,,,,,,,,,,,,,,,,,,,,,,,,,,,,,,,,,,,,,,,,,,,,,,,,343.3108521000004,343.81347470000037,343.81347470000037,344.5632464,344.5632464,345.0630871000003,345.0630871000003,345.8462158000002,345.8462158000002,None,num_6,1.0614536000002772,345.8462158000002,None,sad,1,Sad,346.9208603199999,None,None,346.9208603199999,None,,,,,,,,,,,,,,,,,,,,,,,,,,,,,,,,,,,,,,,,,,,,,,,,,,,,,41,001,1,34,450,450,2022_Nov_16_1038,Experiment,2021.1.4,360.0735990407891,
images\S3_F_S_03.png,images\S3_F_S_03_scrambled.png,3,sad,-30,female,1,,558,on,2,0.5,0.75,0.5,0.775,3,557,2,1,2,2,2,32,128,161,,,,,,0,11,11,11,,,,,,,,,,,,,,,,,,,,,,,,,,,,,,,,,,,,,,,,,,,,,,,,,,,,,,,,,346.9790958000003,347.4790082999998,347.4790082999998,348.2315415000003,348.2315415000003,348.7342961000004,348.7342961000004,349.5117368000001,349.5117368000001,None,num_6,0.9721314999997048,349.5117368000001,None,sad,1,Sad,350.49483682000067,None,None,350.49483682000067,None,,,,,,,,,,,,,,,,,,,,,,,,,,,,,,,,,,,,,,,,,,,,,,,,,,,,,41,001,1,34,450,450,2022_Nov_16_1038,Experiment,2021.1.4,360.0735990407891,
images\S4_M_S_03.png,images\S4_M_S_03_scrambled.png,4,sad,-30,male,1,,24,off,1,0.5,0.75,0.5,0.872,3,23,1,1,3,0,0,0,0,1,,,,,,0,12,12,12,,,,,,,,,,,,,,,,,,,,,,,,,,,,,,,,,,,,,,,,,,,,,,,,,,,,,,,,,350.5530515999999,351.0557219000002,351.0557219000002,351.81103950000033,351.81103950000033,352.3164258000006,352.3164258000006,353.1911283999998,353.1911283999998,None,num_6,0.828577000000223,353.1911283999998,None,sad,1,Sad,354.0492430000004,None,None,354.0492430000004,None,,,,,,,,,,,,,,,,,,,,,,,,,,,,,,,,,,,,,,,,,,,,,,,,,,,,,41,001,1,34,450,450,2022_Nov_16_1038,Experiment,2021.1.4,360.0735990407891,
images\S2_M_S_02.png,images\S2_M_S_02_scrambled.png,2,sad,-20,male,2,,191,on,2,0.5,0.75,0.5,0.831,3,190,1,1,1,2,2,32,128,162,,,,,,0,13,13,13,,,,,,,,,,,,,,,,,,,,,,,,,,,,,,,,,,,,,,,,,,,,,,,,,,,,,,,,,354.1186244999999,354.6184721999998,354.6184721999998,355.3682325999998,355.3682325999998,355.8708948000003,355.8708948000003,356.70675350000056,356.70675350000056,None,num_4,0.6488854999997784,356.70675350000056,None,happy,1,Sad,357.36207326000044,None,None,357.36207326000044,None,,,,,,,,,,,,,,,,,,,,,,,,,,,,,,,,,,,,,,,,,,,,,,,,,,,,,41,001,1,34,450,450,2022_Nov_16_1038,Experiment,2021.1.4,360.0735990407891,
images\S5_F_H_03.png,images\S5_F_H_03_scrambled.png,5,happy,30,female,6,,147,off,1,0.5,0.75,0.5,0.861,3,146,1,1,1,0,0,0,0,6,,,,,,0,14,14,14,,,,,,,,,,,,,,,,,,,,,,,,,,,,,,,,,,,,,,,,,,,,,,,,,,,,,,,,,357.4203881000003,357.92022,357.92022,358.67558819999977,358.67558819999977,359.1809936999998,359.1809936999998,360.04459730000053,360.04459730000053,None,num_4,0.8230106000000887,360.04459730000053,None,happy,1,Happy,360.88044182000016,None,None,360.88044182000016,None,,,,,,,,,,,,,,,,,,,,,,,,,,,,,,,,,,,,,,,,,,,,,,,,,,,,,41,001,1,34,450,450,2022_Nov_16_1038,Experiment,2021.1.4,360.0735990407891,
images\S6_M_S_03.png,images\S6_M_S_03_scrambled.png,6,sad,-30,male,1,,216,on,2,0.5,0.75,0.5,0.934,3,215,1,1,1,2,2,32,128,161,,,,,,0,15,15,15,,,,,,,,,,,,,,,,,,,,,,,,,,,,,,,,,,,,,,,,,,,,,,,,,,,,,,,,,360.93874289999985,361.44138459999976,361.44138459999976,362.1967077999998,362.1967077999998,362.69652190000033,362.69652190000033,363.63521820000005,363.63521820000005,None,num_6,0.6244057999992947,363.63521820000005,None,sad,1,Sad,364.27105912000064,None,None,364.27105912000064,None,,,,,,,,,,,,,,,,,,,,,,,,,,,,,,,,,,,,,,,,,,,,,,,,,,,,,41,001,1,34,450,450,2022_Nov_16_1038,Experiment,2021.1.4,360.0735990407891,
images\S4_M_H_01.png,images\S4_M_H_01_scrambled.png,4,happy,10,male,4,,559,on,2,0.5,0.75,0.5,0.95,3,558,2,1,1,2,2,32,128,164,,,,,,0,16,16,16,,,,,,,,,,,,,,,,,,,,,,,,,,,,,,,,,,,,,,,,,,,,,,,,,,,,,,,,,364.3265787,364.82928809999976,364.82928809999976,365.58461480000005,365.58461480000005,366.09004730000015,366.09004730000015,367.0452734999999,367.0452734999999,None,num_4,0.6543454000002384,367.0452734999999,None,happy,1,Happy,367.7144377200006,None,None,367.7144377200006,None,,,,,,,,,,,,,,,,,,,,,,,,,,,,,,,,,,,,,,,,,,,,,,,,,,,,,41,001,1,34,450,450,2022_Nov_16_1038,Experiment,2021.1.4,360.0735990407891,
images\S10_M_S_03.png,images\S10_M_S_03_scrambled.png,10,sad,-30,male,1,,300,off,1,0.5,0.75,0.5,0.874,3,299,1,1,1,0,0,0,0,1,,,,,,0,17,17,17,,,,,,,,,,,,,,,,,,,,,,,,,,,,,,,,,,,,,,,,,,,,,,,,,,,,,,,,,367.7699585999999,368.2725795000006,368.2725795000006,369.0252085000002,369.0252085000002,369.53056800000013,369.53056800000013,370.4108513000001,370.4108513000001,None,num_4,1.0887172000002465,370.4108513000001,None,happy,1,Sad,371.50493636000033,None,None,371.50493636000033,None,,,,,,,,,,,,,,,,,,,,,,,,,,,,,,,,,,,,,,,,,,,,,,,,,,,,,41,001,1,34,450,450,2022_Nov_16_1038,Experiment,2021.1.4,360.0735990407891,
images\S4_M_H_02.png,images\S4_M_H_02_scrambled.png,4,happy,20,male,5,,380,off,1,0.5,0.75,0.5,0.862,3,379,2,1,1,0,0,0,0,5,,,,,,0,18,18,18,,,,,,,,,,,,,,,,,,,,,,,,,,,,,,,,,,,,,,,,,,,,,,,,,,,,,,,,,371.5632658000004,372.06589390000045,372.06589390000045,372.8212064999998,372.8212064999998,373.3266014000001,373.3266014000001,374.1901951,374.1901951,None,num_4,1.0454204999996364,374.1901951,None,happy,1,Happy,375.2482224200007,None,None,375.2482224200007,None,,,,,,,,,,,,,,,,,,,,,,,,,,,,,,,,,,,,,,,,,,,,,,,,,,,,,41,001,1,34,450,450,2022_Nov_16_1038,Experiment,2021.1.4,360.0735990407891,
images\S7_F_S_02.png,images\S7_F_S_02_scrambled.png,7,sad,-20,female,2,,221,on,2,0.5,0.75,0.5,0.787,3,220,1,1,1,2,2,32,128,162,,,,,,0,19,19,19,,,,,,,,,,,,,,,,,,,,,,,,,,,,,,,,,,,,,,,,,,,,,,,,,,,,,,,,,375.3093034000003,375.81482440000036,375.81482440000036,376.56448629999977,376.56448629999977,377.0643412999998,377.0643412999998,377.8557778000004,377.8557778000004,None,num_4,0.7319158999998763,377.8557778000004,None,happy,1,Sad,378.6000430900006,None,None,378.6000430900006,None,,,,,,,,,,,,,,,,,,,,,,,,,,,,,,,,,,,,,,,,,,,,,,,,,,,,,41,001,1,34,450,450,2022_Nov_16_1038,Experiment,2021.1.4,360.0735990407891,
images\S8_M_H_02.png,images\S8_M_H_02_scrambled.png,8,happy,20,male,5,,104,on,2,0.5,0.75,0.5,0.949,3,103,2,1,1,2,2,32,128,165,,,,,,0,20,20,20,,,,,,,,,,,,,,,,,,,,,,,,,,,,,,,,,,,,,,,,,,,,,,,,,,,,,,,,,378.6610399000001,379.1637952000001,379.1637952000001,379.9134371,379.9134371,380.41333040000063,380.41333040000063,381.3685626000006,381.3685626000006,None,num_4,0.9391343999996025,381.3685626000006,None,happy,1,Happy,382.31825832,None,None,382.31825832,None,,,,,,,,,,,,,,,,,,,,,,,,,,,,,,,,,,,,,,,,,,,,,,,,,,,,,41,001,1,34,450,450,2022_Nov_16_1038,Experiment,2021.1.4,360.0735990407891,
images\S5_F_H_03.png,images\S5_F_H_03_scrambled.png,5,happy,30,female,6,,27,off,1,0.5,0.75,0.5,0.825,3,26,1,1,1,0,0,0,0,6,,,,,,0,21,21,21,,,,,,,,,,,,,,,,,,,,,,,,,,,,,,,,,,,,,,,,,,,,,,,,,,,,,,,,,382.3654529000005,382.8652941,382.8652941,383.62066200000027,383.62066200000027,384.1260589000003,384.1260589000003,384.95358040000065,384.95358040000065,None,num_4,1.1540592999999717,384.95358040000065,None,happy,1,Happy,386.1226530500003,None,None,386.1226530500003,None,,,,,,,,,,,,,,,,,,,,,,,,,,,,,,,,,,,,,,,,,,,,,,,,,,,,,41,001,1,34,450,450,2022_Nov_16_1038,Experiment,2021.1.4,360.0735990407891,
images\S4_M_S_03.png,images\S4_M_S_03_scrambled.png,4,sad,-30,male,1,,444,on,2,0.5,0.75,0.5,0.848,3,443,1,1,1,2,2,32,128,161,,,,,,0,22,22,22,,,,,,,,,,,,,,,,,,,,,,,,,,,,,,,,,,,,,,,,,,,,,,,,,,,,,,,,,386.16985900000054,386.6724761000005,386.6724761000005,387.42508270000053,387.42508270000053,387.9304404000004,387.9304404000004,388.7829219000005,388.7829219000005,None,num_6,1.1088122999999541,388.7829219000005,None,sad,1,Sad,389.90480562000033,None,None,389.90480562000033,None,,,,,,,,,,,,,,,,,,,,,,,,,,,,,,,,,,,,,,,,,,,,,,,,,,,,,41,001,1,34,450,450,2022_Nov_16_1038,Experiment,2021.1.4,360.0735990407891,
images\S1_F_S_01.png,images\S1_F_S_01_scrambled.png,1,sad,-10,female,3,,424,on,2,0.5,0.75,0.5,0.829,3,423,2,1,1,2,2,32,128,163,,,,,,0,23,23,23,,,,,,,,,,,,,,,,,,,,,,,,,,,,,,,,,,,,,,,,,,,,,,,,,,,,,,,,,389.9853176000006,390.4852015000006,390.4852015000006,391.24053559999993,391.24053559999993,391.7459254000005,391.7459254000005,392.5817543000003,392.5817543000003,None,num_4,0.7818078000000241,392.5817543000003,None,happy,1,Sad,393.3704037600003,None,None,393.3704037600003,None,,,,,,,,,,,,,,,,,,,,,,,,,,,,,,,,,,,,,,,,,,,,,,,,,,,,,41,001,1,34,450,450,2022_Nov_16_1038,Experiment,2021.1.4,360.0735990407891,
images\S9_F_H_03.png,images\S9_F_H_03_scrambled.png,9,happy,30,female,6,,291,off,1,0.5,0.75,0.5,0.901,3,290,1,1,1,0,0,0,0,6,,,,,,0,24,24,24,,,,,,,,,,,,,,,,,,,,,,,,,,,,,,,,,,,,,,,,,,,,,,,,,,,,,,,,,393.4592456999999,393.96479739999995,393.96479739999995,394.7200769000001,394.7200769000001,395.22541700000056,395.22541700000056,396.1306432000001,396.1306432000001,None,num_4,0.8730025000004389,396.1306432000001,None,happy,1,Happy,397.0249421400002,None,None,397.0249421400002,None,,,,,,,,,,,,,,,,,,,,,,,,,,,,,,,,,,,,,,,,,,,,,,,,,,,,,41,001,1,34,450,450,2022_Nov_16_1038,Experiment,2021.1.4,360.0735990407891,
images\blank.jpg,images\blank.jpg,none,none,none,none,0,,620,on,2,0.5,0.75,0.5,0.873,0,619,1,1,1,3,3,48,192,240,,,,,,0,25,25,25,,,,,,,,,,,,,,,,,,,,,,,,,,,,,,,,,,,,,,,,,,,,,,,,,,,,,,,,,397.18333340000027,397.68575990000045,397.68575990000045,398.44108060000053,398.44108060000053,398.9436990000004,398.9436990000004,399.82117240000025,399.82117240000025,399.82117240000025,None,,399.82117240000025,None,miss,1,,402.8230788600006,None,None,402.8230788600006,None,,,,,,,,,,,,,,,,,,,,,,,,,,,,,,,,,,,,,,,,,,,,,,,,,,,,,41,001,1,34,450,450,2022_Nov_16_1038,Experiment,2021.1.4,360.0735990407891,
images\S8_M_S_01.png,images\S8_M_S_01_scrambled.png,8,sad,-10,male,3,,526,off,1,0.5,0.75,0.5,0.844,3,525,1,1,1,0,0,0,0,3,,,,,,0,26,26,26,,,,,,,,,,,,,,,,,,,,,,,,,,,,,,,,,,,,,,,,,,,,,,,,,,,,,,,,,402.9814978000004,403.48405660000026,403.48405660000026,404.2364984000005,404.2364984000005,404.73920460000045,404.73920460000045,405.58609870000055,405.58609870000055,None,num_6,0.913561700000173,405.58609870000055,402.9814978000004,sad,1,Sad,406.51356832000005,None,None,406.51356832000005,None,,,,,,,,,,,,,,,,,,,,,,,,,,,,,,,,,,,,,,,,,,,,,,,,,,,,,41,001,1,34,450,450,2022_Nov_16_1038,Experiment,2021.1.4,360.0735990407891,
images\S7_F_S_02.png,images\S7_F_S_02_scrambled.png,7,sad,-20,female,2,,521,off,1,0.5,0.75,0.5,0.814,3,520,2,1,1,0,0,0,0,2,,,,,,0,27,27,27,,,,,,,,,,,,,,,,,,,,,,,,,,,,,,,,,,,,,,,,,,,,,,,,,,,,,,,,,406.5607570000002,407.06337390000044,407.06337390000044,407.81596609999997,407.81596609999997,408.318585,408.318585,409.1351120999998,409.1351120999998,None,num_6,1.108419999999569,409.1351120999998,None,sad,1,Sad,410.25685522000043,None,None,410.25685522000043,None,,,,,,,,,,,,,,,,,,,,,,,,,,,,,,,,,,,,,,,,,,,,,,,,,,,,,41,001,1,34,450,450,2022_Nov_16_1038,Experiment,2021.1.4,360.0735990407891,
images\S3_F_H_03.png,images\S3_F_H_03_scrambled.png,3,happy,30,female,6,,75,on,2,0.5,0.75,0.5,0.865,3,74,1,1,1,2,2,32,128,166,,,,,,0,28,28,28,,,,,,,,,,,,,,,,,,,,,,,,,,,,,,,,,,,,,,,,,,,,,,,,,,,,,,,,,410.3151508000001,410.8205871,410.8205871,411.5702964000002,411.5702964000002,412.0729955000006,412.0729955000006,412.9449921000005,412.9449921000005,None,num_4,0.7705080999994607,412.9449921000005,None,happy,1,Happy,413.72800562000015,None,None,413.72800562000015,None,,,,,,,,,,,,,,,,,,,,,,,,,,,,,,,,,,,,,,,,,,,,,,,,,,,,,41,001,1,34,450,450,2022_Nov_16_1038,Experiment,2021.1.4,360.0735990407891,
images\blank.jpg,images\blank.jpg,none,none,none,none,0,,636,on,2,0.5,0.75,0.5,0.804,0,635,2,1,1,3,3,48,192,240,,,,,,0,29,29,29,,,,,,,,,,,,,,,,,,,,,,,,,,,,,,,,,,,,,,,,,,,,,,,,,,,,,,,,,413.8143120000004,414.31672960000014,414.31672960000014,415.0720349000003,415.0720349000003,415.57476719999977,415.57476719999977,416.3828160000003,416.3828160000003,416.3828160000003,None,,416.3828160000003,None,miss,1,,419.38741245999995,None,None,419.38741245999995,None,,,,,,,,,,,,,,,,,,,,,,,,,,,,,,,,,,,,,,,,,,,,,,,,,,,,,41,001,1,34,450,450,2022_Nov_16_1038,Experiment,2021.1.4,360.0735990407891,
images\S9_F_S_01.png,images\S9_F_S_01_scrambled.png,9,sad,-10,female,3,,52,off,1,0.5,0.75,0.5,0.827,3,51,1,1,1,0,0,0,0,3,,,,,,0,30,30,30,,,,,,,,,,,,,,,,,,,,,,,,,,,,,,,,,,,,,,,,,,,,,,,,,,,,,,,,,419.5348064,420.0343674000005,420.0343674000005,420.78693699999985,420.78693699999985,421.2896480999998,421.2896480999998,422.11992350000037,422.11992350000037,None,num_4,0.019700799999554874,422.11992350000037,419.5348064,happy,1,Sad,422.15336209000026,None,None,422.15336209000026,None,,,,,,,,,,,,,,,,,,,,,,,,,,,,,,,,,,,,,,,,,,,,,,,,,,,,,41,001,1,34,450,450,2022_Nov_16_1038,Experiment,2021.1.4,360.0735990407891,
images\S3_F_H_02.png,images\S3_F_H_02_scrambled.png,3,happy,20,female,5,,434,on,2,0.5,0.75,0.5,0.897,3,433,1,1,1,2,2,32,128,165,,,,,,0,31,31,31,,,,,,,,,,,,,,,,,,,,,,,,,,,,,,,,,,,,,,,,,,,,,,,,,,,,,,,,,422.2114775,422.71687199999997,422.71687199999997,423.46944820000044,423.46944820000044,423.97491790000004,423.97491790000004,424.8746425999998,424.8746425999998,None,num_4,0.6331113999995068,424.8746425999998,None,happy,1,Happy,425.52158062000075,None,None,425.52158062000075,None,,,,,,,,,,,,,,,,,,,,,,,,,,,,,,,,,,,,,,,,,,,,,,,,,,,,,41,001,1,34,450,450,2022_Nov_16_1038,Experiment,2021.1.4,360.0735990407891,
images\S2_M_H_03.png,images\S2_M_H_03_scrambled.png,2,happy,30,male,6,,129,off,1,0.5,0.75,0.5,0.934,3,128,1,1,1,0,0,0,0,6,,,,,,0,32,32,32,,,,,,,,,,,,,,,,,,,,,,,,,,,,,,,,,,,,,,,,,,,,,,,,,,,,,,,,,425.60488129999976,426.10750180000014,426.10750180000014,426.85726239999985,426.85726239999985,427.3599721999999,427.3599721999999,428.2957486000005,428.2957486000005,None,num_4,0.8517676999999821,428.2957486000005,None,happy,1,Happy,429.15935071999996,None,None,429.15935071999996,None,,,,,,,,,,,,,,,,,,,,,,,,,,,,,,,,,,,,,,,,,,,,,,,,,,,,,41,001,1,34,450,450,2022_Nov_16_1038,Experiment,2021.1.4,360.0735990407891,
images\S6_M_H_03.png,images\S6_M_H_03_scrambled.png,6,happy,30,male,6,,273,off,1,0.5,0.75,0.5,0.913,3,272,2,1,2,0,0,0,0,6,,,,,,0,33,33,33,,,,,,,,,,,,,,,,,,,,,,,,,,,,,,,,,,,,,,,,,,,,,,,,,,,,,,,,,429.2065405000003,429.7119558000004,429.7119558000004,430.46451119999983,430.46451119999983,430.9699752000006,430.9699752000006,431.8862850000005,431.8862850000005,None,num_4,0.9572969999999259,431.8862850000005,None,happy,1,Happy,432.8609836200007,None,None,432.8609836200007,None,,,,,,,,,,,,,,,,,,,,,,,,,,,,,,,,,,,,,,,,,,,,,,,,,,,,,41,001,1,34,450,450,2022_Nov_16_1038,Experiment,2021.1.4,360.0735990407891,
images\S7_F_S_01.png,images\S7_F_S_01_scrambled.png,7,sad,-10,female,3,,100,on,2,0.5,0.75,0.5,0.86,3,99,1,1,1,2,2,32,128,163,,,,,,0,34,34,34,,,,,,,,,,,,,,,,,,,,,,,,,,,,,,,,,,,,,,,,,,,,,,,,,,,,,,,,,432.94149689999995,433.4442638999999,433.4442638999999,434.1995340000003,434.1995340000003,434.70496679999997,434.70496679999997,435.56851069999993,435.56851069999993,None,num_4,1.1231463999993139,435.56851069999993,None,happy,1,Sad,436.7014534600005,None,None,436.7014534600005,None,,,,,,,,,,,,,,,,,,,,,,,,,,,,,,,,,,,,,,,,,,,,,,,,,,,,,41,001,1,34,450,450,2022_Nov_16_1038,Experiment,2021.1.4,360.0735990407891,
images\S2_M_S_02.png,images\S2_M_S_02_scrambled.png,2,sad,-20,male,2,,131,off,1,0.5,0.75,0.5,0.932,3,130,1,1,1,0,0,0,0,2,,,,,,0,35,35,35,,,,,,,,,,,,,,,,,,,,,,,,,,,,,,,,,,,,,,,,,,,,,,,,,,,,,,,,,436.7486558999999,437.25130480000007,437.25130480000007,438.0038613000006,438.0038613000006,438.50644210000064,438.50644210000064,439.4422783,439.4422783,None,num_4,1.1291990999998234,439.4422783,None,happy,1,Sad,440.58079016000033,None,None,440.58079016000033,None,,,,,,,,,,,,,,,,,,,,,,,,,,,,,,,,,,,,,,,,,,,,,,,,,,,,,41,001,1,34,450,450,2022_Nov_16_1038,Experiment,2021.1.4,360.0735990407891,
images\S8_M_H_03.png,images\S8_M_H_03_scrambled.png,8,happy,30,male,6,,105,on,2,0.5,0.75,0.5,0.948,3,104,1,1,1,2,2,32,128,166,,,,,,0,36,36,36,,,,,,,,,,,,,,,,,,,,,,,,,,,,,,,,,,,,,,,,,,,,,,,,,,,,,,,,,440.6641074999998,441.1667630000002,441.1667630000002,441.9193073000006,441.9193073000006,442.4219204000001,442.4219204000001,443.37717969999994,443.37717969999994,None,num_4,1.0743249000006472,443.37717969999994,None,happy,1,Happy,444.4629624200001,None,None,444.4629624200001,None,,,,,,,,,,,,,,,,,,,,,,,,,,,,,,,,,,,,,,,,,,,,,,,,,,,,,41,001,1,34,450,450,2022_Nov_16_1038,Experiment,2021.1.4,360.0735990407891,
images\S2_M_S_03.png,images\S2_M_S_03_scrambled.png,2,sad,-30,male,1,,252,off,1,0.5,0.75,0.5,0.921,3,251,1,1,1,0,0,0,0,1,,,,,,0,37,37,37,,,,,,,,,,,,,,,,,,,,,,,,,,,,,,,,,,,,,,,,,,,,,,,,,,,,,,,,,444.5462588999999,445.0490117999998,445.0490117999998,445.7986436000001,445.7986436000001,446.3041675000004,446.3041675000004,447.2259734999998,447.2259734999998,None,num_6,0.8655226999999286,447.2259734999998,None,sad,1,Sad,448.1062704200007,None,None,448.1062704200007,None,,,,,,,,,,,,,,,,,,,,,,,,,,,,,,,,,,,,,,,,,,,,,,,,,,,,,41,001,1,34,450,450,2022_Nov_16_1038,Experiment,2021.1.4,360.0735990407891,
images\S2_M_S_01.png,images\S2_M_S_01_scrambled.png,2,sad,-10,male,3,,190,on,2,0.5,0.75,0.5,0.799,3,189,1,2,1,2,2,32,128,163,,,,,,0,38,38,38,,,,,,,,,,,,,,,,,,,,,,,,,,,,,,,,,,,,,,,,,,,,,,,,,,,,,,,,,448.1840028000006,448.68666850000045,448.68666850000045,449.4363978000001,449.4363978000001,449.93917520000014,449.93917520000014,450.7415783000006,450.7415783000006,None,num_4,1.0700613999997586,450.7415783000006,None,happy,1,Sad,451.8190103600002,None,None,451.8190103600002,None,,,,,,,,,,,,,,,,,,,,,,,,,,,,,,,,,,,,,,,,,,,,,,,,,,,,,41,001,1,34,450,450,2022_Nov_16_1038,Experiment,2021.1.4,360.0735990407891,
images\S4_M_H_03.png,images\S4_M_H_03_scrambled.png,4,happy,30,male,6,,261,off,1,0.5,0.75,0.5,0.819,3,260,1,1,1,0,0,0,0,6,,,,,,0,39,39,39,,,,,,,,,,,,,,,,,,,,,,,,,,,,,,,,,,,,,,,,,,,,,,,,,,,,,,,,,451.90231180000046,452.4049405000005,452.4049405000005,453.1603064000001,453.1603064000001,453.6600908999999,453.6600908999999,454.48209730000053,454.48209730000053,None,num_4,1.1534133000004658,454.48209730000053,None,happy,1,Happy,455.6483869200005,None,None,455.6483869200005,None,,,,,,,,,,,,,,,,,,,,,,,,,,,,,,,,,,,,,,,,,,,,,,,,,,,,,41,001,1,34,450,450,2022_Nov_16_1038,Experiment,2021.1.4,360.0735990407891,
images\blank.jpg,images\blank.jpg,none,none,none,none,0,,635,on,2,0.5,0.75,0.5,0.766,0,634,1,1,1,3,3,48,192,240,,,,,,0,40,40,40,,,,,,,,,,,,,,,,,,,,,,,,,,,,,,,,,,,,,,,,,,,,,,,,,,,,,,,,,455.73197450000043,456.2343193000006,456.2343193000006,456.9868655,456.9868655,457.48949619999985,457.48949619999985,458.26148230000035,458.26148230000035,458.26148230000035,None,,458.26148230000035,None,miss,1,,461.2605871300003,None,None,461.2605871300003,None,,,,,,,,,,,,,,,,,,,,,,,,,,,,,,,,,,,,,,,,,,,,,,,,,,,,,41,001,1,34,450,450,2022_Nov_16_1038,Experiment,2021.1.4,360.0735990407891,
images\blank.jpg,images\blank.jpg,none,none,none,none,0,,614,on,2,0.5,0.75,0.5,0.881,0,613,2,2,2,3,3,48,192,240,,,,,,0,41,41,41,,,,,,,,,,,,,,,,,,,,,,,,,,,,,,,,,,,,,,,,,,,,,,,,,,,,,,,,,461.29107960000056,461.79092149999997,461.79092149999997,462.54068950000055,462.54068950000055,463.04612499999985,463.04612499999985,463.92915300000004,463.92915300000004,463.92915300000004,None,,463.92915300000004,461.29107960000056,miss,1,,466.93105973000013,None,None,466.93105973000013,None,,,,,,,,,,,,,,,,,,,,,,,,,,,,,,,,,,,,,,,,,,,,,,,,,,,,,41,001,1,34,450,450,2022_Nov_16_1038,Experiment,2021.1.4,360.0735990407891,
images\blank.jpg,images\blank.jpg,none,none,none,none,0,,649,on,2,0.5,0.75,0.5,0.814,0,648,3,3,3,3,3,48,192,240,,,,,,0,42,42,42,,,,,,,,,,,,,,,,,,,,,,,,,,,,,,,,,,,,,,,,,,,,,,,,,,,,,,,,,466.9615558000005,467.4642881,467.4642881,468.2167300000001,468.2167300000001,468.7194715000005,468.7194715000005,469.5330313000004,469.5330313000004,469.5330313000004,None,,469.5330313000004,466.9615558000005,miss,1,,472.53491246,None,None,472.53491246,None,,,,,,,,,,,,,,,,,,,,,,,,,,,,,,,,,,,,,,,,,,,,,,,,,,,,,41,001,1,34,450,450,2022_Nov_16_1038,Experiment,2021.1.4,360.0735990407891,
images\S3_F_H_01.png,images\S3_F_H_01_scrambled.png,3,happy,10,female,4,,73,on,2,0.5,0.75,0.5,0.768,3,72,4,1,1,2,2,32,128,164,,,,,,0,43,43,43,,,,,,,,,,,,,,,,,,,,,,,,,,,,,,,,,,,,,,,,,,,,,,,,,,,,,,,,,472.6820859999998,473.1847628000005,473.1847628000005,473.9400254000002,473.9400254000002,474.4454028,474.4454028,475.2201343000006,475.2201343000006,None,num_4,0.7194792999998754,475.2201343000006,472.6820859999998,happy,1,Happy,475.9504596199999,None,None,475.9504596199999,None,,,,,,,,,,,,,,,,,,,,,,,,,,,,,,,,,,,,,,,,,,,,,,,,,,,,,41,001,1,34,450,450,2022_Nov_16_1038,Experiment,2021.1.4,360.0735990407891,
images\S10_M_H_03.png,images\S10_M_H_03_scrambled.png,10,happy,30,male,6,,417,off,1,0.5,0.75,0.5,0.88,3,416,1,1,1,0,0,0,0,6,,,,,,0,44,44,44,,,,,,,,,,,,,,,,,,,,,,,,,,,,,,,,,,,,,,,,,,,,,,,,,,,,,,,,,476.03373569999985,476.5363935000005,476.5363935000005,477.2917134999998,477.2917134999998,477.7944539,477.7944539,478.6773896000004,478.6773896000004,None,num_4,0.5581214000003456,478.6773896000004,None,happy,1,Happy,479.2466518200003,None,None,479.2466518200003,None,,,,,,,,,,,,,,,,,,,,,,,,,,,,,,,,,,,,,,,,,,,,,,,,,,,,,41,001,1,34,450,450,2022_Nov_16_1038,Experiment,2021.1.4,360.0735990407891,
images\S8_M_H_03.png,images\S8_M_H_03_scrambled.png,8,happy,30,male,6,,405,off,1,0.5,0.75,0.5,0.788,3,404,2,1,2,0,0,0,0,6,,,,,,0,45,45,45,,,,,,,,,,,,,,,,,,,,,,,,,,,,,,,,,,,,,,,,,,,,,,,,,,,,,,,,,479.29383490000055,479.79938370000036,479.79938370000036,480.5518097000004,480.5518097000004,481.0544146000002,481.0544146000002,481.84588070000063,481.84588070000063,None,num_4,0.8855514999995648,481.84588070000063,None,happy,1,Happy,482.7427997200006,None,None,482.7427997200006,None,,,,,,,,,,,,,,,,,,,,,,,,,,,,,,,,,,,,,,,,,,,,,,,,,,,,,41,001,1,34,450,450,2022_Nov_16_1038,Experiment,2021.1.4,360.0735990407891,
images\S1_F_S_01.png,images\S1_F_S_01_scrambled.png,1,sad,-10,female,3,,4,off,1,0.5,0.75,0.5,0.853,3,3,3,1,1,0,0,0,0,3,,,,,,0,46,46,46,,,,,,,,,,,,,,,,,,,,,,,,,,,,,,,,,,,,,,,,,,,,,,,,,,,,,,,,,482.78998860000047,483.29544239999996,483.29544239999996,484.04516049999984,484.04516049999984,484.5505978000001,484.5505978000001,485.4058493000002,485.4058493000002,None,num_4,0.7736409999997704,485.4058493000002,None,happy,1,Sad,486.1861766600007,None,None,486.1861766600007,None,,,,,,,,,,,,,,,,,,,,,,,,,,,,,,,,,,,,,,,,,,,,,,,,,,,,,41,001,1,34,450,450,2022_Nov_16_1038,Experiment,2021.1.4,360.0735990407891,
images\S2_M_S_02.png,images\S2_M_S_02_scrambled.png,2,sad,-20,male,2,,491,off,1,0.5,0.75,0.5,0.767,3,490,4,1,1,0,0,0,0,2,,,,,,0,47,47,47,,,,,,,,,,,,,,,,,,,,,,,,,,,,,,,,,,,,,,,,,,,,,,,,,,,,,,,,,486.2333692000002,486.73599209999975,486.73599209999975,487.4913422999998,487.4913422999998,487.99406009999984,487.99406009999984,488.7659614000004,488.7659614000004,None,num_4,0.7256379999998899,488.7659614000004,None,happy,1,Sad,489.4962692600004,None,None,489.4962692600004,None,,,,,,,,,,,,,,,,,,,,,,,,,,,,,,,,,,,,,,,,,,,,,,,,,,,,,41,001,1,34,450,450,2022_Nov_16_1038,Experiment,2021.1.4,360.0735990407891,
images\S2_M_S_02.png,images\S2_M_S_02_scrambled.png,2,sad,-20,male,2,,71,on,2,0.5,0.75,0.5,0.757,3,70,1,2,2,2,2,32,128,162,,,,,,0,48,48,48,,,,,,,,,,,,,,,,,,,,,,,,,,,,,,,,,,,,,,,,,,,,,,,,,,,,,,,,,489.54346330000044,490.04330780000055,490.04330780000055,490.7930821,490.7930821,491.29297140000017,491.29297140000017,492.05659079999987,492.05659079999987,None,num_4,0.6668196000000535,492.05659079999987,None,happy,1,Sad,492.7285991600004,None,None,492.7285991600004,None,,,,,,,,,,,,,,,,,,,,,,,,,,,,,,,,,,,,,,,,,,,,,,,,,,,,,41,001,1,34,450,450,2022_Nov_16_1038,Experiment,2021.1.4,360.0735990407891,
images\S8_M_H_03.png,images\S8_M_H_03_scrambled.png,8,happy,30,male,6,,225,on,2,0.5,0.75,0.5,0.847,3,224,2,1,1,2,2,32,128,166,,,,,,0,49,49,49,,,,,,,,,,,,,,,,,,,,,,,,,,,,,,,,,,,,,,,,,,,,,,,,,,,,,,,,,492.7757822000003,493.2812244000006,493.2812244000006,494.03386969999974,494.03386969999974,494.5363545,494.5363545,495.3861366000001,495.3861366000001,None,num_4,0.8332430000000386,495.3861366000001,None,happy,1,Happy,496.23030602000057,None,None,496.23030602000057,None,,,,,,,,,,,,,,,,,,,,,,,,,,,,,,,,,,,,,,,,,,,,,,,,,,,,,41,001,1,34,450,450,2022_Nov_16_1038,Experiment,2021.1.4,360.0735990407891,
images\blank.jpg,images\blank.jpg,none,none,none,none,0,,606,on,2,0.5,0.75,0.5,0.84,0,605,3,1,1,3,3,48,192,240,,,,,,0,50,50,50,,,,,,,,,,,,,,,,,,,,,,,,,,,,,,,,,,,,,,,,,,,,,,,,,,,,,,,,,496.31382290000056,496.8162374000003,496.8162374000003,497.5659835000006,497.5659835000006,498.0686433000001,498.0686433000001,498.9155885,498.9155885,498.9155885,None,,498.9155885,None,miss,1,,501.9174948600005,None,None,501.9174948600005,None,,,,,,,,,,,,,,,,,,,,,,,,,,,,,,,,,,,,,,,,,,,,,,,,,,,,,41,001,1,34,450,450,2022_Nov_16_1038,Experiment,2021.1.4,360.0735990407891,
images\S4_M_H_01.png,images\S4_M_H_01_scrambled.png,4,happy,10,male,4,,439,on,2,0.5,0.75,0.5,0.913,3,438,4,1,1,2,2,32,128,164,,,,,,0,51,51,51,,,,,,,,,,,,,,,,,,,,,,,,,,,,,,,,,,,,,,,,,,,,,,,,,,,,,,,,,502.03707589999976,502.53957009999976,502.53957009999976,503.2920015999998,503.2920015999998,503.7947356000004,503.7947356000004,504.71103930000027,504.71103930000027,None,num_4,0.6606807999996818,504.71103930000027,502.03707589999976,happy,1,Happy,505.3857962200004,None,None,505.3857962200004,None,,,,,,,,,,,,,,,,,,,,,,,,,,,,,,,,,,,,,,,,,,,,,,,,,,,,,41,001,1,34,450,450,2022_Nov_16_1038,Experiment,2021.1.4,360.0735990407891,
images\S7_F_S_03.png,images\S7_F_S_03_scrambled.png,7,sad,-30,female,1,,402,off,1,0.5,0.75,0.5,0.918,3,401,1,1,1,0,0,0,0,1,,,,,,0,52,52,52,,,,,,,,,,,,,,,,,,,,,,,,,,,,,,,,,,,,,,,,,,,,,,,,,,,,,,,,,505.46633810000003,505.9661710999999,505.9661710999999,506.71591760000047,506.71591760000047,507.21857330000057,507.21857330000057,508.1405517000003,508.1405517000003,None,num_6,0.6229246000002604,508.1405517000003,None,sad,1,Sad,508.7736491200007,None,None,508.7736491200007,None,,,,,,,,,,,,,,,,,,,,,,,,,,,,,,,,,,,,,,,,,,,,,,,,,,,,,41,001,1,34,450,450,2022_Nov_16_1038,Experiment,2021.1.4,360.0735990407891,
images\S1_F_S_02.png,images\S1_F_S_02_scrambled.png,1,sad,-20,female,2,,485,off,1,0.5,0.75,0.5,0.819,3,484,2,1,1,0,0,0,0,2,,,,,,0,53,53,53,,,,,,,,,,,,,,,,,,,,,,,,,,,,,,,,,,,,,,,,,,,,,,,,,,,,,,,,,508.8569398999998,509.3596898000005,509.3596898000005,510.1093582000003,510.1093582000003,510.60920110000006,510.60920110000006,511.4311426000004,511.4311426000004,None,num_4,0.9324400999994396,511.4311426000004,None,happy,1,Sad,512.3725336600003,None,None,512.3725336600003,None,,,,,,,,,,,,,,,,,,,,,,,,,,,,,,,,,,,,,,,,,,,,,,,,,,,,,41,001,1,34,450,450,2022_Nov_16_1038,Experiment,2021.1.4,360.0735990407891,
images\S10_M_S_03.png,images\S10_M_S_03_scrambled.png,10,sad,-30,male,1,,420,off,1,0.5,0.75,0.5,0.813,3,419,3,1,1,0,0,0,0,1,,,,,,0,54,54,54,,,,,,,,,,,,,,,,,,,,,,,,,,,,,,,,,,,,,,,,,,,,,,,,,,,,,,,,,512.4197302000002,512.9251775000002,512.9251775000002,513.6804945000003,513.6804945000003,514.1831292000006,514.1831292000006,514.9996172000001,514.9996172000001,None,num_6,0.6918626000006043,514.9996172000001,None,sad,1,Sad,515.7076150200004,None,None,515.7076150200004,None,,,,,,,,,,,,,,,,,,,,,,,,,,,,,,,,,,,,,,,,,,,,,,,,,,,,,41,001,1,34,450,450,2022_Nov_16_1038,Experiment,2021.1.4,360.0735990407891,
images\S2_M_H_02.png,images\S2_M_H_02_scrambled.png,2,happy,20,male,5,,308,on,2,0.5,0.75,0.5,0.847,3,307,1,1,1,2,2,32,128,165,,,,,,0,55,55,55,,,,,,,,,,,,,,,,,,,,,,,,,,,,,,,,,,,,,,,,,,,,,,,,,,,,,,,,,515.7881294999997,516.2907955999999,516.2907955999999,517.0460807999998,517.0460807999998,517.5488211000002,517.5488211000002,518.3984737000001,518.3984737000001,None,num_4,0.8929607000000033,518.3984737000001,None,happy,1,Happy,519.3066338800005,None,None,519.3066338800005,None,,,,,,,,,,,,,,,,,,,,,,,,,,,,,,,,,,,,,,,,,,,,,,,,,,,,,41,001,1,34,450,450,2022_Nov_16_1038,Experiment,2021.1.4,360.0735990407891,
images\S9_F_S_01.png,images\S9_F_S_01_scrambled.png,9,sad,-10,female,3,,592,on,2,0.5,0.75,0.5,0.804,3,591,2,1,1,2,2,32,128,163,,,,,,0,56,56,56,,,,,,,,,,,,,,,,,,,,,,,,,,,,,,,,,,,,,,,,,,,,,,,,,,,,,,,,,519.3592447999999,519.8647834000003,519.8647834000003,520.6200779999999,520.6200779999999,521.1253995000006,521.1253995000006,521.9335061000002,521.9335061000002,None,num_4,0.7499975000000632,521.9335061000002,None,happy,1,Sad,522.6916152900006,None,None,522.6916152900006,None,,,,,,,,,,,,,,,,,,,,,,,,,,,,,,,,,,,,,,,,,,,,,,,,,,,,,41,001,1,34,450,450,2022_Nov_16_1038,Experiment,2021.1.4,360.0735990407891,
images\S8_M_S_01.png,images\S8_M_S_01_scrambled.png,8,sad,-10,male,3,,226,on,2,0.5,0.75,0.5,0.941,3,225,3,1,2,2,2,32,128,163,,,,,,0,57,57,57,,,,,,,,,,,,,,,,,,,,,,,,,,,,,,,,,,,,,,,,,,,,,,,,,,,,,,,,,522.7498636999999,523.2525144000001,523.2525144000001,524.0051176000006,524.0051176000006,524.5104756999999,524.5104756999999,525.4547102000006,525.4547102000006,None,num_4,0.6207985000000917,525.4547102000006,None,happy,1,Sad,526.0850470899999,None,None,526.0850470899999,None,,,,,,,,,,,,,,,,,,,,,,,,,,,,,,,,,,,,,,,,,,,,,,,,,,,,,41,001,1,34,450,450,2022_Nov_16_1038,Experiment,2021.1.4,360.0735990407891,
images\S9_F_S_01.png,images\S9_F_S_01_scrambled.png,9,sad,-10,female,3,,352,on,2,0.5,0.75,0.5,0.83,3,351,4,1,3,2,2,32,128,163,,,,,,0,58,58,58,,,,,,,,,,,,,,,,,,,,,,,,,,,,,,,,,,,,,,,,,,,,,,,,,,,,,,,,,526.1460358000004,526.6458837,526.6458837,527.3984274000004,527.3984274000004,527.9010528999997,527.9010528999997,528.7342593000003,528.7342593000003,None,num_4,0.8532481000002008,528.7342593000003,None,happy,1,Sad,529.5922248600002,None,None,529.5922248600002,None,,,,,,,,,,,,,,,,,,,,,,,,,,,,,,,,,,,,,,,,,,,,,,,,,,,,,41,001,1,34,450,450,2022_Nov_16_1038,Experiment,2021.1.4,360.0735990407891,
images\S3_F_H_03.png,images\S3_F_H_03_scrambled.png,3,happy,30,female,6,,495,off,1,0.5,0.75,0.5,0.792,3,494,1,1,1,0,0,0,0,6,,,,,,0,59,59,59,,,,,,,,,,,,,,,,,,,,,,,,,,,,,,,,,,,,,,,,,,,,,,,,,,,,,,,,,529.6394068,530.1420502000001,530.1420502000001,530.8946947000004,530.8946947000004,531.3944386000003,531.3944386000003,532.1886205999999,532.1886205999999,None,num_4,0.9747142999995049,532.1886205999999,None,happy,1,Happy,533.1744346200006,None,None,533.1744346200006,None,,,,,,,,,,,,,,,,,,,,,,,,,,,,,,,,,,,,,,,,,,,,,,,,,,,,,41,001,1,34,450,450,2022_Nov_16_1038,Experiment,2021.1.4,360.0735990407891,
images\S6_M_H_02.png,images\S6_M_H_02_scrambled.png,6,happy,20,male,5,,392,off,1,0.5,0.75,0.5,0.917,3,391,2,1,1,0,0,0,0,5,,,,,,0,60,60,60,,,,,,,,,,,,,,,,,,,,,,,,,,,,,,,,,,,,,,,,,,,,,,,,,,,,,,,,,533.2577351,533.7575940000006,533.7575940000006,534.5101334000001,534.5101334000001,535.0155650000006,535.0155650000006,535.9348168000006,535.9348168000006,None,num_4,0.9327358000000459,535.9348168000006,None,happy,1,Happy,536.8816323200002,None,None,536.8816323200002,None,,,,,,,,,,,,,,,,,,,,,,,,,,,,,,,,,,,,,,,,,,,,,,,,,,,,,41,001,1,34,450,450,2022_Nov_16_1038,Experiment,2021.1.4,360.0735990407891,
images\S9_F_H_02.png,images\S9_F_H_02_scrambled.png,9,happy,20,female,5,,470,on,2,0.5,0.75,0.5,0.942,3,469,1,1,2,2,2,32,128,165,,,,,,0,61,61,61,,,,,,,,,,,,,,,,,,,,,,,,,,,,,,,,,,,,,,,,,,,,,,,,,,,,,,,,,536.9621536000004,537.4648978000005,537.4648978000005,538.2145538000004,538.2145538000004,538.7200291999998,538.7200291999998,539.6642141000002,539.6642141000002,None,num_4,0.9631521999999677,539.6642141000002,None,happy,1,Happy,540.65275481,None,None,540.65275481,None,,,,,,,,,,,,,,,,,,,,,,,,,,,,,,,,,,,,,,,,,,,,,,,,,,,,,41,001,1,34,450,450,2022_Nov_16_1038,Experiment,2021.1.4,360.0735990407891,
images\S10_M_H_03.png,images\S10_M_H_03_scrambled.png,10,happy,30,male,6,,297,off,1,0.5,0.75,0.5,0.753,3,296,1,1,1,0,0,0,0,6,,,,,,0,62,62,62,,,,,,,,,,,,,,,,,,,,,,,,,,,,,,,,,,,,,,,,,,,,,,,,,,,,,,,,,540.7054348000001,541.2052754000006,541.2052754000006,541.9550471000002,541.9550471000002,542.4604917000006,542.4604917000006,543.2158127000002,543.2158127000002,None,num_4,1.0277178000005733,543.2158127000002,None,happy,1,Happy,544.2571273200004,None,None,544.2571273200004,None,,,,,,,,,,,,,,,,,,,,,,,,,,,,,,,,,,,,,,,,,,,,,,,,,,,,,41,001,1,34,450,450,2022_Nov_16_1038,Experiment,2021.1.4,360.0735990407891,
images\S9_F_S_01.png,images\S9_F_S_01_scrambled.png,9,sad,-10,female,3,,172,off,1,0.5,0.75,0.5,0.777,3,171,2,1,1,0,0,0,0,3,,,,,,0,63,63,63,,,,,,,,,,,,,,,,,,,,,,,,,,,,,,,,,,,,,,,,,,,,,,,,,,,,,,,,,544.3071079000001,544.8098142999997,544.8098142999997,545.5650948000002,545.5650948000002,546.0704991000002,546.0704991000002,546.8508035000004,546.8508035000004,None,num_4,0.7444865000006757,546.8508035000004,None,happy,1,Sad,547.60331316,None,None,547.60331316,None,,,,,,,,,,,,,,,,,,,,,,,,,,,,,,,,,,,,,,,,,,,,,,,,,,,,,41,001,1,34,450,450,2022_Nov_16_1038,Experiment,2021.1.4,360.0735990407891,
images\S9_F_H_02.png,images\S9_F_H_02_scrambled.png,9,happy,20,female,5,,170,off,1,0.5,0.75,0.5,0.937,3,169,3,2,1,0,0,0,0,5,,,,,,0,64,64,64,,,,,,,,,,,,,,,,,,,,,,,,,,,,,,,,,,,,,,,,,,,,,,,,,,,,,,,,,547.6505180000004,548.1531347,548.1531347,548.9057188000006,548.9057188000006,549.4110898999998,549.4110898999998,550.3524517000005,550.3524517000005,None,num_4,0.7388978999997562,550.3524517000005,None,happy,1,Happy,551.1078023499999,None,None,551.1078023499999,None,,,,,,,,,,,,,,,,,,,,,,,,,,,,,,,,,,,,,,,,,,,,,,,,,,,,,41,001,1,34,450,450,2022_Nov_16_1038,Experiment,2021.1.4,360.0735990407891,
images\S2_M_S_03.png,images\S2_M_S_03_scrambled.png,2,sad,-30,male,1,,12,off,1,0.5,0.75,0.5,0.776,3,11,4,1,1,0,0,0,0,1,,,,,,0,65,65,65,,,,,,,,,,,,,,,,,,,,,,,,,,,,,,,,,,,,,,,,,,,,,,,,,,,,,,,,,551.1549923000002,551.6548454000003,551.6548454000003,552.4073877999999,552.4073877999999,552.9099953000004,552.9099953000004,553.6903096000005,553.6903096000005,None,num_6,0.6250203999998121,553.6903096000005,None,sad,1,Sad,554.3290235200005,None,None,554.3290235200005,None,,,,,,,,,,,,,,,,,,,,,,,,,,,,,,,,,,,,,,,,,,,,,,,,,,,,,41,001,1,34,450,450,2022_Nov_16_1038,Experiment,2021.1.4,360.0735990407891,
images\S3_F_S_01.png,images\S3_F_S_01_scrambled.png,3,sad,-10,female,3,,16,off,1,0.5,0.75,0.5,0.812,3,15,5,1,1,0,0,0,0,3,,,,,,0,66,66,66,,,,,,,,,,,,,,,,,,,,,,,,,,,,,,,,,,,,,,,,,,,,,,,,,,,,,,,,,554.4123126000004,554.9149566000006,554.9149566000006,555.6647177000004,555.6647177000004,556.1673252,556.1673252,556.9865359000005,556.9865359000005,None,num_6,0.640965700000379,556.9865359000005,None,sad,1,Sad,557.6418864199999,None,None,557.6418864199999,None,,,,,,,,,,,,,,,,,,,,,,,,,,,,,,,,,,,,,,,,,,,,,,,,,,,,,41,001,1,34,450,450,2022_Nov_16_1038,Experiment,2021.1.4,360.0735990407891,
images\blank.jpg,images\blank.jpg,none,none,none,none,0,,612,on,2,0.5,0.75,0.5,0.766,0,611,1,1,1,3,3,48,192,240,,,,,,0,67,67,67,,,,,,,,,,,,,,,,,,,,,,,,,,,,,,,,,,,,,,,,,,,,,,,,,,,,,,,,,557.7254491000003,558.2278078999998,558.2278078999998,558.9803977000001,558.9803977000001,559.4829645999998,559.4829645999998,560.2494199000002,560.2494199000002,560.2494199000002,None,,560.2494199000002,None,miss,1,,563.2512699300006,None,None,563.2512699300006,None,,,,,,,,,,,,,,,,,,,,,,,,,,,,,,,,,,,,,,,,,,,,,,,,,,,,,41,001,1,34,450,450,2022_Nov_16_1038,Experiment,2021.1.4,360.0735990407891,
images\S5_F_H_01.png,images\S5_F_H_01_scrambled.png,5,happy,10,female,4,,265,off,1,0.5,0.75,0.5,0.803,3,264,1,1,1,0,0,0,0,4,,,,,,0,68,68,68,,,,,,,,,,,,,,,,,,,,,,,,,,,,,,,,,,,,,,,,,,,,,,,,,,,,,,,,,563.3985048000004,563.9010810999998,563.9010810999998,564.6535880000001,564.6535880000001,565.1562112000001,565.1562112000001,565.9671754000001,565.9671754000001,None,num_6,0.2202252999995835,565.9671754000001,563.3985048000004,sad,1,Happy,566.1948901899999,None,None,566.1948901899999,None,,,,,,,,,,,,,,,,,,,,,,,,,,,,,,,,,,,,,,,,,,,,,,,,,,,,,41,001,1,34,450,450,2022_Nov_16_1038,Experiment,2021.1.4,360.0735990407891,
images\S4_M_S_01.png,images\S4_M_S_01_scrambled.png,4,sad,-10,male,3,,82,on,2,0.5,0.75,0.5,0.856,3,81,1,1,1,2,2,32,128,163,,,,,,0,69,69,69,,,,,,,,,,,,,,,,,,,,,,,,,,,,,,,,,,,,,,,,,,,,,,,,,,,,,,,,,566.3058620000002,566.8086272999999,566.8086272999999,567.5610240000005,567.5610240000005,568.0608744000001,568.0608744000001,568.9190727000005,568.9190727000005,None,num_6,0.6685032000004867,568.9190727000005,None,sad,1,Sad,569.6020883200002,None,None,569.6020883200002,None,,,,,,,,,,,,,,,,,,,,,,,,,,,,,,,,,,,,,,,,,,,,,,,,,,,,,41,001,1,34,450,450,2022_Nov_16_1038,Experiment,2021.1.4,360.0735990407891,
images\S4_M_S_01.png,images\S4_M_S_01_scrambled.png,4,sad,-10,male,3,,502,off,1,0.5,0.75,0.5,0.854,3,501,1,2,2,0,0,0,0,3,,,,,,0,70,70,70,,,,,,,,,,,,,,,,,,,,,,,,,,,,,,,,,,,,,,,,,,,,,,,,,,,,,,,,,569.6492739000005,570.1548245000004,570.1548245000004,570.9100497999998,570.9100497999998,571.4098376000002,571.4098376000002,572.2707312000002,572.2707312000002,None,num_6,0.8047154999994746,572.2707312000002,None,sad,1,Sad,573.0898980200003,None,None,573.0898980200003,None,,,,,,,,,,,,,,,,,,,,,,,,,,,,,,,,,,,,,,,,,,,,,,,,,,,,,41,001,1,34,450,450,2022_Nov_16_1038,Experiment,2021.1.4,360.0735990407891,
images\S9_F_S_03.png,images\S9_F_S_03_scrambled.png,9,sad,-30,female,1,,354,on,2,0.5,0.75,0.5,0.853,3,353,1,1,1,2,2,32,128,161,,,,,,0,71,71,71,,,,,,,,,,,,,,,,,,,,,,,,,,,,,,,,,,,,,,,,,,,,,,,,,,,,,,,,,573.1370850000003,573.6369259000003,573.6369259000003,574.3867249000004,574.3867249000004,574.8894805999998,574.8894805999998,575.7474014999998,575.7474014999998,None,num_6,1.4159335999993345,575.7474014999998,None,sad,1,Sad,577.1747467200006,None,None,577.1747467200006,None,,,,,,,,,,,,,,,,,,,,,,,,,,,,,,,,,,,,,,,,,,,,,,,,,,,,,41,001,1,34,450,450,2022_Nov_16_1038,Experiment,2021.1.4,360.0735990407891,
images\S10_M_H_01.png,images\S10_M_H_01_scrambled.png,10,happy,10,male,4,,355,on,2,0.5,0.75,0.5,0.913,3,354,2,1,1,2,2,32,128,164,,,,,,0,72,72,72,,,,,,,,,,,,,,,,,,,,,,,,,,,,,,,,,,,,,,,,,,,,,,,,,,,,,,,,,577.2663051,577.7689803000003,577.7689803000003,578.5187537000002,578.5187537000002,579.0186021,579.0186021,579.9350387000004,579.9350387000004,None,num_4,0.6844719000000623,579.9350387000004,None,happy,1,Happy,580.6347822199999,None,None,580.6347822199999,None,,,,,,,,,,,,,,,,,,,,,,,,,,,,,,,,,,,,,,,,,,,,,,,,,,,,,41,001,1,34,450,450,2022_Nov_16_1038,Experiment,2021.1.4,360.0735990407891,
images\S7_F_S_02.png,images\S7_F_S_02_scrambled.png,7,sad,-20,female,2,,41,off,1,0.5,0.75,0.5,0.841,3,40,1,1,1,0,0,0,0,2,,,,,,0,73,73,73,,,,,,,,,,,,,,,,,,,,,,,,,,,,,,,,,,,,,,,,,,,,,,,,,,,,,,,,,580.6819776000002,581.1873894999999,581.1873894999999,581.9371369,581.9371369,582.4398900000006,582.4398900000006,583.2839549,583.2839549,None,num_6,1.1754541999998764,583.2839549,None,sad,1,Sad,584.4752665200007,None,None,584.4752665200007,None,,,,,,,,,,,,,,,,,,,,,,,,,,,,,,,,,,,,,,,,,,,,,,,,,,,,,41,001,1,34,450,450,2022_Nov_16_1038,Experiment,2021.1.4,360.0735990407891,
images\S7_F_S_02.png,images\S7_F_S_02_scrambled.png,7,sad,-20,female,2,,401,off,1,0.5,0.75,0.5,0.874,3,400,2,2,2,0,0,0,0,2,,,,,,0,74,74,74,,,,,,,,,,,,,,,,,,,,,,,,,,,,,,,,,,,,,,,,,,,,,,,,,,,,,,,,,584.5252498999998,585.0278625999999,585.0278625999999,585.7804577000006,585.7804577000006,586.2830248,586.2830248,587.1605712999999,587.1605712999999,None,num_6,0.9788985999994111,587.1605712999999,None,sad,1,Sad,588.1519111199999,None,None,588.1519111199999,None,,,,,,,,,,,,,,,,,,,,,,,,,,,,,,,,,,,,,,,,,,,,,,,,,,,,,41,001,1,34,450,450,2022_Nov_16_1038,Experiment,2021.1.4,360.0735990407891,
images\S1_F_S_02.png,images\S1_F_S_02_scrambled.png,1,sad,-20,female,2,,365,off,1,0.5,0.75,0.5,0.81,3,364,3,1,3,0,0,0,0,2,,,,,,0,75,75,75,,,,,,,,,,,,,,,,,,,,,,,,,,,,,,,,,,,,,,,,,,,,,,,,,,,,,,,,,588.1991007000006,588.6989399000004,588.6989399000004,589.4487052000004,589.4487052000004,589.9485983000004,589.9485983000004,590.7622009000006,590.7622009000006,None,num_4,0.529258800000207,590.7622009000006,None,happy,1,Sad,591.3009260600004,None,None,591.3009260600004,None,,,,,,,,,,,,,,,,,,,,,,,,,,,,,,,,,,,,,,,,,,,,,,,,,,,,,41,001,1,34,450,450,2022_Nov_16_1038,Experiment,2021.1.4,360.0735990407891,
images\blank.jpg,images\blank.jpg,none,none,none,none,0,,621,on,2,0.5,0.75,0.5,0.827,0,620,1,1,1,3,3,48,192,240,,,,,,0,76,76,76,,,,,,,,,,,,,,,,,,,,,,,,,,,,,,,,,,,,,,,,,,,,,,,,,,,,,,,,,591.3844754000002,591.8897142000005,591.8897142000005,592.6450077999998,592.6450077999998,593.1503862,593.1503862,593.9778778999998,593.9778778999998,593.9778778999998,None,,593.9778778999998,None,miss,1,,596.9825372600001,None,None,596.9825372600001,None,,,,,,,,,,,,,,,,,,,,,,,,,,,,,,,,,,,,,,,,,,,,,,,,,,,,,41,001,1,34,450,450,2022_Nov_16_1038,Experiment,2021.1.4,360.0735990407891,
images\S7_F_H_02.png,images\S7_F_H_02_scrambled.png,7,happy,20,female,5,,278,off,1,0.5,0.75,0.5,0.941,3,277,1,1,1,0,0,0,0,5,,,,,,0,77,77,77,,,,,,,,,,,,,,,,,,,,,,,,,,,,,,,,,,,,,,,,,,,,,,,,,,,,,,,,,597.1297786000005,597.6351214000006,597.6351214000006,598.3904247999999,598.3904247999999,598.8958264000003,598.8958264000003,599.8400042000003,599.8400042000003,None,num_4,0.3152782000006482,599.8400042000003,597.1297786000005,happy,1,Happy,600.1788601400002,None,None,600.1788601400002,None,,,,,,,,,,,,,,,,,,,,,,,,,,,,,,,,,,,,,,,,,,,,,,,,,,,,,41,001,1,34,450,450,2022_Nov_16_1038,Experiment,2021.1.4,360.0735990407891,
images\S9_F_S_03.png,images\S9_F_S_03_scrambled.png,9,sad,-30,female,1,,114,on,2,0.5,0.75,0.5,0.817,3,113,1,1,1,2,2,32,128,161,,,,,,0,78,78,78,,,,,,,,,,,,,,,,,,,,,,,,,,,,,,,,,,,,,,,,,,,,,,,,,,,,,,,,,600.2342726000006,600.7341344000006,600.7341344000006,601.4839173,601.4839173,601.9894103000006,601.9894103000006,602.8084703000004,602.8084703000004,None,num_4,0.826829199999338,602.8084703000004,None,happy,1,Sad,603.6443420600001,None,None,603.6443420600001,None,,,,,,,,,,,,,,,,,,,,,,,,,,,,,,,,,,,,,,,,,,,,,,,,,,,,,41,001,1,34,450,450,2022_Nov_16_1038,Experiment,2021.1.4,360.0735990407891,
images\S4_M_S_03.png,images\S4_M_S_03_scrambled.png,4,sad,-30,male,1,,564,on,2,0.5,0.75,0.5,0.895,3,563,2,1,2,2,2,32,128,161,,,,,,0,79,79,79,,,,,,,,,,,,,,,,,,,,,,,,,,,,,,,,,,,,,,,,,,,,,,,,,,,,,,,,,603.6943115000004,604.1998190000004,604.1998190000004,604.9522713000006,604.9522713000006,605.4521242999999,605.4521242999999,606.3491792000004,606.3491792000004,None,num_6,0.7981800999996267,606.3491792000004,None,sad,1,Sad,607.1571589200006,None,None,607.1571589200006,None,,,,,,,,,,,,,,,,,,,,,,,,,,,,,,,,,,,,,,,,,,,,,,,,,,,,,41,001,1,34,450,450,2022_Nov_16_1038,Experiment,2021.1.4,360.0735990407891,
images\S10_M_H_02.png,images\S10_M_H_02_scrambled.png,10,happy,20,male,5,,176,off,1,0.5,0.75,0.5,0.765,3,175,1,1,1,0,0,0,0,5,,,,,,0,80,80,80,,,,,,,,,,,,,,,,,,,,,,,,,,,,,,,,,,,,,,,,,,,,,,,,,,,,,,,,,607.2404446999999,607.7402923999998,607.7402923999998,608.4900623000003,608.4900623000003,608.9926935000003,608.9926935000003,609.7591069999999,609.7591069999999,None,num_4,1.5321788999999626,609.7591069999999,None,happy,1,Happy,611.3030984199999,None,None,611.3030984199999,None,,,,,,,,,,,,,,,,,,,,,,,,,,,,,,,,,,,,,,,,,,,,,,,,,,,,,41,001,1,34,450,450,2022_Nov_16_1038,Experiment,2021.1.4,360.0735990407891,
images\S1_F_S_03.png,images\S1_F_S_03_scrambled.png,1,sad,-30,female,1,,186,on,2,0.5,0.75,0.5,0.882,3,185,1,1,1,2,2,32,128,161,,,,,,0,81,81,81,,,,,,,,,,,,,,,,,,,,,,,,,,,,,,,,,,,,,,,,,,,,,,,,,,,,,,,,,611.3502771000003,611.8557215000001,611.8557215000001,612.6082685000001,612.6082685000001,613.1108819000001,613.1108819000001,613.9995939,613.9995939,None,num_6,2.467547999999624,613.9995939,None,sad,1,Sad,616.4820521200003,None,None,616.4820521200003,None,,,,,,,,,,,,,,,,,,,,,,,,,,,,,,,,,,,,,,,,,,,,,,,,,,,,,41,001,1,34,450,450,2022_Nov_16_1038,Experiment,2021.1.4,360.0735990407891,
images\S10_M_H_01.png,images\S10_M_H_01_scrambled.png,10,happy,10,male,4,,295,off,1,0.5,0.75,0.5,0.856,3,294,1,1,1,0,0,0,0,4,,,,,,0,82,82,82,,,,,,,,,,,,,,,,,,,,,,,,,,,,,,,,,,,,,,,,,,,,,,,,,,,,,,,,,616.5320157000006,617.0374257000003,617.0374257000003,617.7900178999998,617.7900178999998,618.2898714000003,618.2898714000003,619.1506911000006,619.1506911000006,None,num_4,0.8685372999998435,619.1506911000006,None,happy,1,Happy,620.0309694199999,None,None,620.0309694199999,None,,,,,,,,,,,,,,,,,,,,,,,,,,,,,,,,,,,,,,,,,,,,,,,,,,,,,41,001,1,34,450,450,2022_Nov_16_1038,Experiment,2021.1.4,360.0735990407891,
images\S1_F_H_03.png,images\S1_F_H_03_scrambled.png,1,happy,30,female,6,,483,off,1,0.5,0.75,0.5,0.925,3,482,2,1,1,0,0,0,0,6,,,,,,0,83,83,83,,,,,,,,,,,,,,,,,,,,,,,,,,,,,,,,,,,,,,,,,,,,,,,,,,,,,,,,,620.1142371000005,620.6141053000001,620.6141053000001,621.3666518,621.3666518,621.8693463999998,621.8693463999998,622.7995250000004,622.7995250000004,None,num_4,0.6118575000000419,622.7995250000004,None,happy,1,Happy,623.4243529200006,None,None,623.4243529200006,None,,,,,,,,,,,,,,,,,,,,,,,,,,,,,,,,,,,,,,,,,,,,,,,,,,,,,41,001,1,34,450,450,2022_Nov_16_1038,Experiment,2021.1.4,360.0735990407891,
images\S2_M_H_02.png,images\S2_M_H_02_scrambled.png,2,happy,20,male,5,,488,off,1,0.5,0.75,0.5,0.94,3,487,3,1,1,0,0,0,0,5,,,,,,0,84,84,84,,,,,,,,,,,,,,,,,,,,,,,,,,,,,,,,,,,,,,,,,,,,,,,,,,,,,,,,,623.4715322000002,623.9741568,623.9741568,624.7295948000001,624.7295948000001,625.2349377,625.2349377,626.1791792000004,626.1791792000004,None,num_4,0.9760688999995182,626.1791792000004,None,happy,1,Happy,627.16764662,None,None,627.16764662,None,,,,,,,,,,,,,,,,,,,,,,,,,,,,,,,,,,,,,,,,,,,,,,,,,,,,,41,001,1,34,450,450,2022_Nov_16_1038,Experiment,2021.1.4,360.0735990407891,
images\S4_M_S_02.png,images\S4_M_S_02_scrambled.png,4,sad,-20,male,2,,83,on,2,0.5,0.75,0.5,0.842,3,82,1,1,1,2,2,32,128,162,,,,,,0,85,85,85,,,,,,,,,,,,,,,,,,,,,,,,,,,,,,,,,,,,,,,,,,,,,,,,,,,,,,,,,627.2509712000001,627.7563577999999,627.7563577999999,628.5089931000002,628.5089931000002,629.0087168999999,629.0087168999999,629.8529075000006,629.8529075000006,None,num_6,0.4703645999998116,629.8529075000006,None,sad,1,Sad,630.3333303200001,None,None,630.3333303200001,None,,,,,,,,,,,,,,,,,,,,,,,,,,,,,,,,,,,,,,,,,,,,,,,,,,,,,41,001,1,34,450,450,2022_Nov_16_1038,Experiment,2021.1.4,360.0735990407891,
images\S3_F_S_01.png,images\S3_F_S_01_scrambled.png,3,sad,-10,female,3,,436,on,2,0.5,0.75,0.5,0.845,3,435,2,1,1,2,2,32,128,163,,,,,,0,86,86,86,,,,,,,,,,,,,,,,,,,,,,,,,,,,,,,,,,,,,,,,,,,,,,,,,,,,,,,,,630.3861747000001,630.8859109000005,630.8859109000005,631.6412715000006,631.6412715000006,632.1410838000002,632.1410838000002,632.9880647,632.9880647,None,num_4,0.37523760000021866,632.9880647,None,happy,1,Sad,633.3712724600002,None,None,633.3712724600002,None,,,,,,,,,,,,,,,,,,,,,,,,,,,,,,,,,,,,,,,,,,,,,,,,,,,,,41,001,1,34,450,450,2022_Nov_16_1038,Experiment,2021.1.4,360.0735990407891,
images\S10_M_H_02.png,images\S10_M_H_02_scrambled.png,10,happy,20,male,5,,416,off,1,0.5,0.75,0.5,0.827,3,415,1,1,1,0,0,0,0,5,,,,,,0,87,87,87,,,,,,,,,,,,,,,,,,,,,,,,,,,,,,,,,,,,,,,,,,,,,,,,,,,,,,,,,633.4212440000001,633.9266625999999,633.9266625999999,634.6819851999999,634.6819851999999,635.1846912999999,635.1846912999999,636.0149257000003,636.0149257000003,None,num_4,0.7643224000003102,636.0149257000003,None,happy,1,Happy,636.7924699500004,None,None,636.7924699500004,None,,,,,,,,,,,,,,,,,,,,,,,,,,,,,,,,,,,,,,,,,,,,,,,,,,,,,41,001,1,34,450,450,2022_Nov_16_1038,Experiment,2021.1.4,360.0735990407891,
images\S6_M_S_01.png,images\S6_M_S_01_scrambled.png,6,sad,-10,male,3,,334,on,2,0.5,0.75,0.5,0.922,3,333,1,1,1,2,2,32,128,163,,,,,,0,88,88,88,,,,,,,,,,,,,,,,,,,,,,,,,,,,,,,,,,,,,,,,,,,,,,,,,,,,,,,,,636.9007155999998,637.4061587000006,637.4061587000006,638.1614651999998,638.1614651999998,638.6668635000005,638.6668635000005,639.5915789999999,639.5915789999999,None,None,,639.5915789999999,None,miss,1,Sad,642.5934678599999,None,None,642.5934678599999,None,,,,,,,,,,,,,,,,,,,,,,,,,,,,,,,,,,,,,,,,,,,,,,,,,,,,,41,001,1,34,450,450,2022_Nov_16_1038,Experiment,2021.1.4,360.0735990407891,
images\S2_M_S_03.png,images\S2_M_S_03_scrambled.png,2,sad,-30,male,1,,72,on,2,0.5,0.75,0.5,0.796,3,71,2,1,1,2,2,32,128,161,,,,,,0,89,89,89,,,,,,,,,,,,,,,,,,,,,,,,,,,,,,,,,,,,,,,,,,,,,,,,,,,,,,,,,642.6378407000002,643.1405138,643.1405138,643.8902378000002,643.8902378000002,644.3928616000003,644.3928616000003,645.1954255999999,645.1954255999999,642.6378407000002,num_6,1.311865200000284,645.1954255999999,642.6378407000002,sad,1,Sad,646.5199952200004,None,None,646.5199952200004,None,,,,,,,,,,,,,,,,,,,,,,,,,,,,,,,,,,,,,,,,,,,,,,,,,,,,,41,001,1,34,450,450,2022_Nov_16_1038,Experiment,2021.1.4,360.0735990407891,
images\S2_M_H_01.png,images\S2_M_H_01_scrambled.png,2,happy,10,male,4,,547,on,2,0.5,0.75,0.5,0.774,3,546,3,2,1,2,2,32,128,164,,,,,,0,90,90,90,,,,,,,,,,,,,,,,,,,,,,,,,,,,,,,,,,,,,,,,,,,,,,,,,,,,,,,,,646.6005100000002,647.1003601000002,647.1003601000002,647.8501303000003,647.8501303000003,648.3499803000004,648.3499803000004,649.1303214999998,649.1303214999998,None,num_4,0.7530054999997446,649.1303214999998,None,happy,1,Happy,649.8967293200006,None,None,649.8967293200006,None,,,,,,,,,,,,,,,,,,,,,,,,,,,,,,,,,,,,,,,,,,,,,,,,,,,,,41,001,1,34,450,450,2022_Nov_16_1038,Experiment,2021.1.4,360.0735990407891,
images\blank.jpg,images\blank.jpg,none,none,none,none,0,,643,on,2,0.5,0.75,0.5,0.929,0,642,4,1,1,3,3,48,192,240,,,,,,0,91,91,91,,,,,,,,,,,,,,,,,,,,,,,,,,,,,,,,,,,,,,,,,,,,,,,,,,,,,,,,,649.9775260000006,650.4798699000003,650.4798699000003,651.2296242000002,651.2296242000002,651.7350867000005,651.7350867000005,652.6653395000003,652.6653395000003,652.6653395000003,None,,652.6653395000003,None,miss,1,,655.6700029599999,None,None,655.6700029599999,None,,,,,,,,,,,,,,,,,,,,,,,,,,,,,,,,,,,,,,,,,,,,,,,,,,,,,41,001,1,34,450,450,2022_Nov_16_1038,Experiment,2021.1.4,360.0735990407891,
images\S1_F_S_03.png,images\S1_F_S_03_scrambled.png,1,sad,-30,female,1,,246,off,1,0.5,0.75,0.5,0.837,3,245,1,1,1,0,0,0,0,1,,,,,,0,92,92,92,,,,,,,,,,,,,,,,,,,,,,,,,,,,,,,,,,,,,,,,,,,,,,,,,,,,,,,,,655.7922927999998,656.2975186000003,656.2975186000003,657.0500652999999,657.0500652999999,657.5526854999998,657.5526854999998,658.3941060000006,658.3941060000006,None,num_4,0.41710909999983414,658.3941060000006,655.7922927999998,happy,1,Sad,658.8162019600006,None,None,658.8162019600006,None,,,,,,,,,,,,,,,,,,,,,,,,,,,,,,,,,,,,,,,,,,,,,,,,,,,,,41,001,1,34,450,450,2022_Nov_16_1038,Experiment,2021.1.4,360.0735990407891,
images\S4_M_H_01.png,images\S4_M_H_01_scrambled.png,4,happy,10,male,4,,379,off,1,0.5,0.75,0.5,0.844,3,378,2,1,1,0,0,0,0,4,,,,,,0,93,93,93,,,,,,,,,,,,,,,,,,,,,,,,,,,,,,,,,,,,,,,,,,,,,,,,,,,,,,,,,658.8661565000002,659.3687740000005,659.3687740000005,660.1185792000006,660.1185792000006,660.6211877000005,660.6211877000005,661.4681375,661.4681375,None,num_4,0.6711777999998958,661.4681375,None,happy,1,Happy,662.1540623200002,None,None,662.1540623200002,None,,,,,,,,,,,,,,,,,,,,,,,,,,,,,,,,,,,,,,,,,,,,,,,,,,,,,41,001,1,34,450,450,2022_Nov_16_1038,Experiment,2021.1.4,360.0735990407891,
images\blank.jpg,images\blank.jpg,none,none,none,none,0,,629,on,2,0.5,0.75,0.5,0.906,0,628,1,1,1,3,3,48,192,240,,,,,,0,94,94,94,,,,,,,,,,,,,,,,,,,,,,,,,,,,,,,,,,,,,,,,,,,,,,,,,,,,,,,,,662.2376163999998,662.7400238,662.7400238,663.4953268999998,663.4953268999998,663.9979668000005,663.9979668000005,664.9031870999997,664.9031870999997,664.9031870999997,None,,664.9031870999997,None,miss,1,,667.9050917300002,None,None,667.9050917300002,None,,,,,,,,,,,,,,,,,,,,,,,,,,,,,,,,,,,,,,,,,,,,,,,,,,,,,41,001,1,34,450,450,2022_Nov_16_1038,Experiment,2021.1.4,360.0735990407891,
images\S10_M_H_02.png,images\S10_M_H_02_scrambled.png,10,happy,20,male,5,,536,off,1,0.5,0.75,0.5,0.893,3,535,1,1,1,0,0,0,0,5,,,,,,0,95,95,95,,,,,,,,,,,,,,,,,,,,,,,,,,,,,,,,,,,,,,,,,,,,,,,,,,,,,,,,,668.0219163000002,668.5243919000004,668.5243919000004,669.2740609000002,669.2740609000002,669.7795835000006,669.7795835000006,670.6764266,670.6764266,None,num_4,0.3749931000002107,670.6764266,668.0219163000002,happy,1,Happy,671.07359824,None,None,671.07359824,None,,,,,,,,,,,,,,,,,,,,,,,,,,,,,,,,,,,,,,,,,,,,,,,,,,,,,41,001,1,34,450,450,2022_Nov_16_1038,Experiment,2021.1.4,360.0735990407891,
images\S5_F_H_01.png,images\S5_F_H_01_scrambled.png,5,happy,10,female,4,,445,on,2,0.5,0.75,0.5,0.815,3,444,1,1,1,2,2,32,128,164,,,,,,0,96,96,96,,,,,,,,,,,,,,,,,,,,,,,,,,,,,,,,,,,,,,,,,,,,,,,,,,,,,,,,,671.1262604000003,671.631687,671.631687,672.3843527999998,672.3843527999998,672.8896638000006,672.8896638000006,673.7089302000004,673.7089302000004,None,num_4,0.6301508999995349,673.7089302000004,None,happy,1,Happy,674.3530387200002,None,None,674.3530387200002,None,,,,,,,,,,,,,,,,,,,,,,,,,,,,,,,,,,,,,,,,,,,,,,,,,,,,,41,001,1,34,450,450,2022_Nov_16_1038,Experiment,2021.1.4,360.0735990407891,
images\S6_M_H_01.png,images\S6_M_H_01_scrambled.png,6,happy,10,male,4,,391,off,1,0.5,0.75,0.5,0.88,3,390,1,1,2,0,0,0,0,4,,,,,,0,97,97,97,,,,,,,,,,,,,,,,,,,,,,,,,,,,,,,,,,,,,,,,,,,,,,,,,,,,,,,,,674.4307949000004,674.9362370999997,674.9362370999997,675.6889293000004,675.6889293000004,676.1885902000004,676.1885902000004,677.0745629000003,677.0745629000003,None,num_4,0.4326867999998285,677.0745629000003,None,happy,1,Happy,677.5243213500003,None,None,677.5243213500003,None,,,,,,,,,,,,,,,,,,,,,,,,,,,,,,,,,,,,,,,,,,,,,,,,,,,,,41,001,1,34,450,450,2022_Nov_16_1038,Experiment,2021.1.4,360.0735990407891,
images\S9_F_S_02.png,images\S9_F_S_02_scrambled.png,9,sad,-20,female,2,,473,on,2,0.5,0.75,0.5,0.932,3,472,1,1,1,2,2,32,128,162,,,,,,0,98,98,98,,,,,,,,,,,,,,,,,,,,,,,,,,,,,,,,,,,,,,,,,,,,,,,,,,,,,,,,,677.6048565000001,678.1046753999999,678.1046753999999,678.8600458000001,678.8600458000001,679.3654299999998,679.3654299999998,680.3012102000002,680.3012102000002,None,num_4,0.966016700000182,680.3012102000002,None,happy,1,Sad,681.2731434600003,None,None,681.2731434600003,None,,,,,,,,,,,,,,,,,,,,,,,,,,,,,,,,,,,,,,,,,,,,,,,,,,,,,41,001,1,34,450,450,2022_Nov_16_1038,Experiment,2021.1.4,360.0735990407891,
images\S5_F_H_02.png,images\S5_F_H_02_scrambled.png,5,happy,20,female,5,,26,off,1,0.5,0.75,0.5,0.765,3,25,1,1,1,0,0,0,0,5,,,,,,0,99,99,99,,,,,,,,,,,,,,,,,,,,,,,,,,,,,,,,,,,,,,,,,,,,,,,,,,,,,,,,,681.3564385,681.8618379999998,681.8618379999998,682.6144015,682.6144015,683.1198596000004,683.1198596000004,683.8891202000004,683.8891202000004,None,num_4,0.40216679999957705,683.8891202000004,None,happy,1,Happy,684.3055473200005,None,None,684.3055473200005,None,,,,,,,,,,,,,,,,,,,,,,,,,,,,,,,,,,,,,,,,,,,,,,,,,,,,,41,001,1,34,450,450,2022_Nov_16_1038,Experiment,2021.1.4,360.0735990407891,
images\S8_M_S_02.png,images\S8_M_S_02_scrambled.png,8,sad,-20,male,2,,527,off,1,0.5,0.75,0.5,0.836,3,526,2,1,1,0,0,0,0,2,,,,,,0,100,100,100,,,,,,,,,,,,,,,,,,,,,,,,,,,,,,,,,,,,,,,,,,,,,,,,,,,,,,,,,684.3916085999999,684.8943512000005,684.8943512000005,685.6496515999997,685.6496515999997,686.1550205000003,686.1550205000003,686.9937082000006,686.9937082000006,None,num_4,2.4255764999998064,686.9937082000006,None,happy,1,Sad,689.4289535600003,None,None,689.4289535600003,None,,,,,,,,,,,,,,,,,,,,,,,,,,,,,,,,,,,,,,,,,,,,,,,,,,,,,41,001,1,34,450,450,2022_Nov_16_1038,Experiment,2021.1.4,360.0735990407891,
images\S4_M_S_03.png,images\S4_M_S_03_scrambled.png,4,sad,-30,male,1,,504,off,1,0.5,0.75,0.5,0.906,3,503,3,1,1,0,0,0,0,1,,,,,,0,101,101,101,,,,,,,,,,,,,,,,,,,,,,,,,,,,,,,,,,,,,,,,,,,,,,,,,,,,,,,,,689.4761503,689.9789126000005,689.9789126000005,690.7285739999998,690.7285739999998,691.2311897999998,691.2311897999998,692.1393421000002,692.1393421000002,None,num_6,0.7998086000006879,692.1393421000002,None,sad,1,Sad,692.9528772200005,None,None,692.9528772200005,None,,,,,,,,,,,,,,,,,,,,,,,,,,,,,,,,,,,,,,,,,,,,,,,,,,,,,41,001,1,34,450,450,2022_Nov_16_1038,Experiment,2021.1.4,360.0735990407891,
images\S3_F_S_01.png,images\S3_F_S_01_scrambled.png,3,sad,-10,female,3,,136,off,1,0.5,0.75,0.5,0.784,3,135,4,1,1,0,0,0,0,3,,,,,,0,102,102,102,,,,,,,,,,,,,,,,,,,,,,,,,,,,,,,,,,,,,,,,,,,,,,,,,,,,,,,,,693.0000668000002,693.5055087000001,693.5055087000001,694.2608202000001,694.2608202000001,694.7634507000002,694.7634507000002,695.5492727999999,695.5492727999999,None,num_4,1.333918199999971,695.5492727999999,None,happy,1,Sad,696.8905389600006,None,None,696.8905389600006,None,,,,,,,,,,,,,,,,,,,,,,,,,,,,,,,,,,,,,,,,,,,,,,,,,,,,,41,001,1,34,450,450,2022_Nov_16_1038,Experiment,2021.1.4,360.0735990407891,
images\S7_F_S_02.png,images\S7_F_S_02_scrambled.png,7,sad,-20,female,2,,161,off,1,0.5,0.75,0.5,0.93,3,160,5,1,1,0,0,0,0,2,,,,,,0,103,103,103,,,,,,,,,,,,,,,,,,,,,,,,,,,,,,,,,,,,,,,,,,,,,,,,,,,,,,,,,696.9377398000006,697.4403932000005,697.4403932000005,698.1928914999999,698.1928914999999,698.6927483999998,698.6927483999998,699.6258275999999,699.6258275999999,None,num_6,0.5693389999996725,699.6258275999999,None,sad,1,Sad,700.2145398500002,None,None,700.2145398500002,None,,,,,,,,,,,,,,,,,,,,,,,,,,,,,,,,,,,,,,,,,,,,,,,,,,,,,41,001,1,34,450,450,2022_Nov_16_1038,Experiment,2021.1.4,360.0735990407891,
images\S3_F_H_01.png,images\S3_F_H_01_scrambled.png,3,happy,10,female,4,,313,on,2,0.5,0.75,0.5,0.757,3,312,1,1,1,2,2,32,128,164,,,,,,0,104,104,104,,,,,,,,,,,,,,,,,,,,,,,,,,,,,,,,,,,,,,,,,,,,,,,,,,,,,,,,,700.2617147999999,700.7644687000002,700.7644687000002,701.5197582000001,701.5197582000001,702.0251147999998,702.0251147999998,702.7888362000003,702.7888362000003,None,num_4,0.5904623999995238,702.7888362000003,None,happy,1,Happy,703.3941015200002,None,None,703.3941015200002,None,,,,,,,,,,,,,,,,,,,,,,,,,,,,,,,,,,,,,,,,,,,,,,,,,,,,,41,001,1,34,450,450,2022_Nov_16_1038,Experiment,2021.1.4,360.0735990407891,
images\S7_F_S_03.png,images\S7_F_S_03_scrambled.png,7,sad,-30,female,1,,522,off,1,0.5,0.75,0.5,0.931,3,521,1,1,1,0,0,0,0,1,,,,,,0,105,105,105,,,,,,,,,,,,,,,,,,,,,,,,,,,,,,,,,,,,,,,,,,,,,,,,,,,,,,,,,703.4412868,703.9440432000001,703.9440432000001,704.6993548999999,704.6993548999999,705.2047306000004,705.2047306000004,706.1348938000001,706.1348938000001,None,num_6,2.724168999999165,706.1348938000001,None,sad,1,Sad,708.8701631200005,None,None,708.8701631200005,None,,,,,,,,,,,,,,,,,,,,,,,,,,,,,,,,,,,,,,,,,,,,,,,,,,,,,41,001,1,34,450,450,2022_Nov_16_1038,Experiment,2021.1.4,360.0735990407891,
images\S6_M_S_02.png,images\S6_M_S_02_scrambled.png,6,sad,-20,male,2,,395,off,1,0.5,0.75,0.5,0.874,3,394,2,1,1,0,0,0,0,2,,,,,,0,106,106,106,,,,,,,,,,,,,,,,,,,,,,,,,,,,,,,,,,,,,,,,,,,,,,,,,,,,,,,,,708.9534725000003,709.4561002999999,709.4561002999999,710.2114345,710.2114345,710.7141608000002,710.7141608000002,711.5887659999999,711.5887659999999,None,num_6,0.5424675000003845,711.5887659999999,None,sad,1,Sad,712.1413970200005,None,None,712.1413970200005,None,,,,,,,,,,,,,,,,,,,,,,,,,,,,,,,,,,,,,,,,,,,,,,,,,,,,,41,001,1,34,450,450,2022_Nov_16_1038,Experiment,2021.1.4,360.0735990407891,
images\S10_M_S_03.png,images\S10_M_S_03_scrambled.png,10,sad,-30,male,1,,360,on,2,0.5,0.75,0.5,0.907,3,359,1,1,1,2,2,32,128,161,,,,,,0,107,107,107,,,,,,,,,,,,,,,,,,,,,,,,,,,,,,,,,,,,,,,,,,,,,,,,,,,,,,,,,712.1913664000003,712.6939878000003,712.6939878000003,713.4494224999999,713.4494224999999,713.9491788000005,713.9491788000005,714.8600418000005,714.8600418000005,None,num_6,0.8231168000002071,714.8600418000005,None,sad,1,Sad,715.70151718,None,None,715.70151718,None,,,,,,,,,,,,,,,,,,,,,,,,,,,,,,,,,,,,,,,,,,,,,,,,,,,,,41,001,1,34,450,450,2022_Nov_16_1038,Experiment,2021.1.4,360.0735990407891,
images\S2_M_H_02.png,images\S2_M_H_02_scrambled.png,2,happy,20,male,5,,248,off,1,0.5,0.75,0.5,0.779,3,247,1,1,1,0,0,0,0,5,,,,,,0,108,108,108,,,,,,,,,,,,,,,,,,,,,,,,,,,,,,,,,,,,,,,,,,,,,,,,,,,,,,,,,715.7541527000003,716.2596445999998,716.2596445999998,717.0120899000003,717.0120899000003,717.5119927000005,717.5119927000005,718.2950897000001,718.2950897000001,None,num_4,0.8439542999994956,718.2950897000001,None,happy,1,Happy,719.1531130200004,None,None,719.1531130200004,None,,,,,,,,,,,,,,,,,,,,,,,,,,,,,,,,,,,,,,,,,,,,,,,,,,,,,41,001,1,34,450,450,2022_Nov_16_1038,Experiment,2021.1.4,360.0735990407891,
images\S10_M_S_03.png,images\S10_M_S_03_scrambled.png,10,sad,-30,male,1,,180,off,1,0.5,0.75,0.5,0.904,3,179,2,1,1,0,0,0,0,1,,,,,,0,109,109,109,,,,,,,,,,,,,,,,,,,,,,,,,,,,,,,,,,,,,,,,,,,,,,,,,,,,,,,,,719.2030947000003,719.7057098000005,719.7057098000005,720.4610567999998,720.4610567999998,720.9664457999997,720.9664457999997,721.8772746000004,721.8772746000004,None,num_6,0.7178250999995726,721.8772746000004,None,sad,1,Sad,722.6131879800001,None,None,722.6131879800001,None,,,,,,,,,,,,,,,,,,,,,,,,,,,,,,,,,,,,,,,,,,,,,,,,,,,,,41,001,1,34,450,450,2022_Nov_16_1038,Experiment,2021.1.4,360.0735990407891,
images\S4_M_H_01.png,images\S4_M_H_01_scrambled.png,4,happy,10,male,4,,259,off,1,0.5,0.75,0.5,0.888,3,258,3,1,1,0,0,0,0,4,,,,,,0,110,110,110,,,,,,,,,,,,,,,,,,,,,,,,,,,,,,,,,,,,,,,,,,,,,,,,,,,,,,,,,722.6631238999998,723.1657513999999,723.1657513999999,723.9183361000005,723.9183361000005,724.4209171000002,724.4209171000002,725.3123084999997,725.3123084999997,None,num_6,2.2427341000002343,725.3123084999997,None,sad,1,Happy,727.5616294600006,None,None,727.5616294600006,None,,,,,,,,,,,,,,,,,,,,,,,,,,,,,,,,,,,,,,,,,,,,,,,,,,,,,41,001,1,34,450,450,2022_Nov_16_1038,Experiment,2021.1.4,360.0735990407891,
images\S6_M_S_02.png,images\S6_M_S_02_scrambled.png,6,sad,-20,male,2,,155,off,1,0.5,0.75,0.5,0.773,3,154,4,1,1,0,0,0,0,2,,,,,,0,111,111,111,,,,,,,,,,,,,,,,,,,,,,,,,,,,,,,,,,,,,,,,,,,,,,,,,,,,,,,,,727.6088244000002,728.1114612000001,728.1114612000001,728.8639871000005,728.8639871000005,729.3694771,729.3694771,730.1497676999998,730.1497676999998,None,num_6,1.0053717999999208,730.1497676999998,None,sad,1,Sad,731.1800205400003,None,None,731.1800205400003,None,,,,,,,,,,,,,,,,,,,,,,,,,,,,,,,,,,,,,,,,,,,,,,,,,,,,,41,001,1,34,450,450,2022_Nov_16_1038,Experiment,2021.1.4,360.0735990407891,
images\S8_M_H_01.png,images\S8_M_H_01_scrambled.png,8,happy,10,male,4,,103,on,2,0.5,0.75,0.5,0.78,3,102,1,1,1,2,2,32,128,164,,,,,,0,112,112,112,,,,,,,,,,,,,,,,,,,,,,,,,,,,,,,,,,,,,,,,,,,,,,,,,,,,,,,,,731.2854582,731.7908939999998,731.7908939999998,732.5406321999999,732.5406321999999,733.0405062999998,733.0405062999998,733.8236922000006,733.8236922000006,None,num_4,0.6832939000005354,733.8236922000006,None,happy,1,Happy,734.5178228200006,None,None,734.5178228200006,None,,,,,,,,,,,,,,,,,,,,,,,,,,,,,,,,,,,,,,,,,,,,,,,,,,,,,41,001,1,34,450,450,2022_Nov_16_1038,Experiment,2021.1.4,360.0735990407891,
images\S1_F_H_01.png,images\S1_F_H_01_scrambled.png,1,happy,10,female,4,,61,on,2,0.5,0.75,0.5,0.779,3,60,2,1,2,2,2,32,128,164,,,,,,0,113,113,113,,,,,,,,,,,,,,,,,,,,,,,,,,,,,,,,,,,,,,,,,,,,,,,,,,,,,,,,,734.6011073999998,735.1065213000002,735.1065213000002,735.8591531000002,735.8591531000002,736.3645770000003,736.3645770000003,737.1503558000004,737.1503558000004,None,num_4,0.4846810999997615,737.1503558000004,None,happy,1,Happy,737.6502034500004,None,None,737.6502034500004,None,,,,,,,,,,,,,,,,,,,,,,,,,,,,,,,,,,,,,,,,,,,,,,,,,,,,,41,001,1,34,450,450,2022_Nov_16_1038,Experiment,2021.1.4,360.0735990407891,
images\S3_F_S_02.png,images\S3_F_S_02_scrambled.png,3,sad,-20,female,2,,497,off,1,0.5,0.75,0.5,0.803,3,496,1,1,1,0,0,0,0,2,,,,,,0,114,114,114,,,,,,,,,,,,,,,,,,,,,,,,,,,,,,,,,,,,,,,,,,,,,,,,,,,,,,,,,737.7612411,738.2638610000004,738.2638610000004,739.0136324000005,739.0136324000005,739.5191648999999,739.5191648999999,740.3244461000004,740.3244461000004,None,num_4,2.6866003999994064,740.3244461000004,None,happy,1,Sad,743.0179658600002,None,None,743.0179658600002,None,,,,,,,,,,,,,,,,,,,,,,,,,,,,,,,,,,,,,,,,,,,,,,,,,,,,,41,001,1,34,450,450,2022_Nov_16_1038,Experiment,2021.1.4,360.0735990407891,
images\S4_M_S_01.png,images\S4_M_S_01_scrambled.png,4,sad,-10,male,3,,22,off,1,0.5,0.75,0.5,0.79,3,21,2,1,1,0,0,0,0,3,,,,,,0,115,115,115,,,,,,,,,,,,,,,,,,,,,,,,,,,,,,,,,,,,,,,,,,,,,,,,,,,,,,,,,743.0651625,743.5706045000006,743.5706045000006,744.3258987999998,744.3258987999998,744.8285305999998,744.8285305999998,745.6255219000004,745.6255219000004,None,num_4,1.3696367000002283,745.6255219000004,None,happy,1,Sad,747.0028455600007,None,None,747.0028455600007,None,,,,,,,,,,,,,,,,,,,,,,,,,,,,,,,,,,,,,,,,,,,,,,,,,,,,,41,001,1,34,450,450,2022_Nov_16_1038,Experiment,2021.1.4,360.0735990407891,
images\blank.jpg,images\blank.jpg,none,none,none,none,0,,632,on,2,0.5,0.75,0.5,0.781,0,631,1,1,1,3,3,48,192,240,,,,,,0,116,116,116,,,,,,,,,,,,,,,,,,,,,,,,,,,,,,,,,,,,,,,,,,,,,,,,,,,,,,,,,747.0864969000004,747.5887578000002,747.5887578000002,748.3385288999998,748.3385288999998,748.8411819000003,748.8411819000003,749.6215223999998,749.6215223999998,749.6215223999998,None,,749.6215223999998,None,miss,1,,752.62057053,None,None,752.62057053,None,,,,,,,,,,,,,,,,,,,,,,,,,,,,,,,,,,,,,,,,,,,,,,,,,,,,,41,001,1,34,450,450,2022_Nov_16_1038,Experiment,2021.1.4,360.0735990407891,
images\S1_F_S_02.png,images\S1_F_S_02_scrambled.png,1,sad,-20,female,2,,305,on,2,0.5,0.75,0.5,0.855,3,304,2,1,1,2,2,32,128,162,,,,,,0,117,117,117,,,,,,,,,,,,,,,,,,,,,,,,,,,,,,,,,,,,,,,,,,,,,,,,,,,,,,,,,752.737478,753.2397992000006,753.2397992000006,753.9895610000003,753.9895610000003,754.4950187000004,754.4950187000004,755.3558376999999,755.3558376999999,None,num_4,0.3273927000000185,755.3558376999999,752.737478,happy,1,Sad,755.6946962900005,None,None,755.6946962900005,None,,,,,,,,,,,,,,,,,,,,,,,,,,,,,,,,,,,,,,,,,,,,,,,,,,,,,41,001,1,34,450,450,2022_Nov_16_1038,Experiment,2021.1.4,360.0735990407891,
images\blank.jpg,images\blank.jpg,none,none,none,none,0,,633,on,2,0.5,0.75,0.5,0.918,0,632,3,1,1,3,3,48,192,240,,,,,,0,118,118,118,,,,,,,,,,,,,,,,,,,,,,,,,,,,,,,,,,,,,,,,,,,,,,,,,,,,,,,,,755.7892502000004,756.2888479000003,756.2888479000003,757.0442983000003,757.0442983000003,757.5496671999999,757.5496671999999,758.4715336999998,758.4715336999998,758.4715336999998,None,,758.4715336999998,None,miss,1,,761.4706127300007,None,None,761.4706127300007,None,,,,,,,,,,,,,,,,,,,,,,,,,,,,,,,,,,,,,,,,,,,,,,,,,,,,,41,001,1,34,450,450,2022_Nov_16_1038,Experiment,2021.1.4,360.0735990407891,
images\S3_F_S_03.png,images\S3_F_S_03_scrambled.png,3,sad,-30,female,1,,18,off,1,0.5,0.75,0.5,0.753,3,17,1,1,1,0,0,0,0,1,,,,,,0,119,119,119,,,,,,,,,,,,,,,,,,,,,,,,,,,,,,,,,,,,,,,,,,,,,,,,,,,,,,,,,761.5846127000004,762.0898816999998,762.0898816999998,762.8396404000005,762.8396404000005,763.3450502000005,763.3450502000005,764.1003586000006,764.1003586000006,None,num_6,0.44665290000011737,764.1003586000006,761.5846127000004,sad,1,Sad,764.5640902200006,None,None,764.5640902200006,None,,,,,,,,,,,,,,,,,,,,,,,,,,,,,,,,,,,,,,,,,,,,,,,,,,,,,41,001,1,34,450,450,2022_Nov_16_1038,Experiment,2021.1.4,360.0735990407891,
images\S6_M_H_01.png,images\S6_M_H_01_scrambled.png,6,happy,10,male,4,,571,on,2,0.5,0.75,0.5,0.849,3,570,1,1,1,2,2,32,128,164,,,,,,0,120,120,120,,,,,,,,,,,,,,,,,,,,,,,,,,,,,,,,,,,,,,,,,,,,,,,,,,,,,,,,,764.6113039000002,765.1167032000003,765.1167032000003,765.8693638000004,765.8693638000004,766.3718515999999,766.3718515999999,767.2244706000001,767.2244706000001,None,num_4,1.250710500000423,767.2244706000001,None,happy,1,Happy,768.49066592,None,None,768.49066592,None,,,,,,,,,,,,,,,,,,,,,,,,,,,,,,,,,,,,,,,,,,,,,,,,,,,,,41,001,1,34,450,450,2022_Nov_16_1038,Experiment,2021.1.4,360.0735990407891,
images\S6_M_S_01.png,images\S6_M_S_01_scrambled.png,6,sad,-10,male,3,,154,off,1,0.5,0.75,0.5,0.85,3,153,1,2,1,0,0,0,0,3,,,,,,0,121,121,121,,,,,,,,,,,,,,,,,,,,,,,,,,,,,,,,,,,,,,,,,,,,,,,,,,,,,,,,,768.5378666000006,769.0404708000005,769.0404708000005,769.7958202999998,769.7958202999998,770.2956664000003,770.2956664000003,771.1481540000004,771.1481540000004,None,num_4,0.6309139000004507,771.1481540000004,None,happy,1,Sad,771.7896502900006,None,None,771.7896502900006,None,,,,,,,,,,,,,,,,,,,,,,,,,,,,,,,,,,,,,,,,,,,,,,,,,,,,,41,001,1,34,450,450,2022_Nov_16_1038,Experiment,2021.1.4,360.0735990407891,
images\S6_M_S_01.png,images\S6_M_S_01_scrambled.png,6,sad,-10,male,3,,274,off,1,0.5,0.75,0.5,0.925,3,273,2,3,2,0,0,0,0,3,,,,,,0,122,122,122,,,,,,,,,,,,,,,,,,,,,,,,,,,,,,,,,,,,,,,,,,,,,,,,,,,,,,,,,771.8590426999999,772.3645928000005,772.3645928000005,773.1142317000003,773.1142317000003,773.6168474000006,773.6168474000006,774.5471194000002,774.5471194000002,None,num_4,0.7120904000003065,774.5471194000002,None,happy,1,Sad,775.2635572600004,None,None,775.2635572600004,None,,,,,,,,,,,,,,,,,,,,,,,,,,,,,,,,,,,,,,,,,,,,,,,,,,,,,41,001,1,34,450,450,2022_Nov_16_1038,Experiment,2021.1.4,360.0735990407891,
images\S5_F_S_02.png,images\S5_F_S_02_scrambled.png,5,sad,-20,female,2,,89,on,2,0.5,0.75,0.5,0.769,3,88,1,1,1,2,2,32,128,162,,,,,,0,123,123,123,,,,,,,,,,,,,,,,,,,,,,,,,,,,,,,,,,,,,,,,,,,,,,,,,,,,,,,,,775.3440790000004,775.8495775000001,775.8495775000001,776.6048577000001,776.6048577000001,777.1102387000001,777.1102387000001,777.8821953000006,777.8821953000006,None,num_6,1.8328245000002426,777.8821953000006,None,sad,1,Sad,779.7260549200004,None,None,779.7260549200004,None,,,,,,,,,,,,,,,,,,,,,,,,,,,,,,,,,,,,,,,,,,,,,,,,,,,,,41,001,1,34,450,450,2022_Nov_16_1038,Experiment,2021.1.4,360.0735990407891,
images\S8_M_S_02.png,images\S8_M_S_02_scrambled.png,8,sad,-20,male,2,,47,off,1,0.5,0.75,0.5,0.884,3,46,1,1,2,0,0,0,0,2,,,,,,0,124,124,124,,,,,,,,,,,,,,,,,,,,,,,,,,,,,,,,,,,,,,,,,,,,,,,,,,,,,,,,,779.7732621000005,780.2759213999998,780.2759213999998,781.0312327000001,781.0312327000001,781.5339454000004,781.5339454000004,782.4197287000006,782.4197287000006,None,num_6,0.807278000000224,782.4197287000006,None,sad,1,Sad,783.2500582400006,None,None,783.2500582400006,None,,,,,,,,,,,,,,,,,,,,,,,,,,,,,,,,,,,,,,,,,,,,,,,,,,,,,41,001,1,34,450,450,2022_Nov_16_1038,Experiment,2021.1.4,360.0735990407891,
images\S9_F_H_01.png,images\S9_F_H_01_scrambled.png,9,happy,10,female,4,,589,on,2,0.5,0.75,0.5,0.833,3,588,1,1,1,2,2,32,128,164,,,,,,0,125,125,125,,,,,,,,,,,,,,,,,,,,,,,,,,,,,,,,,,,,,,,,,,,,,,,,,,,,,,,,,783.3610409000003,783.8636876,783.8636876,784.6134415000006,784.6134415000006,785.1189701000003,785.1189701000003,785.9519233000001,785.9519233000001,None,num_4,0.8510482000001502,785.9519233000001,None,happy,1,Happy,786.8155575200002,None,None,786.8155575200002,None,,,,,,,,,,,,,,,,,,,,,,,,,,,,,,,,,,,,,,,,,,,,,,,,,,,,,41,001,1,34,450,450,2022_Nov_16_1038,Experiment,2021.1.4,360.0735990407891,
images\S4_M_H_02.png,images\S4_M_H_02_scrambled.png,4,happy,20,male,5,,200,on,2,0.5,0.75,0.5,0.765,3,199,2,1,1,2,2,32,128,165,,,,,,0,126,126,126,,,,,,,,,,,,,,,,,,,,,,,,,,,,,,,,,,,,,,,,,,,,,,,,,,,,,,,,,786.8627431000004,787.3654077000001,787.3654077000001,788.1151355000002,788.1151355000002,788.6205713999998,788.6205713999998,789.3897875000002,789.3897875000002,None,num_4,0.6051585999994131,789.3897875000002,None,happy,1,Happy,790.02019594,None,None,790.02019594,None,,,,,,,,,,,,,,,,,,,,,,,,,,,,,,,,,,,,,,,,,,,,,,,,,,,,,41,001,1,34,450,450,2022_Nov_16_1038,Experiment,2021.1.4,360.0735990407891,
images\S10_M_H_03.png,images\S10_M_H_03_scrambled.png,10,happy,30,male,6,,177,off,1,0.5,0.75,0.5,0.833,3,176,1,1,1,0,0,0,0,6,,,,,,0,127,127,127,,,,,,,,,,,,,,,,,,,,,,,,,,,,,,,,,,,,,,,,,,,,,,,,,,,,,,,,,790.0783593000006,790.5839473000005,790.5839473000005,791.3336273000004,791.3336273000004,791.8334585000002,791.8334585000002,792.6694058000003,792.6694058000003,None,num_4,0.7735525999996753,792.6694058000003,None,happy,1,Happy,793.4635566800004,None,None,793.4635566800004,None,,,,,,,,,,,,,,,,,,,,,,,,,,,,,,,,,,,,,,,,,,,,,,,,,,,,,41,001,1,34,450,450,2022_Nov_16_1038,Experiment,2021.1.4,360.0735990407891,
images\S10_M_S_01.png,images\S10_M_S_01_scrambled.png,10,sad,-10,male,3,,598,on,2,0.5,0.75,0.5,0.933,3,597,1,2,1,2,2,32,128,163,,,,,,0,128,128,128,,,,,,,,,,,,,,,,,,,,,,,,,,,,,,,,,,,,,,,,,,,,,,,,,,,,,,,,,793.5134612000002,794.0160876999998,794.0160876999998,794.7686444999999,794.7686444999999,795.2684785000001,795.2684785000001,796.2071882999999,796.2071882999999,None,num_4,1.2037337000001571,796.2071882999999,None,happy,1,Sad,797.4178377600003,None,None,797.4178377600003,None,,,,,,,,,,,,,,,,,,,,,,,,,,,,,,,,,,,,,,,,,,,,,,,,,,,,,41,001,1,34,450,450,2022_Nov_16_1038,Experiment,2021.1.4,360.0735990407891,
images\S7_F_H_01.png,images\S7_F_H_01_scrambled.png,7,happy,10,female,4,,277,off,1,0.5,0.75,0.5,0.868,3,276,1,1,1,0,0,0,0,4,,,,,,0,129,129,129,,,,,,,,,,,,,,,,,,,,,,,,,,,,,,,,,,,,,,,,,,,,,,,,,,,,,,,,,797.5039076000003,798.0065420000001,798.0065420000001,798.7592046999998,798.7592046999998,799.2616902999998,799.2616902999998,800.1364457999998,800.1364457999998,None,num_4,0.8264779999999519,800.1364457999998,None,happy,1,Happy,800.9778444200005,None,None,800.9778444200005,None,,,,,,,,,,,,,,,,,,,,,,,,,,,,,,,,,,,,,,,,,,,,,,,,,,,,,41,001,1,34,450,450,2022_Nov_16_1038,Experiment,2021.1.4,360.0735990407891,
images\S1_F_S_01.png,images\S1_F_S_01_scrambled.png,1,sad,-10,female,3,,124,off,1,0.5,0.75,0.5,0.791,3,123,2,1,1,0,0,0,0,3,,,,,,0,130,130,130,,,,,,,,,,,,,,,,,,,,,,,,,,,,,,,,,,,,,,,,,,,,,,,,,,,,,,,,,801.0250432000003,801.5304768000005,801.5304768000005,802.2857899,802.2857899,802.7885174000003,802.7885174000003,803.5853969,803.5853969,None,num_4,0.44979070000044885,803.5853969,None,happy,1,Sad,804.0463387999998,None,space,804.0463387999998,None,120.1003765000005,,,,,,,,,,,,,,,,,,,,,,,,,,,,,,,,,,,,,,,,,,,,,,,,,,,,41,001,1,34,450,450,2022_Nov_16_1038,Experiment,2021.1.4,360.0735990407891,
images\S7_F_H_01.png,images\S7_F_H_01_scrambled.png,7,happy,10,female,4,,577,on,2,0.5,0.75,0.5,0.858,3,576,1,1,1,2,2,32,128,164,,,,,,0,131,131,131,,,,,,,,,,,,,,,,,,,,,,,,,,,,,,,,,,,,,,,,,,,,,,,,,,,,,,,,,924.2063733000005,924.7091070000006,924.7091070000006,925.4616483999998,925.4616483999998,925.9643292999999,925.9643292999999,926.8251109000003,926.8251109000003,None,num_4,0.4735805000000255,926.8251109000003,None,happy,1,Happy,927.3110617200003,None,None,927.3110617200003,None,,,,,,,,,,,,,,,,,,,,,,,,,,,,,,,,,,,,,,,,,,,,,,,,,,,,,41,001,1,34,450,450,2022_Nov_16_1038,Experiment,2021.1.4,360.0735990407891,
images\S10_M_H_01.png,images\S10_M_H_01_scrambled.png,10,happy,10,male,4,,175,off,1,0.5,0.75,0.5,0.916,3,174,1,1,2,0,0,0,0,4,,,,,,0,132,132,132,,,,,,,,,,,,,,,,,,,,,,,,,,,,,,,,,,,,,,,,,,,,,,,,,,,,,,,,,927.3582491000006,927.8608979,927.8608979,928.6106328000005,928.6106328000005,929.1105035,929.1105035,930.0297066000003,930.0297066000003,None,num_4,0.5731642000000647,930.0297066000003,None,happy,1,Happy,930.6128168200006,None,None,930.6128168200006,None,,,,,,,,,,,,,,,,,,,,,,,,,,,,,,,,,,,,,,,,,,,,,,,,,,,,,41,001,1,34,450,450,2022_Nov_16_1038,Experiment,2021.1.4,360.0735990407891,
images\S1_F_S_01.png,images\S1_F_S_01_scrambled.png,1,sad,-10,female,3,,484,off,1,0.5,0.75,0.5,0.846,3,483,2,1,1,0,0,0,0,3,,,,,,0,133,133,133,,,,,,,,,,,,,,,,,,,,,,,,,,,,,,,,,,,,,,,,,,,,,,,,,,,,,,,,,930.6600096000002,931.1598572000003,931.1598572000003,931.9096168000005,931.9096168000005,932.4123045000006,932.4123045000006,933.2648072000002,933.2648072000002,None,num_4,0.8180070000007618,933.2648072000002,None,happy,1,Sad,934.09227966,None,None,934.09227966,None,,,,,,,,,,,,,,,,,,,,,,,,,,,,,,,,,,,,,,,,,,,,,,,,,,,,,41,001,1,34,450,450,2022_Nov_16_1038,Experiment,2021.1.4,360.0735990407891,
images\S2_M_H_03.png,images\S2_M_H_03_scrambled.png,2,happy,30,male,6,,249,off,1,0.5,0.75,0.5,0.794,3,248,3,1,1,0,0,0,0,6,,,,,,0,134,134,134,,,,,,,,,,,,,,,,,,,,,,,,,,,,,,,,,,,,,,,,,,,,,,,,,,,,,,,,,934.1394813000006,934.6449214000004,934.6449214000004,935.4002061000001,935.4002061000001,935.9000876,935.9000876,936.6998416000006,936.6998416000006,None,num_4,0.9588366999996651,936.6998416000006,None,happy,1,Happy,937.6717426200006,None,None,937.6717426200006,None,,,,,,,,,,,,,,,,,,,,,,,,,,,,,,,,,,,,,,,,,,,,,,,,,,,,,41,001,1,34,450,450,2022_Nov_16_1038,Experiment,2021.1.4,360.0735990407891,
images\S7_F_S_03.png,images\S7_F_S_03_scrambled.png,7,sad,-30,female,1,,582,on,2,0.5,0.75,0.5,0.888,3,581,1,1,1,2,2,32,128,161,,,,,,0,135,135,135,,,,,,,,,,,,,,,,,,,,,,,,,,,,,,,,,,,,,,,,,,,,,,,,,,,,,,,,,937.7189441,938.2215516000006,938.2215516000006,938.9741215000004,938.9741215000004,939.4795576000006,939.4795576000006,940.3709196,940.3709196,None,num_6,0.8239685999997164,940.3709196,None,sad,1,Sad,941.2123118200001,None,None,941.2123118200001,None,,,,,,,,,,,,,,,,,,,,,,,,,,,,,,,,,,,,,,,,,,,,,,,,,,,,,41,001,1,34,450,450,2022_Nov_16_1038,Experiment,2021.1.4,360.0735990407891,
images\S5_F_H_03.png,images\S5_F_H_03_scrambled.png,5,happy,30,female,6,,327,on,2,0.5,0.75,0.5,0.789,3,326,2,1,1,2,2,32,128,166,,,,,,0,136,136,136,,,,,,,,,,,,,,,,,,,,,,,,,,,,,,,,,,,,,,,,,,,,,,,,,,,,,,,,,941.2595111,941.7649443,941.7649443,942.5146816000006,942.5146816000006,943.020117,943.020117,943.8115079999998,943.8115079999998,None,num_4,0.8152319000000716,943.8115079999998,None,happy,1,Happy,944.6418145199999,None,None,944.6418145199999,None,,,,,,,,,,,,,,,,,,,,,,,,,,,,,,,,,,,,,,,,,,,,,,,,,,,,,41,001,1,34,450,450,2022_Nov_16_1038,Experiment,2021.1.4,360.0735990407891,
images\S4_M_H_01.png,images\S4_M_H_01_scrambled.png,4,happy,10,male,4,,499,off,1,0.5,0.75,0.5,0.8,3,498,1,1,1,0,0,0,0,4,,,,,,0,137,137,137,,,,,,,,,,,,,,,,,,,,,,,,,,,,,,,,,,,,,,,,,,,,,,,,,,,,,,,,,944.6890042000005,945.1944589000004,945.1944589000004,945.9469537000004,945.9469537000004,946.4496270999998,946.4496270999998,947.2549257000001,947.2549257000001,None,num_4,0.843828900000517,947.2549257000001,None,happy,1,Happy,948.1101832200005,None,None,948.1101832200005,None,,,,,,,,,,,,,,,,,,,,,,,,,,,,,,,,,,,,,,,,,,,,,,,,,,,,,41,001,1,34,450,450,2022_Nov_16_1038,Experiment,2021.1.4,360.0735990407891,
images\S9_F_S_01.png,images\S9_F_S_01_scrambled.png,9,sad,-10,female,3,,292,off,1,0.5,0.75,0.5,0.821,3,291,2,1,1,0,0,0,0,3,,,,,,0,138,138,138,,,,,,,,,,,,,,,,,,,,,,,,,,,,,,,,,,,,,,,,,,,,,,,,,,,,,,,,,948.1573761,948.6600388000006,948.6600388000006,949.4153569999999,949.4153569999999,949.9180600999998,949.9180600999998,950.7455085000001,950.7455085000001,None,num_4,1.1533927000000403,950.7455085000001,None,happy,1,Sad,951.9062339600007,None,None,951.9062339600007,None,,,,,,,,,,,,,,,,,,,,,,,,,,,,,,,,,,,,,,,,,,,,,,,,,,,,,41,001,1,34,450,450,2022_Nov_16_1038,Experiment,2021.1.4,360.0735990407891,
images\S5_F_S_02.png,images\S5_F_S_02_scrambled.png,5,sad,-20,female,2,,209,on,2,0.5,0.75,0.5,0.779,3,208,1,1,1,2,2,32,128,162,,,,,,0,139,139,139,,,,,,,,,,,,,,,,,,,,,,,,,,,,,,,,,,,,,,,,,,,,,,,,,,,,,,,,,951.9562120999999,952.4588229000001,952.4588229000001,953.2142688000004,953.2142688000004,953.7195861999999,953.7195861999999,954.5054571999999,954.5054571999999,None,num_6,0.5052516999994623,954.5054571999999,None,sad,1,Sad,955.0359482700004,None,None,955.0359482700004,None,,,,,,,,,,,,,,,,,,,,,,,,,,,,,,,,,,,,,,,,,,,,,,,,,,,,,41,001,1,34,450,450,2022_Nov_16_1038,Experiment,2021.1.4,360.0735990407891,
images\S7_F_S_02.png,images\S7_F_S_02_scrambled.png,7,sad,-20,female,2,,101,on,2,0.5,0.75,0.5,0.775,3,100,2,1,2,2,2,32,128,162,,,,,,0,140,140,140,,,,,,,,,,,,,,,,,,,,,,,,,,,,,,,,,,,,,,,,,,,,,,,,,,,,,,,,,955.0885693,955.5941183000004,955.5941183000004,956.3493776000005,956.3493776000005,956.8547482000004,956.8547482000004,957.6350401,957.6350401,None,num_6,0.5196888000000399,957.6350401,None,sad,1,Sad,958.1681944200003,None,None,958.1681944200003,None,,,,,,,,,,,,,,,,,,,,,,,,,,,,,,,,,,,,,,,,,,,,,,,,,,,,,41,001,1,34,450,450,2022_Nov_16_1038,Experiment,2021.1.4,360.0735990407891,
