image_face,image_scram,avatar,emo,emotion,sex,trigeeg,dac,trial_no,NMES,stimtime,baseline,iti,face,scr_face,resp_time,index,count_NMES,count_avatar,count_emotion,dac1,dac2,dac1_output,dac2_output,trigs_out,nmes,practice_trials.thisRepN,practice_trials.thisTrialN,practice_trials.thisN,practice_trials.thisIndex,real_trials.thisRepN,real_trials.thisTrialN,real_trials.thisN,real_trials.thisIndex,trials.thisRepN,trials.thisTrialN,trials.thisN,trials.thisIndex,position,Welcome.started,Welcome.stopped,Welcome_resp.keys,Welcome_resp.rt,text_2.started,text_2.stopped,form_2.index,form_2.itemText,form_2.type,form_2.response,form_2.rt,key_resp_4.keys,key_resp_4.rt,key_resp_4.started,key_resp_4.stopped,instructions.started,instructions.stopped,end_instr.keys,end_instr.rt,instructions_2.started,instructions_2.stopped,end_instr_2.keys,end_instr_2.rt,end_instr_2.started,end_instr_2.stopped,instruct_keypress.started,instruct_keypress.stopped,end_instruct_keypress.keys,end_instruct_keypress.rt,start_practice.started,start_practice.stopped,start_practice_resp.keys,start_practice_resp.rt,prac_baseline.started,prac_baseline.stopped,prac_iti.started,prac_iti.stopped,prac_stimulus.started,prac_stimulus.stopped,prac_scram_stim.started,prac_scram_stim.stopped,prac_stimulus_resp.started,prac_stimulus_resp.stopped,prac_resp.keys,prac_resp.rt,prac_resp.started,prac_resp.stopped,transition_to_real.started,transition_to_real.stopped,end_transition_to_real.keys,end_transition_to_real.rt,fixation_cross.started,fixation_cross.stopped,tr_iti.started,tr_iti.stopped,stimulus.started,stimulus.stopped,scram_stim.started,scram_stim.stopped,response_txt.started,response_txt.stopped,response.keys,response.rt,response.started,response.stopped,participant_Resp,grouping,corAnswer,break_msg.started,break_msg.stopped,end_break.keys,end_break.started,end_break.stopped,end_break.rt,text.started,text.stopped,key_resp_3.keys,key_resp_3.rt,key_resp_3.started,key_resp_3.stopped,fix_cross_comf.started,fix_cross_comf.stopped,stimulation_comf.started,stimulation_comf.stopped,rate_instr.started,rate_instr.stopped,comfort_rating.response,comfort_rating.rt,comfort_rating.started,comfort_rating.stopped,resp_form.keys,resp_form.rt,resp_form.started,resp_form.stopped,survey_instructions.started,survey_instructions.stopped,key_resp_2.keys,key_resp_2.rt,key_resp_2.started,key_resp_2.stopped,form.index,form.itemText,form.type,form.response,form.rt,key_resp.keys,key_resp.rt,key_resp.started,key_resp.stopped,text_3.started,text_3.stopped,rate_smile.response,rate_smile.rt,rate_smile.started,rate_smile.stopped,key_resp_5.keys,key_resp_5.rt,key_resp_5.started,key_resp_5.stopped,end_msg.started,end_msg.stopped,end_resp.keys,end_resp.rt,end_resp.started,end_resp.stopped,participant,session,gender,age,LEFT,RIGHT,date,expName,psychopyVersion,frameRate,
,,,,,,,,,,,,,,,,,,,,,,,,,,,,,,,,,,,,,,S-H,21.505892099999983,None,num_add,5.334907000000385,,,,,,,,,,,,,,,,,,,,,,,,,,,,,,,,,,,,,,,,,,,,,,,,,,,,,,,,,,,,,,,,,,,,,,,,,,,,,,,,,,,,,,,,,,,,,,,,,,,,,,,,,,,,,,,,,,,,,,,,,,42,001,0,27,550,500,2022_Nov_17_1053,Experiment,2021.1.4,360.23963140189227,
,,,,,,,,,,,,,,,,,,,,,,,,,,,,,,,,,,,,,,,,,,,26.848891999999978,28.88714979999986,1,"This scale consistes of a number of words that describe different feelings and emotion. Read each item and then list the number from the scale below each word. Indicate (by clicking) to what extend you feel this way RIGHT NOW, that is, AT THE PRESENT MOMENT.",description,,,,,,,,,,,,,,,,,,,,,,,,,,,,,,,,,,,,,,,,,,,,,,,,,,,,,,,,,,,,,,,,,,,,,,,,,,,,,,,,,,,,,,,,,,,,,,,,,,,,,,,,,,,,,,,,,,,,,42,001,0,27,550,500,2022_Nov_17_1053,Experiment,2021.1.4,360.23963140189227,
,,,,,,,,,,,,,,,,,,,,,,,,,,,,,,,,,,,,,,,,,,,,,2,Interested,rating,4.0,29.560002899999745,,,,,,,,,,,,,,,,,,,,,,,,,,,,,,,,,,,,,,,,,,,,,,,,,,,,,,,,,,,,,,,,,,,,,,,,,,,,,,,,,,,,,,,,,,,,,,,,,,,,,,,,,,,,,,,,,,,42,001,0,27,550,500,2022_Nov_17_1053,Experiment,2021.1.4,360.23963140189227,
,,,,,,,,,,,,,,,,,,,,,,,,,,,,,,,,,,,,,,,,,,,,,3,Distressed,rating,1.0,37.2794944999996,,,,,,,,,,,,,,,,,,,,,,,,,,,,,,,,,,,,,,,,,,,,,,,,,,,,,,,,,,,,,,,,,,,,,,,,,,,,,,,,,,,,,,,,,,,,,,,,,,,,,,,,,,,,,,,,,,,42,001,0,27,550,500,2022_Nov_17_1053,Experiment,2021.1.4,360.23963140189227,
,,,,,,,,,,,,,,,,,,,,,,,,,,,,,,,,,,,,,,,,,,,,,4,Excited,rating,2.0,42.53558280000016,,,,,,,,,,,,,,,,,,,,,,,,,,,,,,,,,,,,,,,,,,,,,,,,,,,,,,,,,,,,,,,,,,,,,,,,,,,,,,,,,,,,,,,,,,,,,,,,,,,,,,,,,,,,,,,,,,,42,001,0,27,550,500,2022_Nov_17_1053,Experiment,2021.1.4,360.23963140189227,
,,,,,,,,,,,,,,,,,,,,,,,,,,,,,,,,,,,,,,,,,,,,,5,Upset,rating,1.0,44.51189069999964,,,,,,,,,,,,,,,,,,,,,,,,,,,,,,,,,,,,,,,,,,,,,,,,,,,,,,,,,,,,,,,,,,,,,,,,,,,,,,,,,,,,,,,,,,,,,,,,,,,,,,,,,,,,,,,,,,,42,001,0,27,550,500,2022_Nov_17_1053,Experiment,2021.1.4,360.23963140189227,
,,,,,,,,,,,,,,,,,,,,,,,,,,,,,,,,,,,,,,,,,,,,,6,Strong,rating,1.0,48.15682040000047,,,,,,,,,,,,,,,,,,,,,,,,,,,,,,,,,,,,,,,,,,,,,,,,,,,,,,,,,,,,,,,,,,,,,,,,,,,,,,,,,,,,,,,,,,,,,,,,,,,,,,,,,,,,,,,,,,,42,001,0,27,550,500,2022_Nov_17_1053,Experiment,2021.1.4,360.23963140189227,
,,,,,,,,,,,,,,,,,,,,,,,,,,,,,,,,,,,,,,,,,,,,,7,Guilty,rating,1.0,46.257326199999625,,,,,,,,,,,,,,,,,,,,,,,,,,,,,,,,,,,,,,,,,,,,,,,,,,,,,,,,,,,,,,,,,,,,,,,,,,,,,,,,,,,,,,,,,,,,,,,,,,,,,,,,,,,,,,,,,,,42,001,0,27,550,500,2022_Nov_17_1053,Experiment,2021.1.4,360.23963140189227,
,,,,,,,,,,,,,,,,,,,,,,,,,,,,,,,,,,,,,,,,,,,,,8,Scared,rating,1.0,8.474956700000803,,,,,,,,,,,,,,,,,,,,,,,,,,,,,,,,,,,,,,,,,,,,,,,,,,,,,,,,,,,,,,,,,,,,,,,,,,,,,,,,,,,,,,,,,,,,,,,,,,,,,,,,,,,,,,,,,,,42,001,0,27,550,500,2022_Nov_17_1053,Experiment,2021.1.4,360.23963140189227,
,,,,,,,,,,,,,,,,,,,,,,,,,,,,,,,,,,,,,,,,,,,,,9,Hostile,rating,1.0,10.487493099999483,,,,,,,,,,,,,,,,,,,,,,,,,,,,,,,,,,,,,,,,,,,,,,,,,,,,,,,,,,,,,,,,,,,,,,,,,,,,,,,,,,,,,,,,,,,,,,,,,,,,,,,,,,,,,,,,,,,42,001,0,27,550,500,2022_Nov_17_1053,Experiment,2021.1.4,360.23963140189227,
,,,,,,,,,,,,,,,,,,,,,,,,,,,,,,,,,,,,,,,,,,,,,10,Enthusiastic,rating,1.0,8.789555100000143,,,,,,,,,,,,,,,,,,,,,,,,,,,,,,,,,,,,,,,,,,,,,,,,,,,,,,,,,,,,,,,,,,,,,,,,,,,,,,,,,,,,,,,,,,,,,,,,,,,,,,,,,,,,,,,,,,,42,001,0,27,550,500,2022_Nov_17_1053,Experiment,2021.1.4,360.23963140189227,
,,,,,,,,,,,,,,,,,,,,,,,,,,,,,,,,,,,,,,,,,,,,,11,Proud,rating,1.0,19.880003500000385,,,,,,,,,,,,,,,,,,,,,,,,,,,,,,,,,,,,,,,,,,,,,,,,,,,,,,,,,,,,,,,,,,,,,,,,,,,,,,,,,,,,,,,,,,,,,,,,,,,,,,,,,,,,,,,,,,,42,001,0,27,550,500,2022_Nov_17_1053,Experiment,2021.1.4,360.23963140189227,
,,,,,,,,,,,,,,,,,,,,,,,,,,,,,,,,,,,,,,,,,,,,,12,Irritable,rating,1.0,19.946582099999432,,,,,,,,,,,,,,,,,,,,,,,,,,,,,,,,,,,,,,,,,,,,,,,,,,,,,,,,,,,,,,,,,,,,,,,,,,,,,,,,,,,,,,,,,,,,,,,,,,,,,,,,,,,,,,,,,,,42,001,0,27,550,500,2022_Nov_17_1053,Experiment,2021.1.4,360.23963140189227,
,,,,,,,,,,,,,,,,,,,,,,,,,,,,,,,,,,,,,,,,,,,,,13,Alert,rating,1.0,19.13771739999993,,,,,,,,,,,,,,,,,,,,,,,,,,,,,,,,,,,,,,,,,,,,,,,,,,,,,,,,,,,,,,,,,,,,,,,,,,,,,,,,,,,,,,,,,,,,,,,,,,,,,,,,,,,,,,,,,,,42,001,0,27,550,500,2022_Nov_17_1053,Experiment,2021.1.4,360.23963140189227,
,,,,,,,,,,,,,,,,,,,,,,,,,,,,,,,,,,,,,,,,,,,,,14,Ashamed,rating,1.0,20.085254599999644,,,,,,,,,,,,,,,,,,,,,,,,,,,,,,,,,,,,,,,,,,,,,,,,,,,,,,,,,,,,,,,,,,,,,,,,,,,,,,,,,,,,,,,,,,,,,,,,,,,,,,,,,,,,,,,,,,,42,001,0,27,550,500,2022_Nov_17_1053,Experiment,2021.1.4,360.23963140189227,
,,,,,,,,,,,,,,,,,,,,,,,,,,,,,,,,,,,,,,,,,,,,,15,Inspired,rating,1.0,8.185670100000607,,,,,,,,,,,,,,,,,,,,,,,,,,,,,,,,,,,,,,,,,,,,,,,,,,,,,,,,,,,,,,,,,,,,,,,,,,,,,,,,,,,,,,,,,,,,,,,,,,,,,,,,,,,,,,,,,,,42,001,0,27,550,500,2022_Nov_17_1053,Experiment,2021.1.4,360.23963140189227,
,,,,,,,,,,,,,,,,,,,,,,,,,,,,,,,,,,,,,,,,,,,,,16,Nervous,rating,1.0,8.45192599999973,,,,,,,,,,,,,,,,,,,,,,,,,,,,,,,,,,,,,,,,,,,,,,,,,,,,,,,,,,,,,,,,,,,,,,,,,,,,,,,,,,,,,,,,,,,,,,,,,,,,,,,,,,,,,,,,,,,42,001,0,27,550,500,2022_Nov_17_1053,Experiment,2021.1.4,360.23963140189227,
,,,,,,,,,,,,,,,,,,,,,,,,,,,,,,,,,,,,,,,,,,,,,17,Determined,rating,1.0,9.24378549999983,,,,,,,,,,,,,,,,,,,,,,,,,,,,,,,,,,,,,,,,,,,,,,,,,,,,,,,,,,,,,,,,,,,,,,,,,,,,,,,,,,,,,,,,,,,,,,,,,,,,,,,,,,,,,,,,,,,42,001,0,27,550,500,2022_Nov_17_1053,Experiment,2021.1.4,360.23963140189227,
,,,,,,,,,,,,,,,,,,,,,,,,,,,,,,,,,,,,,,,,,,,,,18,Attentive,rating,3.0,9.985495899999478,,,,,,,,,,,,,,,,,,,,,,,,,,,,,,,,,,,,,,,,,,,,,,,,,,,,,,,,,,,,,,,,,,,,,,,,,,,,,,,,,,,,,,,,,,,,,,,,,,,,,,,,,,,,,,,,,,,42,001,0,27,550,500,2022_Nov_17_1053,Experiment,2021.1.4,360.23963140189227,
,,,,,,,,,,,,,,,,,,,,,,,,,,,,,,,,,,,,,,,,,,,,,19,Jittery,rating,1.0,13.446589099999983,,,,,,,,,,,,,,,,,,,,,,,,,,,,,,,,,,,,,,,,,,,,,,,,,,,,,,,,,,,,,,,,,,,,,,,,,,,,,,,,,,,,,,,,,,,,,,,,,,,,,,,,,,,,,,,,,,,42,001,0,27,550,500,2022_Nov_17_1053,Experiment,2021.1.4,360.23963140189227,
,,,,,,,,,,,,,,,,,,,,,,,,,,,,,,,,,,,,,,,,,,,,,20,Active,rating,2.0,13.568862199999785,,,,,,,,,,,,,,,,,,,,,,,,,,,,,,,,,,,,,,,,,,,,,,,,,,,,,,,,,,,,,,,,,,,,,,,,,,,,,,,,,,,,,,,,,,,,,,,,,,,,,,,,,,,,,,,,,,,42,001,0,27,550,500,2022_Nov_17_1053,Experiment,2021.1.4,360.23963140189227,
,,,,,,,,,,,,,,,,,,,,,,,,,,,,,,,,,,,,,,,,,,,,,21,Afraid,rating,1.0,15.412364599999819,,,,,,,,,,,,,,,,,,,,,,,,,,,,,,,,,,,,,,,,,,,,,,,,,,,,,,,,,,,,,,,,,,,,,,,,,,,,,,,,,,,,,,,,,,,,,,,,,,,,,,,,,,,,,,,,,,,42,001,0,27,550,500,2022_Nov_17_1053,Experiment,2021.1.4,360.23963140189227,
,,,,,,,,,,,,,,,,,,,,,,,,,,,,,,,,,,,,,,,,,,,,,22,Press the + button to submit your answers,description,,,,,,,,,,,,,,,,,,,,,,,,,,,,,,,,,,,,,,,,,,,,,,,,,,,,,,,,,,,,,,,,,,,,,,,,,,,,,,,,,,,,,,,,,,,,,,,,,,,,,,,,,,,,,,,,,,,,,42,001,0,27,550,500,2022_Nov_17_1053,Experiment,2021.1.4,360.23963140189227,
,,,,,,,,,,,,,,,,,,,,,,,,,,,,,,,,,,,,,,,,,,,,,,,,,,num_add,94.95353510000041,36.87910739999916,None,,,,,,,,,,,,,,,,,,,,,,,,,,,,,,,,,,,,,,,,,,,,,,,,,,,,,,,,,,,,,,,,,,,,,,,,,,,,,,,,,,,,,,,,,,,,,,,,,,,,,,,,,,,,,,,42,001,0,27,550,500,2022_Nov_17_1053,Experiment,2021.1.4,360.23963140189227,
,,,,,,,,,,,,,,,,,,,,,,,,,,,,,,,,,,,,,,,,,,,,,,,,,,,,,,131.86648979999973,None,num_add,33.413994999999886,,,,,,,,,,,,,,,,,,,,,,,,,,,,,,,,,,,,,,,,,,,,,,,,,,,,,,,,,,,,,,,,,,,,,,,,,,,,,,,,,,,,,,,,,,,,,,,,,,,,,,,,,,,42,001,0,27,550,500,2022_Nov_17_1053,Experiment,2021.1.4,360.23963140189227,
,,,,,,,,,,,,,,,,,,,,,,,,,,,,,,,,,,,,,,,,,,,,,,,,,,,,,,,,,,165.28932239999995,None,num_add,15.767132600000878,165.28932239999995,None,,,,,,,,,,,,,,,,,,,,,,,,,,,,,,,,,,,,,,,,,,,,,,,,,,,,,,,,,,,,,,,,,,,,,,,,,,,,,,,,,,,,,,,,,,,,,,,,,,,,,42,001,0,27,550,500,2022_Nov_17_1053,Experiment,2021.1.4,360.23963140189227,
,,,,,,,,,,,,,,,,,,,,,,,,,,,,,,,,,,,,,,,,,,,,,,,,,,,,,,,,,,,,,,,,181.07606419999956,None,num_add,18.22836879999977,,,,,,,,,,,,,,,,,,,,,,,,,,,,,,,,,,,,,,,,,,,,,,,,,,,,,,,,,,,,,,,,,,,,,,,,,,,,,,,,,,,,,,,,,,,,,,,,,42,001,0,27,550,500,2022_Nov_17_1053,Experiment,2021.1.4,360.23963140189227,
,,,,,,,,,,,,,,,,,,,,,,,,,,,,,,,,,,,,,,,,,,,,,,,,,,,,,,,,,,,,,,,,,,,,199.31489209999927,None,space,81.06129460000011,,,,,,,,,,,,,,,,,,,,,,,,,,,,,,,,,,,,,,,,,,,,,,,,,,,,,,,,,,,,,,,,,,,,,,,,,,,,,,,,,,,,,,,,,,,,,42,001,0,27,550,500,2022_Nov_17_1053,Experiment,2021.1.4,360.23963140189227,
images\S21_F_H_01.png,images\S21_F_H_01_scrambled.png,21,Happy,-0.1,F,0,0,practice,off,1,0.5,0.75,0.5,0.853,3,,,,,,,,,,,0,0,0,0,,,,,,,,,,,,,,,,,,,,,,,,,,,,,,,,,,,,,,,,,,,280.5397061999993,281.0451491999993,281.0451491999993,281.7976908999999,281.7976908999999,282.3031272999997,282.3031272999997,283.16113739999946,283.16113739999946,None,num_4,2.7672684999997728,283.16113739999946,None,,,,,,,,,,,,,,,,,,,,,,,,,,,,,,,,,,,,,,,,,,,,,,,,,,,,,,,,,,,,,,,,,,,,,,,,,,,,,,,42,001,0,27,550,500,2022_Nov_17_1053,Experiment,2021.1.4,360.23963140189227,
images\S22_M_S_02.png,images\S22_M_S_02_scrambled.png,22,Sad,0.2,M,0,0,practice,off,1,0.5,0.75,0.5,0.751,3,,,,,,,,,,,0,1,1,3,,,,,,,,,,,,,,,,,,,,,,,,,,,,,,,,,,,,,,,,,,,286.02134549999937,286.5267482999998,286.5267482999998,287.2765210999996,287.2765210999996,287.77918319999935,287.77918319999935,288.53448429999935,288.53448429999935,None,num_4,0.5619096000000354,288.53448429999935,None,,,,,,,,,,,,,,,,,,,,,,,,,,,,,,,,,,,,,,,,,,,,,,,,,,,,,,,,,,,,,,,,,,,,,,,,,,,,,,,42,001,0,27,550,500,2022_Nov_17_1053,Experiment,2021.1.4,360.23963140189227,
images\S22_M_S_03.png,images\S22_M_S_03_scrambled.png,22,Sad,0.3,M,0,0,practice,on,2,0.5,0.75,0.5,0.794,3,,,,,,,,,,,0,2,2,7,,,,,,,,,,,,,,,,,,,,,,,,,,,,,,,,,,,,,,,,,,,289.1870296999996,289.68965839999964,289.68965839999964,290.44220229999974,290.44220229999974,290.94485219999933,290.94485219999933,291.7446092,291.7446092,None,num_4,1.7115600999995877,291.7446092,None,,,,,,,,,,,,,,,,,,,,,,,,,,,,,,,,,,,,,,,,,,,,,,,,,,,,,,,,,,,,,,,,,,,,,,,,,,,,,,,42,001,0,27,550,500,2022_Nov_17_1053,Experiment,2021.1.4,360.23963140189227,
images\S21_F_H_02.png,images\S21_F_H_02_scrambled.png,21,Happy,-0.2,F,0,0,practice,off,1,0.5,0.75,0.5,0.91,3,,,,,,,,,,,0,3,3,1,,,,,,,,,,,,,,,,,,,,,,,,,,,,,,,,,,,,,,,,,,,293.54401869999947,294.04945679999946,294.04945679999946,294.79918589999943,294.79918589999943,295.3018469999997,295.3018469999997,296.21543440000005,296.21543440000005,None,num_6,0.48888329999954294,296.21543440000005,None,,,,,,,,,,,,,,,,,,,,,,,,,,,,,,,,,,,,,,,,,,,,,,,,,,,,,,,,,,,,,,,,,,,,,,,,,,,,,,,42,001,0,27,550,500,2022_Nov_17_1053,Experiment,2021.1.4,360.23963140189227,
images\S22_M_S_02.png,images\S22_M_S_02_scrambled.png,22,Sad,0.2,M,0,0,practice,on,2,0.5,0.75,0.5,0.783,3,,,,,,,,,,,0,4,4,6,,,,,,,,,,,,,,,,,,,,,,,,,,,,,,,,,,,,,,,,,,,296.7596752999998,297.26506809999955,297.26506809999955,298.0204331999994,298.0204331999994,298.52315049999925,298.52315049999925,299.3089915999999,299.3089915999999,None,num_4,0.7632838999998057,299.3089915999999,None,,,,,,,,,,,,,,,,,,,,,,,,,,,,,,,,,,,,,,,,,,,,,,,,,,,,,,,,,,,,,,,,,,,,,,,,,,,,,,,42,001,0,27,550,500,2022_Nov_17_1053,Experiment,2021.1.4,360.23963140189227,
images\S22_M_S_01.png,images\S22_M_S_01_scrambled.png,22,Sad,0.1,M,0,0,practice,on,2,0.5,0.75,0.5,0.867,3,,,,,,,,,,,0,5,5,5,,,,,,,,,,,,,,,,,,,,,,,,,,,,,,,,,,,,,,,,,,,300.1614047999992,300.6641559999998,300.6641559999998,301.41381419999925,301.41381419999925,301.91923939999924,301.91923939999924,302.78849439999976,302.78849439999976,None,num_4,1.1717344999997295,302.78849439999976,None,,,,,,,,,,,,,,,,,,,,,,,,,,,,,,,,,,,,,,,,,,,,,,,,,,,,,,,,,,,,,,,,,,,,,,,,,,,,,,,42,001,0,27,550,500,2022_Nov_17_1053,Experiment,2021.1.4,360.23963140189227,
images\S22_M_H_02.png,images\S22_M_H_02_scrambled.png,22,Happy,-0.2,M,0,0,practice,off,1,0.5,0.75,0.5,0.883,3,,,,,,,,,,,0,6,6,2,,,,,,,,,,,,,,,,,,,,,,,,,,,,,,,,,,,,,,,,,,,304.05187509999996,304.55452629999945,304.55452629999945,305.30985129999954,305.30985129999954,305.80965579999975,305.80965579999975,306.69551749999937,306.69551749999937,None,num_6,0.08071310000013909,306.69551749999937,None,,,,,,,,,,,,,,,,,,,,,,,,,,,,,,,,,,,,,,,,,,,,,,,,,,,,,,,,,,,,,,,,,,,,,,,,,,,,,,,42,001,0,27,550,500,2022_Nov_17_1053,Experiment,2021.1.4,360.23963140189227,
images\S22_M_S_03.png,images\S22_M_S_03_scrambled.png,22,Sad,0.3,M,0,0,practice,on,2,0.5,0.75,0.5,0.87,3,,,,,,,,,,,0,7,7,4,,,,,,,,,,,,,,,,,,,,,,,,,,,,,,,,,,,,,,,,,,,306.8398935999994,307.3397376999992,307.3397376999992,308.09508839999944,308.09508839999944,308.5977161999999,308.5977161999999,309.46965869999985,309.46965869999985,None,num_4,0.3946974999998929,309.46965869999985,None,,,,,,,,,,,,,,,,,,,,,,,,,,,,,,,,,,,,,,,,,,,,,,,,,,,,,,,,,,,,,,,,,,,,,,,,,,,,,,,42,001,0,27,550,500,2022_Nov_17_1053,Experiment,2021.1.4,360.23963140189227,
,,,,,,,,,,,,,,,,,,,,,,,,,,,,,,,,,,,,,,,,,,,,,,,,,,,,,,,,,,,,,,,,,,,,,,,,,,,,,,,,,,,,,,309.89450639999995,None,space,78.40962209999998,,,,,,,,,,,,,,,,,,,,,,,,,,,,,,,,,,,,,,,,,,,,,,,,,,,,,,,,,,,,,,,,,,,,,,,,,,,42,001,0,27,550,500,2022_Nov_17_1053,Experiment,2021.1.4,360.23963140189227,
images\S4_M_H_01.png,images\S4_M_H_01_scrambled.png,4,happy,10,male,4,,559,on,2,0.5,0.75,0.5,0.95,3,558,1,1,1,2,2,32,128,164,,,,,,0,0,0,0,,,,,,,,,,,,,,,,,,,,,,,,,,,,,,,,,,,,,,,,,,,,,,,,,,,,,,,,,388.8033450999992,389.30890629999976,389.30890629999976,390.0585461999999,390.0585461999999,390.5611694999998,390.5611694999998,391.5164434999997,391.5164434999997,None,num_4,0.5636971000003541,391.5164434999997,None,sad,0,Happy,392.0968175999992,None,None,392.0968175999992,None,,,,,,,,,,,,,,,,,,,,,,,,,,,,,,,,,,,,,,,,,,,,,,,,,,,,,42,001,0,27,550,500,2022_Nov_17_1053,Experiment,2021.1.4,360.23963140189227,
images\S8_M_H_01.png,images\S8_M_H_01_scrambled.png,8,happy,10,male,4,,463,on,2,0.5,0.75,0.5,0.805,3,462,2,1,2,2,2,32,128,164,,,,,,0,1,1,1,,,,,,,,,,,,,,,,,,,,,,,,,,,,,,,,,,,,,,,,,,,,,,,,,,,,,,,,,392.1828984999993,392.6855495,392.6855495,393.44082529999923,393.44082529999923,393.94625779999933,393.94625779999933,394.7544748999999,394.7544748999999,None,num_6,0.8214377999993303,394.7544748999999,None,happy,0,Happy,395.5957506999998,None,None,395.5957506999998,None,,,,,,,,,,,,,,,,,,,,,,,,,,,,,,,,,,,,,,,,,,,,,,,,,,,,,42,001,0,27,550,500,2022_Nov_17_1053,Experiment,2021.1.4,360.23963140189227,
images\S8_M_H_02.png,images\S8_M_H_02_scrambled.png,8,happy,20,male,5,,284,off,1,0.5,0.75,0.5,0.887,3,283,1,2,1,0,0,0,0,5,,,,,,0,2,2,2,,,,,,,,,,,,,,,,,,,,,,,,,,,,,,,,,,,,,,,,,,,,,,,,,,,,,,,,,395.7067954999993,396.2095428999992,396.2095428999992,396.9648273999992,396.9648273999992,397.47018539999954,397.47018539999954,398.35874579999927,398.35874579999927,None,num_6,0.48927219999950466,398.35874579999927,None,happy,0,Happy,398.85861933999917,None,None,398.85861933999917,None,,,,,,,,,,,,,,,,,,,,,,,,,,,,,,,,,,,,,,,,,,,,,,,,,,,,,42,001,0,27,550,500,2022_Nov_17_1053,Experiment,2021.1.4,360.23963140189227,
images\S9_F_H_01.png,images\S9_F_H_01_scrambled.png,9,happy,10,female,4,,49,off,1,0.5,0.75,0.5,0.879,3,48,2,1,1,0,0,0,0,4,,,,,,0,3,3,3,,,,,,,,,,,,,,,,,,,,,,,,,,,,,,,,,,,,,,,,,,,,,,,,,,,,,,,,,398.9446820999992,399.45012979999956,399.45012979999956,400.20266699999956,400.20266699999956,400.70528659999945,400.70528659999945,401.5911092999995,401.5911092999995,None,num_6,0.5449109999999564,401.5911092999995,None,happy,0,Happy,402.15481449999925,None,None,402.15481449999925,None,,,,,,,,,,,,,,,,,,,,,,,,,,,,,,,,,,,,,,,,,,,,,,,,,,,,,42,001,0,27,550,500,2022_Nov_17_1053,Experiment,2021.1.4,360.23963140189227,
images\S5_F_S_03.png,images\S5_F_S_03_scrambled.png,5,sad,-30,female,1,,210,on,2,0.5,0.75,0.5,0.784,3,209,1,1,1,2,2,32,128,161,,,,,,0,4,4,4,,,,,,,,,,,,,,,,,,,,,,,,,,,,,,,,,,,,,,,,,,,,,,,,,,,,,,,,,402.2325502999993,402.73521729999993,402.73521729999993,403.4877484999997,403.4877484999997,403.99037299999964,403.99037299999964,404.77623829999993,404.77623829999993,None,num_4,0.26385909999953583,404.77623829999993,None,sad,0,Sad,405.0679090199999,None,None,405.0679090199999,None,,,,,,,,,,,,,,,,,,,,,,,,,,,,,,,,,,,,,,,,,,,,,,,,,,,,,42,001,0,27,550,500,2022_Nov_17_1053,Experiment,2021.1.4,360.23963140189227,
images\S8_M_S_03.png,images\S8_M_S_03_scrambled.png,8,sad,-30,male,1,,588,on,2,0.5,0.75,0.5,0.851,3,587,2,1,2,2,2,32,128,161,,,,,,0,5,5,5,,,,,,,,,,,,,,,,,,,,,,,,,,,,,,,,,,,,,,,,,,,,,,,,,,,,,,,,,405.1816291999994,405.68703579999965,405.68703579999965,406.4396741999999,406.4396741999999,406.9450248999992,406.9450248999992,407.8002715999992,407.8002715999992,None,num_4,0.19966310000017984,407.8002715999992,None,sad,0,Sad,408.02807273999946,None,None,408.02807273999946,None,,,,,,,,,,,,,,,,,,,,,,,,,,,,,,,,,,,,,,,,,,,,,,,,,,,,,42,001,0,27,550,500,2022_Nov_17_1053,Experiment,2021.1.4,360.23963140189227,
images\S3_F_S_03.png,images\S3_F_S_03_scrambled.png,3,sad,-30,female,1,,438,on,2,0.5,0.75,0.5,0.766,3,437,3,1,3,2,2,32,128,161,,,,,,0,6,6,6,,,,,,,,,,,,,,,,,,,,,,,,,,,,,,,,,,,,,,,,,,,,,,,,,,,,,,,,,408.14198149999993,408.6445324999995,408.6445324999995,409.3942185999995,409.3942185999995,409.8940748999994,409.8940748999994,410.6660882999995,410.6660882999995,None,num_4,0.1578932000002169,410.6660882999995,None,sad,0,Sad,410.8411292599991,None,None,410.8411292599991,None,,,,,,,,,,,,,,,,,,,,,,,,,,,,,,,,,,,,,,,,,,,,,,,,,,,,,42,001,0,27,550,500,2022_Nov_17_1053,Experiment,2021.1.4,360.23963140189227,
images\S1_F_S_01.png,images\S1_F_S_01_scrambled.png,1,sad,-10,female,3,,364,off,1,0.5,0.75,0.5,0.854,3,363,1,1,1,0,0,0,0,3,,,,,,0,7,7,7,,,,,,,,,,,,,,,,,,,,,,,,,,,,,,,,,,,,,,,,,,,,,,,,,,,,,,,,,410.95761239999956,411.4602879999993,411.4602879999993,412.2156092999994,412.2156092999994,412.7209912999997,412.7209912999997,413.5818352999995,413.5818352999995,None,num_6,0.28213510000023234,413.5818352999995,None,happy,0,Sad,413.8678477199994,None,None,413.8678477199994,None,,,,,,,,,,,,,,,,,,,,,,,,,,,,,,,,,,,,,,,,,,,,,,,,,,,,,42,001,0,27,550,500,2022_Nov_17_1053,Experiment,2021.1.4,360.23963140189227,
images\S3_F_S_03.png,images\S3_F_S_03_scrambled.png,3,sad,-30,female,1,,198,on,2,0.5,0.75,0.5,0.932,3,197,1,1,1,2,2,32,128,161,,,,,,0,8,8,8,,,,,,,,,,,,,,,,,,,,,,,,,,,,,,,,,,,,,,,,,,,,,,,,,,,,,,,,,413.9150293999992,414.42047789999924,414.42047789999924,415.1758052999994,415.1758052999994,415.68119320000005,415.68119320000005,416.61697789999926,416.61697789999926,None,num_4,0.2309255000000121,416.61697789999926,None,sad,0,Sad,416.87532407999953,None,None,416.87532407999953,None,,,,,,,,,,,,,,,,,,,,,,,,,,,,,,,,,,,,,,,,,,,,,,,,,,,,,42,001,0,27,550,500,2022_Nov_17_1053,Experiment,2021.1.4,360.23963140189227,
images\S3_F_S_01.png,images\S3_F_S_01_scrambled.png,3,sad,-10,female,3,,316,on,2,0.5,0.75,0.5,0.941,3,315,2,2,1,2,2,32,128,163,,,,,,0,9,9,9,,,,,,,,,,,,,,,,,,,,,,,,,,,,,,,,,,,,,,,,,,,,,,,,,,,,,,,,,416.98078389999955,417.4806015999993,417.4806015999993,418.23315060000004,418.23315060000004,418.73865879999994,418.73865879999994,419.68551059999936,419.68551059999936,None,num_4,0.050460400000702066,419.68551059999936,None,sad,0,Sad,419.7633198799993,None,None,419.7633198799993,None,,,,,,,,,,,,,,,,,,,,,,,,,,,,,,,,,,,,,,,,,,,,,,,,,,,,,42,001,0,27,550,500,2022_Nov_17_1053,Experiment,2021.1.4,360.23963140189227,
images\S9_F_S_01.png,images\S9_F_S_01_scrambled.png,9,sad,-10,female,3,,412,off,1,0.5,0.75,0.5,0.876,3,411,1,1,2,0,0,0,0,3,,,,,,0,10,10,10,,,,,,,,,,,,,,,,,,,,,,,,,,,,,,,,,,,,,,,,,,,,,,,,,,,,,,,,,419.87152799999967,420.3742973999997,420.3742973999997,421.12671109999974,421.12671109999974,421.62653649999993,421.62653649999993,422.5040558999999,422.5040558999999,None,num_6,0.21590569999989384,422.5040558999999,None,happy,0,Sad,422.73461807999985,None,None,422.73461807999985,None,,,,,,,,,,,,,,,,,,,,,,,,,,,,,,,,,,,,,,,,,,,,,,,,,,,,,42,001,0,27,550,500,2022_Nov_17_1053,Experiment,2021.1.4,360.23963140189227,
images\S4_M_H_02.png,images\S4_M_H_02_scrambled.png,4,happy,20,male,5,,200,on,2,0.5,0.75,0.5,0.765,3,199,1,1,1,2,2,32,128,165,,,,,,0,11,11,11,,,,,,,,,,,,,,,,,,,,,,,,,,,,,,,,,,,,,,,,,,,,,,,,,,,,,,,,,422.84004469999945,423.3454882999995,423.3454882999995,424.095225,424.095225,424.6006426999993,424.6006426999993,425.3698674999996,425.3698674999996,None,num_6,0.2459433000003628,425.3698674999996,None,happy,0,Happy,425.62809874,None,None,425.62809874,None,,,,,,,,,,,,,,,,,,,,,,,,,,,,,,,,,,,,,,,,,,,,,,,,,,,,,42,001,0,27,550,500,2022_Nov_17_1053,Experiment,2021.1.4,360.23963140189227,
images\S10_M_S_03.png,images\S10_M_S_03_scrambled.png,10,sad,-30,male,1,,60,off,1,0.5,0.75,0.5,0.794,3,59,1,1,1,0,0,0,0,1,,,,,,0,12,12,12,,,,,,,,,,,,,,,,,,,,,,,,,,,,,,,,,,,,,,,,,,,,,,,,,,,,,,,,,425.7141544999995,426.2196680999996,426.2196680999996,426.9693450999994,426.9693450999994,427.4748163999993,427.4748163999993,428.2745625999996,428.2745625999996,None,num_4,0.16531080000004295,428.2745625999996,None,sad,0,Sad,428.46341787999955,None,None,428.46341787999955,None,,,,,,,,,,,,,,,,,,,,,,,,,,,,,,,,,,,,,,,,,,,,,,,,,,,,,42,001,0,27,550,500,2022_Nov_17_1053,Experiment,2021.1.4,360.23963140189227,
images\S1_F_H_03.png,images\S1_F_H_03_scrambled.png,1,happy,30,female,6,,183,on,2,0.5,0.75,0.5,0.781,3,182,1,1,1,2,2,32,128,166,,,,,,0,13,13,13,,,,,,,,,,,,,,,,,,,,,,,,,,,,,,,,,,,,,,,,,,,,,,,,,,,,,,,,,428.57715519999965,429.0798307999994,429.0798307999994,429.83514769999965,429.83514769999965,430.3377338999999,430.3377338999999,431.1237266999997,431.1237266999997,None,num_6,0.2762155000000348,431.1237266999997,None,happy,0,Happy,431.4208704799992,None,None,431.4208704799992,None,,,,,,,,,,,,,,,,,,,,,,,,,,,,,,,,,,,,,,,,,,,,,,,,,,,,,42,001,0,27,550,500,2022_Nov_17_1053,Experiment,2021.1.4,360.23963140189227,
images\S4_M_S_03.png,images\S4_M_S_03_scrambled.png,4,sad,-30,male,1,,564,on,2,0.5,0.75,0.5,0.895,3,563,2,1,1,2,2,32,128,161,,,,,,0,14,14,14,,,,,,,,,,,,,,,,,,,,,,,,,,,,,,,,,,,,,,,,,,,,,,,,,,,,,,,,,431.53175399999964,432.0344422999997,432.0344422999997,432.78696390000005,432.78696390000005,433.2896529999998,433.2896529999998,434.1894543999997,434.1894543999997,None,num_4,0.07444010000017443,434.1894543999997,None,sad,0,Sad,434.28108265999947,None,None,434.28108265999947,None,,,,,,,,,,,,,,,,,,,,,,,,,,,,,,,,,,,,,,,,,,,,,,,,,,,,,42,001,0,27,550,500,2022_Nov_17_1053,Experiment,2021.1.4,360.23963140189227,
images\S10_M_S_01.png,images\S10_M_S_01_scrambled.png,10,sad,-10,male,3,,418,off,1,0.5,0.75,0.5,0.842,3,417,1,1,1,0,0,0,0,3,,,,,,0,15,15,15,,,,,,,,,,,,,,,,,,,,,,,,,,,,,,,,,,,,,,,,,,,,,,,,,,,,,,,,,434.38925839999956,434.8918808999997,434.8918808999997,435.64452099999926,435.64452099999926,436.1442817999996,436.1442817999996,436.98566630000005,436.98566630000005,None,num_6,0.18228540000018256,436.98566630000005,None,happy,0,Sad,437.1801752199992,None,None,437.1801752199992,None,,,,,,,,,,,,,,,,,,,,,,,,,,,,,,,,,,,,,,,,,,,,,,,,,,,,,42,001,0,27,550,500,2022_Nov_17_1053,Experiment,2021.1.4,360.23963140189227,
images\S9_F_S_02.png,images\S9_F_S_02_scrambled.png,9,sad,-20,female,2,,293,off,1,0.5,0.75,0.5,0.855,3,292,2,1,1,0,0,0,0,2,,,,,,0,16,16,16,,,,,,,,,,,,,,,,,,,,,,,,,,,,,,,,,,,,,,,,,,,,,,,,,,,,,,,,,437.2911062999992,437.7965495999997,437.7965495999997,438.5518611999996,438.5518611999996,439.0545667999995,439.0545667999995,439.91535919999933,439.91535919999933,None,num_4,0.4205823000002056,439.91535919999933,None,sad,0,Sad,440.34576363999935,None,None,440.34576363999935,None,,,,,,,,,,,,,,,,,,,,,,,,,,,,,,,,,,,,,,,,,,,,,,,,,,,,,42,001,0,27,550,500,2022_Nov_17_1053,Experiment,2021.1.4,360.23963140189227,
images\S8_M_S_01.png,images\S8_M_S_01_scrambled.png,8,sad,-10,male,3,,346,on,2,0.5,0.75,0.5,0.773,3,345,1,1,1,2,2,32,128,163,,,,,,0,17,17,17,,,,,,,,,,,,,,,,,,,,,,,,,,,,,,,,,,,,,,,,,,,,,,,,,,,,,,,,,440.4290704999994,440.93452029999935,440.93452029999935,441.6898128999992,441.6898128999992,442.1952031999999,442.1952031999999,442.9699299999993,442.9699299999993,None,num_4,0.2458862000003137,442.9699299999993,None,sad,0,Sad,443.2281969399996,None,None,443.2281969399996,None,,,,,,,,,,,,,,,,,,,,,,,,,,,,,,,,,,,,,,,,,,,,,,,,,,,,,42,001,0,27,550,500,2022_Nov_17_1053,Experiment,2021.1.4,360.23963140189227,
images\S4_M_S_02.png,images\S4_M_S_02_scrambled.png,4,sad,-20,male,2,,563,on,2,0.5,0.75,0.5,0.873,3,562,2,1,1,2,2,32,128,162,,,,,,0,18,18,18,,,,,,,,,,,,,,,,,,,,,,,,,,,,,,,,,,,,,,,,,,,,,,,,,,,,,,,,,443.3114851999999,443.81409769999937,443.81409769999937,444.56387369999993,444.56387369999993,445.0694012999993,445.0694012999993,445.9496787999997,445.9496787999997,None,num_4,0.21026400000027934,445.9496787999997,None,sad,0,Sad,446.1884772799993,None,None,446.1884772799993,None,,,,,,,,,,,,,,,,,,,,,,,,,,,,,,,,,,,,,,,,,,,,,,,,,,,,,42,001,0,27,550,500,2022_Nov_17_1053,Experiment,2021.1.4,360.23963140189227,
images\S9_F_S_02.png,images\S9_F_S_02_scrambled.png,9,sad,-20,female,2,,53,off,1,0.5,0.75,0.5,0.871,3,52,1,1,2,0,0,0,0,2,,,,,,0,19,19,19,,,,,,,,,,,,,,,,,,,,,,,,,,,,,,,,,,,,,,,,,,,,,,,,,,,,,,,,,446.2411313999992,446.7439025999993,446.7439025999993,447.4992151999995,447.4992151999995,448.00171489999957,448.00171489999957,448.87932809999984,448.87932809999984,None,num_6,0.6726346000004924,448.87932809999984,None,happy,0,Sad,449.55678081999963,None,None,449.55678081999963,None,,,,,,,,,,,,,,,,,,,,,,,,,,,,,,,,,,,,,,,,,,,,,,,,,,,,,42,001,0,27,550,500,2022_Nov_17_1053,Experiment,2021.1.4,360.23963140189227,
images\S2_M_H_01.png,images\S2_M_H_01_scrambled.png,2,happy,10,male,4,,67,on,2,0.5,0.75,0.5,0.762,3,66,1,1,1,2,2,32,128,164,,,,,,0,20,20,20,,,,,,,,,,,,,,,,,,,,,,,,,,,,,,,,,,,,,,,,,,,,,,,,,,,,,,,,,449.64284939999925,450.14548149999973,450.14548149999973,450.8980580999996,450.8980580999996,451.39790379999977,451.39790379999977,452.16442969999935,452.16442969999935,None,num_6,0.2674715000002834,452.16442969999935,None,happy,0,Happy,452.4531587199997,None,None,452.4531587199997,None,,,,,,,,,,,,,,,,,,,,,,,,,,,,,,,,,,,,,,,,,,,,,,,,,,,,,42,001,0,27,550,500,2022_Nov_17_1053,Experiment,2021.1.4,360.23963140189227,
images\S8_M_S_03.png,images\S8_M_S_03_scrambled.png,8,sad,-30,male,1,,288,off,1,0.5,0.75,0.5,0.884,3,287,1,1,1,0,0,0,0,1,,,,,,0,21,21,21,,,,,,,,,,,,,,,,,,,,,,,,,,,,,,,,,,,,,,,,,,,,,,,,,,,,,,,,,452.50585619999947,453.0112758999994,453.0112758999994,453.76659389999986,453.76659389999986,454.2693376999996,454.2693376999996,455.1550785999998,455.1550785999998,None,num_4,0.22072369999932562,455.1550785999998,None,sad,0,Sad,455.39399881999975,None,None,455.39399881999975,None,,,,,,,,,,,,,,,,,,,,,,,,,,,,,,,,,,,,,,,,,,,,,,,,,,,,,42,001,0,27,550,500,2022_Nov_17_1053,Experiment,2021.1.4,360.23963140189227,
images\S7_F_H_03.png,images\S7_F_H_03_scrambled.png,7,happy,30,female,6,,459,on,2,0.5,0.75,0.5,0.77,3,458,1,1,1,2,2,32,128,166,,,,,,0,22,22,22,,,,,,,,,,,,,,,,,,,,,,,,,,,,,,,,,,,,,,,,,,,,,,,,,,,,,,,,,455.49936649999927,456.0019930999997,456.0019930999997,456.7546333999999,456.7546333999999,457.25998029999937,457.25998029999937,458.03473759999997,458.03473759999997,None,num_6,0.2690542000000278,458.03473759999997,None,happy,0,Happy,458.3207476999992,None,None,458.3207476999992,None,,,,,,,,,,,,,,,,,,,,,,,,,,,,,,,,,,,,,,,,,,,,,,,,,,,,,42,001,0,27,550,500,2022_Nov_17_1053,Experiment,2021.1.4,360.23963140189227,
images\S8_M_H_01.png,images\S8_M_H_01_scrambled.png,8,happy,10,male,4,,163,off,1,0.5,0.75,0.5,0.94,3,162,1,1,1,0,0,0,0,4,,,,,,0,23,23,23,,,,,,,,,,,,,,,,,,,,,,,,,,,,,,,,,,,,,,,,,,,,,,,,,,,,,,,,,458.36515829999917,458.8705909,458.8705909,459.6258988999998,459.6258988999998,460.1312990999995,460.1312990999995,461.07263839999996,461.07263839999996,None,num_6,1.1911179000007905,461.07263839999996,None,happy,0,Happy,462.2778389399995,None,None,462.2778389399995,None,,,,,,,,,,,,,,,,,,,,,,,,,,,,,,,,,,,,,,,,,,,,,,,,,,,,,42,001,0,27,550,500,2022_Nov_17_1053,Experiment,2021.1.4,360.23963140189227,
images\S8_M_S_01.png,images\S8_M_S_01_scrambled.png,8,sad,-10,male,3,,166,off,1,0.5,0.75,0.5,0.872,3,165,2,2,1,0,0,0,0,3,,,,,,0,24,24,24,,,,,,,,,,,,,,,,,,,,,,,,,,,,,,,,,,,,,,,,,,,,,,,,,,,,,,,,,462.3250472,462.8248902999994,462.8248902999994,463.5746401999995,463.5746401999995,464.0773242999994,464.0773242999994,464.95482249999986,464.95482249999986,None,num_4,0.4129043000002639,464.95482249999986,None,sad,0,Sad,465.38803861999963,None,None,465.38803861999963,None,,,,,,,,,,,,,,,,,,,,,,,,,,,,,,,,,,,,,,,,,,,,,,,,,,,,,42,001,0,27,550,500,2022_Nov_17_1053,Experiment,2021.1.4,360.23963140189227,
images\S3_F_H_01.png,images\S3_F_H_01_scrambled.png,3,happy,10,female,4,,553,on,2,0.5,0.75,0.5,0.78,3,552,1,1,1,2,2,32,128,164,,,,,,0,25,25,25,,,,,,,,,,,,,,,,,,,,,,,,,,,,,,,,,,,,,,,,,,,,,,,,,,,,,,,,,465.49626779999926,466.00169539999933,466.00169539999933,466.7543662999997,466.7543662999997,467.25969369999984,467.25969369999984,468.0455299999994,468.0455299999994,None,num_4,0.49024569999983214,468.0455299999994,None,sad,0,Happy,468.54534592000005,None,None,468.54534592000005,None,,,,,,,,,,,,,,,,,,,,,,,,,,,,,,,,,,,,,,,,,,,,,,,,,,,,,42,001,0,27,550,500,2022_Nov_17_1053,Experiment,2021.1.4,360.23963140189227,
images\S8_M_H_01.png,images\S8_M_H_01_scrambled.png,8,happy,10,male,4,,403,off,1,0.5,0.75,0.5,0.903,3,402,1,1,2,0,0,0,0,4,,,,,,0,26,26,26,,,,,,,,,,,,,,,,,,,,,,,,,,,,,,,,,,,,,,,,,,,,,,,,,,,,,,,,,468.59253979999994,469.09516110000004,469.09516110000004,469.85052019999966,469.85052019999966,470.35591009999916,470.35591009999916,471.26405279999926,471.26405279999926,None,num_6,0.8476627000000008,471.26405279999926,None,happy,0,Happy,472.12479363999995,None,None,472.12479363999995,None,,,,,,,,,,,,,,,,,,,,,,,,,,,,,,,,,,,,,,,,,,,,,,,,,,,,,42,001,0,27,550,500,2022_Nov_17_1053,Experiment,2021.1.4,360.23963140189227,
images\S3_F_H_02.png,images\S3_F_H_02_scrambled.png,3,happy,20,female,5,,134,off,1,0.5,0.75,0.5,0.947,3,133,2,1,1,0,0,0,0,5,,,,,,0,27,27,27,,,,,,,,,,,,,,,,,,,,,,,,,,,,,,,,,,,,,,,,,,,,,,,,,,,,,,,,,472.2080896999996,472.7107378999999,472.7107378999999,473.46338299999934,473.46338299999934,473.96585849999974,473.96585849999974,474.91560389999995,474.91560389999995,None,num_6,1.1402596999996604,474.91560389999995,None,happy,0,Happy,476.0652460399992,None,None,476.0652460399992,None,,,,,,,,,,,,,,,,,,,,,,,,,,,,,,,,,,,,,,,,,,,,,,,,,,,,,42,001,0,27,550,500,2022_Nov_17_1053,Experiment,2021.1.4,360.23963140189227,
images\S5_F_H_01.png,images\S5_F_H_01_scrambled.png,5,happy,10,female,4,,145,off,1,0.5,0.75,0.5,0.833,3,144,3,1,1,0,0,0,0,4,,,,,,0,28,28,28,,,,,,,,,,,,,,,,,,,,,,,,,,,,,,,,,,,,,,,,,,,,,,,,,,,,,,,,,476.1457520999993,476.64840099999947,476.64840099999947,477.3981801,477.3981801,477.8979911999995,477.8979911999995,478.7338626999999,478.7338626999999,None,num_6,0.305902099999912,478.7338626999999,None,happy,0,Happy,479.0504274399995,None,None,479.0504274399995,None,,,,,,,,,,,,,,,,,,,,,,,,,,,,,,,,,,,,,,,,,,,,,,,,,,,,,42,001,0,27,550,500,2022_Nov_17_1053,Experiment,2021.1.4,360.23963140189227,
images\S8_M_S_02.png,images\S8_M_S_02_scrambled.png,8,sad,-20,male,2,,107,on,2,0.5,0.75,0.5,0.934,3,106,1,1,1,2,2,32,128,162,,,,,,0,29,29,29,,,,,,,,,,,,,,,,,,,,,,,,,,,,,,,,,,,,,,,,,,,,,,,,,,,,,,,,,479.13370659999964,479.63358889999927,479.63358889999927,480.3833302999992,480.3833302999992,480.88321369999994,480.88321369999994,481.8189913999995,481.8189913999995,None,num_4,0.4930101999998442,481.8189913999995,None,sad,0,Sad,482.3244021399991,None,None,482.3244021399991,None,,,,,,,,,,,,,,,,,,,,,,,,,,,,,,,,,,,,,,,,,,,,,,,,,,,,,42,001,0,27,550,500,2022_Nov_17_1053,Experiment,2021.1.4,360.23963140189227,
images\S8_M_S_01.png,images\S8_M_S_01_scrambled.png,8,sad,-10,male,3,,106,on,2,0.5,0.75,0.5,0.857,3,105,2,2,1,2,2,32,128,163,,,,,,0,30,30,30,,,,,,,,,,,,,,,,,,,,,,,,,,,,,,,,,,,,,,,,,,,,,,,,,,,,,,,,,482.3715979999997,482.8743508999996,482.8743508999996,483.6267635999993,483.6267635999993,484.1294062999996,484.1294062999996,484.9874708999996,484.9874708999996,None,num_4,0.2922160000007352,484.9874708999996,None,sad,0,Sad,485.29298509999944,None,None,485.29298509999944,None,,,,,,,,,,,,,,,,,,,,,,,,,,,,,,,,,,,,,,,,,,,,,,,,,,,,,42,001,0,27,550,500,2022_Nov_17_1053,Experiment,2021.1.4,360.23963140189227,
images\S8_M_S_01.png,images\S8_M_S_01_scrambled.png,8,sad,-10,male,3,,406,off,1,0.5,0.75,0.5,0.848,3,405,1,3,2,0,0,0,0,3,,,,,,0,31,31,31,,,,,,,,,,,,,,,,,,,,,,,,,,,,,,,,,,,,,,,,,,,,,,,,,,,,,,,,,485.35955399999966,485.8622052999999,485.8622052999999,486.6147265999998,486.6147265999998,487.11740369999916,487.11740369999916,487.96987009999975,487.96987009999975,None,num_4,0.2938728999997693,487.96987009999975,None,sad,0,Sad,488.2809055999992,None,None,488.2809055999992,None,,,,,,,,,,,,,,,,,,,,,,,,,,,,,,,,,,,,,,,,,,,,,,,,,,,,,42,001,0,27,550,500,2022_Nov_17_1053,Experiment,2021.1.4,360.23963140189227,
images\S4_M_H_03.png,images\S4_M_H_03_scrambled.png,4,happy,30,male,6,,141,off,1,0.5,0.75,0.5,0.905,3,140,2,1,1,0,0,0,0,6,,,,,,0,32,32,32,,,,,,,,,,,,,,,,,,,,,,,,,,,,,,,,,,,,,,,,,,,,,,,,,,,,,,,,,488.3614196999997,488.86417079999956,488.86417079999956,489.61379619999934,489.61379619999934,490.1193326999992,490.1193326999992,491.0300545,491.0300545,None,num_6,0.4176033000003372,491.0300545,None,happy,0,Happy,491.46048969999947,None,None,491.46048969999947,None,,,,,,,,,,,,,,,,,,,,,,,,,,,,,,,,,,,,,,,,,,,,,,,,,,,,,42,001,0,27,550,500,2022_Nov_17_1053,Experiment,2021.1.4,360.23963140189227,
images\S8_M_H_03.png,images\S8_M_H_03_scrambled.png,8,happy,30,male,6,,345,on,2,0.5,0.75,0.5,0.787,3,344,1,1,2,2,2,32,128,166,,,,,,0,33,33,33,,,,,,,,,,,,,,,,,,,,,,,,,,,,,,,,,,,,,,,,,,,,,,,,,,,,,,,,,491.5465360999997,492.04929039999934,492.04929039999934,492.79892029999974,492.79892029999974,493.30441489999976,493.30441489999976,494.09866039999997,494.09866039999997,None,num_6,0.5409647999995286,494.09866039999997,None,happy,0,Happy,494.6511538399995,None,None,494.6511538399995,None,,,,,,,,,,,,,,,,,,,,,,,,,,,,,,,,,,,,,,,,,,,,,,,,,,,,,42,001,0,27,550,500,2022_Nov_17_1053,Experiment,2021.1.4,360.23963140189227,
images\S5_F_S_01.png,images\S5_F_S_01_scrambled.png,5,sad,-10,female,3,,328,on,2,0.5,0.75,0.5,0.774,3,327,2,1,1,2,2,32,128,163,,,,,,0,34,34,34,,,,,,,,,,,,,,,,,,,,,,,,,,,,,,,,,,,,,,,,,,,,,,,,,,,,,,,,,494.74009189999924,495.24260589999994,495.24260589999994,495.9923753999992,495.9923753999992,496.49499839999953,496.49499839999953,497.2697626999998,497.2697626999998,None,num_6,0.39406379999945784,497.2697626999998,None,happy,0,Sad,497.6724221199995,None,None,497.6724221199995,None,,,,,,,,,,,,,,,,,,,,,,,,,,,,,,,,,,,,,,,,,,,,,,,,,,,,,42,001,0,27,550,500,2022_Nov_17_1053,Experiment,2021.1.4,360.23963140189227,
images\S4_M_S_01.png,images\S4_M_S_01_scrambled.png,4,sad,-10,male,3,,562,on,2,0.5,0.75,0.5,0.754,3,561,3,1,2,2,2,32,128,163,,,,,,0,35,35,35,,,,,,,,,,,,,,,,,,,,,,,,,,,,,,,,,,,,,,,,,,,,,,,,,,,,,,,,,497.75849259999995,498.26114770000004,498.26114770000004,499.01369179999983,499.01369179999983,499.51917929999945,499.51917929999945,500.27999679999994,500.27999679999994,None,num_4,0.40782209999997576,500.27999679999994,None,sad,0,Sad,500.7020604399999,None,None,500.7020604399999,None,,,,,,,,,,,,,,,,,,,,,,,,,,,,,,,,,,,,,,,,,,,,,,,,,,,,,42,001,0,27,550,500,2022_Nov_17_1053,Experiment,2021.1.4,360.23963140189227,
images\S1_F_H_02.png,images\S1_F_H_02_scrambled.png,1,happy,20,female,5,,362,off,1,0.5,0.75,0.5,0.888,3,361,1,1,1,0,0,0,0,5,,,,,,0,36,36,36,,,,,,,,,,,,,,,,,,,,,,,,,,,,,,,,,,,,,,,,,,,,,,,,,,,,,,,,,500.7881146,501.28796429999966,501.28796429999966,502.0434091999996,502.0434091999996,502.5458988999999,502.5458988999999,503.43730249999953,503.43730249999953,None,num_6,0.2183341999998447,503.43730249999953,None,happy,0,Happy,503.6734116999992,None,None,503.6734116999992,None,,,,,,,,,,,,,,,,,,,,,,,,,,,,,,,,,,,,,,,,,,,,,,,,,,,,,42,001,0,27,550,500,2022_Nov_17_1053,Experiment,2021.1.4,360.23963140189227,
images\S9_F_S_03.png,images\S9_F_S_03_scrambled.png,9,sad,-30,female,1,,474,on,2,0.5,0.75,0.5,0.809,3,473,1,1,1,2,2,32,128,161,,,,,,0,37,37,37,,,,,,,,,,,,,,,,,,,,,,,,,,,,,,,,,,,,,,,,,,,,,,,,,,,,,,,,,503.7844035999997,504.2898484999996,504.2898484999996,505.03957119999995,505.03957119999995,505.5422310999993,505.5422310999993,506.35305699999935,506.35305699999935,None,num_4,0.3826249000003372,506.35305699999935,None,sad,0,Sad,506.7502023999991,None,None,506.7502023999991,None,,,,,,,,,,,,,,,,,,,,,,,,,,,,,,,,,,,,,,,,,,,,,,,,,,,,,42,001,0,27,550,500,2022_Nov_17_1053,Experiment,2021.1.4,360.23963140189227,
images\S4_M_H_02.png,images\S4_M_H_02_scrambled.png,4,happy,20,male,5,,500,off,1,0.5,0.75,0.5,0.796,3,499,1,1,1,0,0,0,0,5,,,,,,0,38,38,38,,,,,,,,,,,,,,,,,,,,,,,,,,,,,,,,,,,,,,,,,,,,,,,,,,,,,,,,,506.8001388999992,507.30276799999956,507.30276799999956,508.0556229999993,508.0556229999993,508.55515249999917,508.55515249999917,509.35496129999956,509.35496129999956,None,num_4,0.5327344999996058,509.35496129999956,None,sad,0,Happy,509.8964233199997,None,None,509.8964233199997,None,,,,,,,,,,,,,,,,,,,,,,,,,,,,,,,,,,,,,,,,,,,,,,,,,,,,,42,001,0,27,550,500,2022_Nov_17_1053,Experiment,2021.1.4,360.23963140189227,
images\S5_F_S_01.png,images\S5_F_S_01_scrambled.png,5,sad,-10,female,3,,148,off,1,0.5,0.75,0.5,0.823,3,147,2,1,1,0,0,0,0,3,,,,,,0,39,39,39,,,,,,,,,,,,,,,,,,,,,,,,,,,,,,,,,,,,,,,,,,,,,,,,,,,,,,,,,509.9436195999997,510.4462547999992,510.4462547999992,511.1987733999995,511.1987733999995,511.7043070999998,511.7043070999998,512.5317061999995,512.5317061999995,None,num_6,0.4439346999997724,512.5317061999995,None,happy,0,Sad,512.9815821199993,None,None,512.9815821199993,None,,,,,,,,,,,,,,,,,,,,,,,,,,,,,,,,,,,,,,,,,,,,,,,,,,,,,42,001,0,27,550,500,2022_Nov_17_1053,Experiment,2021.1.4,360.23963140189227,
images\S2_M_S_01.png,images\S2_M_S_01_scrambled.png,2,sad,-10,male,3,,130,off,1,0.5,0.75,0.5,0.825,3,129,3,1,2,0,0,0,0,3,,,,,,0,40,40,40,,,,,,,,,,,,,,,,,,,,,,,,,,,,,,,,,,,,,,,,,,,,,,,,,,,,,,,,,513.0648551999993,513.5647192999995,513.5647192999995,514.3144749999992,514.3144749999992,514.8199326999993,514.8199326999993,515.6502151999994,515.6502151999994,None,num_4,0.22150170000077196,515.6502151999994,None,sad,0,Sad,515.8918220999999,None,None,515.8918220999999,None,,,,,,,,,,,,,,,,,,,,,,,,,,,,,,,,,,,,,,,,,,,,,,,,,,,,,42,001,0,27,550,500,2022_Nov_17_1053,Experiment,2021.1.4,360.23963140189227,
images\blank.jpg,images\blank.jpg,none,none,none,none,0,,630,on,2,0.5,0.75,0.5,0.891,0,629,1,1,1,3,3,48,192,240,,,,,,0,41,41,41,,,,,,,,,,,,,,,,,,,,,,,,,,,,,,,,,,,,,,,,,,,,,,,,,,,,,,,,,516.0419358999998,516.5471301999996,516.5471301999996,517.2968990999998,517.2968990999998,517.7995667999994,517.7995667999994,518.6938226999991,518.6938226999991,518.6938226999991,None,,518.6938226999991,None,miss,0,,521.7011189199995,None,None,521.7011189199995,None,,,,,,,,,,,,,,,,,,,,,,,,,,,,,,,,,,,,,,,,,,,,,,,,,,,,,42,001,0,27,550,500,2022_Nov_17_1053,Experiment,2021.1.4,360.23963140189227,
images\S6_M_S_03.png,images\S6_M_S_03_scrambled.png,6,sad,-30,male,1,,456,on,2,0.5,0.75,0.5,0.793,3,455,2,1,1,2,2,32,128,161,,,,,,0,42,42,42,,,,,,,,,,,,,,,,,,,,,,,,,,,,,,,,,,,,,,,,,,,,,,,,,,,,,,,,,521.8511203999997,522.3537793999994,522.3537793999994,523.1062187999996,523.1062187999996,523.6089677,523.6089677,524.4057933999993,524.4057933999993,None,num_4,0.4819587000001775,524.4057933999993,521.8511203999997,sad,0,Sad,524.9028733399995,None,None,524.9028733399995,None,,,,,,,,,,,,,,,,,,,,,,,,,,,,,,,,,,,,,,,,,,,,,,,,,,,,,42,001,0,27,550,500,2022_Nov_17_1053,Experiment,2021.1.4,360.23963140189227,
images\S8_M_S_03.png,images\S8_M_S_03_scrambled.png,8,sad,-30,male,1,,228,on,2,0.5,0.75,0.5,0.751,3,227,3,1,2,2,2,32,128,161,,,,,,0,43,43,43,,,,,,,,,,,,,,,,,,,,,,,,,,,,,,,,,,,,,,,,,,,,,,,,,,,,,,,,,524.9500712999998,525.4555017999992,525.4555017999992,526.2052329999997,526.2052329999997,526.7078557999994,526.7078557999994,527.4633119,527.4633119,None,num_4,0.2803082999998878,527.4633119,None,sad,0,Sad,527.7660034599991,None,None,527.7660034599991,None,,,,,,,,,,,,,,,,,,,,,,,,,,,,,,,,,,,,,,,,,,,,,,,,,,,,,42,001,0,27,550,500,2022_Nov_17_1053,Experiment,2021.1.4,360.23963140189227,
images\S4_M_S_02.png,images\S4_M_S_02_scrambled.png,4,sad,-20,male,2,,383,off,1,0.5,0.75,0.5,0.783,3,382,1,1,1,0,0,0,0,2,,,,,,0,44,44,44,,,,,,,,,,,,,,,,,,,,,,,,,,,,,,,,,,,,,,,,,,,,,,,,,,,,,,,,,527.8186237999998,528.3241414999993,528.3241414999993,529.0794454999996,529.0794454999996,529.5847709,529.5847709,530.3706489999995,530.3706489999995,None,num_4,0.34102419999999256,530.3706489999995,None,sad,0,Sad,530.7260793399995,None,None,530.7260793399995,None,,,,,,,,,,,,,,,,,,,,,,,,,,,,,,,,,,,,,,,,,,,,,,,,,,,,,42,001,0,27,550,500,2022_Nov_17_1053,Experiment,2021.1.4,360.23963140189227,
images\S10_M_H_02.png,images\S10_M_H_02_scrambled.png,10,happy,20,male,5,,56,off,1,0.5,0.75,0.5,0.898,3,55,2,1,1,0,0,0,0,5,,,,,,0,45,45,45,,,,,,,,,,,,,,,,,,,,,,,,,,,,,,,,,,,,,,,,,,,,,,,,,,,,,,,,,530.8065909999996,531.3092281999998,531.3092281999998,532.0645822999995,532.0645822999995,532.5699873999993,532.5699873999993,533.4696598,533.4696598,None,num_6,0.3059387000002971,533.4696598,None,happy,0,Happy,533.7890149399994,None,None,533.7890149399994,None,,,,,,,,,,,,,,,,,,,,,,,,,,,,,,,,,,,,,,,,,,,,,,,,,,,,,42,001,0,27,550,500,2022_Nov_17_1053,Experiment,2021.1.4,360.23963140189227,
images\S10_M_H_03.png,images\S10_M_H_03_scrambled.png,10,happy,30,male,6,,537,off,1,0.5,0.75,0.5,0.852,3,536,3,2,1,0,0,0,0,6,,,,,,0,46,46,46,,,,,,,,,,,,,,,,,,,,,,,,,,,,,,,,,,,,,,,,,,,,,,,,,,,,,,,,,533.9000748999997,534.4055038999995,534.4055038999995,535.1608174999992,535.1608174999992,535.6635526999999,535.6635526999999,536.5188482999993,536.5188482999993,None,num_6,0.40886779999982537,536.5188482999993,None,happy,0,Happy,536.9408144399998,None,None,536.9408144399998,None,,,,,,,,,,,,,,,,,,,,,,,,,,,,,,,,,,,,,,,,,,,,,,,,,,,,,42,001,0,27,550,500,2022_Nov_17_1053,Experiment,2021.1.4,360.23963140189227,
images\blank.jpg,images\blank.jpg,none,none,none,none,0,,618,on,2,0.5,0.75,0.5,0.947,0,617,1,1,1,3,3,48,192,240,,,,,,0,47,47,47,,,,,,,,,,,,,,,,,,,,,,,,,,,,,,,,,,,,,,,,,,,,,,,,,,,,,,,,,537.0244524,537.5267344999993,537.5267344999993,538.2792923999996,538.2792923999996,538.7847216999999,538.7847216999999,539.7316474999998,539.7316474999998,539.7316474999998,None,,539.7316474999998,None,miss,0,,542.7334626599996,None,None,542.7334626599996,None,,,,,,,,,,,,,,,,,,,,,,,,,,,,,,,,,,,,,,,,,,,,,,,,,,,,,42,001,0,27,550,500,2022_Nov_17_1053,Experiment,2021.1.4,360.23963140189227,
images\S8_M_H_03.png,images\S8_M_H_03_scrambled.png,8,happy,30,male,6,,45,off,1,0.5,0.75,0.5,0.842,3,44,1,1,1,0,0,0,0,6,,,,,,0,48,48,48,,,,,,,,,,,,,,,,,,,,,,,,,,,,,,,,,,,,,,,,,,,,,,,,,,,,,,,,,542.8475254999994,543.3499192999998,543.3499192999998,544.1052481999996,544.1052481999996,544.6079051999995,544.6079051999995,545.4548855999992,545.4548855999992,None,num_6,0.3606497999999192,545.4548855999992,542.8475254999994,happy,0,Happy,545.8269663399991,None,None,545.8269663399991,None,,,,,,,,,,,,,,,,,,,,,,,,,,,,,,,,,,,,,,,,,,,,,,,,,,,,,42,001,0,27,550,500,2022_Nov_17_1053,Experiment,2021.1.4,360.23963140189227,
images\blank.jpg,images\blank.jpg,none,none,none,none,0,,614,on,2,0.5,0.75,0.5,0.881,0,613,1,1,1,3,3,48,192,240,,,,,,0,49,49,49,,,,,,,,,,,,,,,,,,,,,,,,,,,,,,,,,,,,,,,,,,,,,,,,,,,,,,,,,545.9104425999994,546.4156755999993,546.4156755999993,547.1682102999994,547.1682102999994,547.6680696999993,547.6680696999993,548.5539615999996,548.5539615999996,548.5539615999996,None,,548.5539615999996,None,miss,0,,551.5585045599993,None,None,551.5585045599993,None,,,,,,,,,,,,,,,,,,,,,,,,,,,,,,,,,,,,,,,,,,,,,,,,,,,,,42,001,0,27,550,500,2022_Nov_17_1053,Experiment,2021.1.4,360.23963140189227,
images\S4_M_S_03.png,images\S4_M_S_03_scrambled.png,4,sad,-30,male,1,,504,off,1,0.5,0.75,0.5,0.906,3,503,1,1,1,0,0,0,0,1,,,,,,0,50,50,50,,,,,,,,,,,,,,,,,,,,,,,,,,,,,,,,,,,,,,,,,,,,,,,,,,,,,,,,,551.6725965999995,552.1750070999997,552.1750070999997,552.9303282999999,552.9303282999999,553.4357230999994,553.4357230999994,554.3438621999994,554.3438621999994,None,num_4,0.3996962999999596,554.3438621999994,551.6725965999995,sad,0,Sad,554.7602982399998,None,None,554.7602982399998,None,,,,,,,,,,,,,,,,,,,,,,,,,,,,,,,,,,,,,,,,,,,,,,,,,,,,,42,001,0,27,550,500,2022_Nov_17_1053,Experiment,2021.1.4,360.23963140189227,
images\S2_M_H_02.png,images\S2_M_H_02_scrambled.png,2,happy,20,male,5,,128,off,1,0.5,0.75,0.5,0.928,3,127,2,1,1,0,0,0,0,5,,,,,,0,51,51,51,,,,,,,,,,,,,,,,,,,,,,,,,,,,,,,,,,,,,,,,,,,,,,,,,,,,,,,,,554.8435875999994,555.3490878999992,555.3490878999992,556.0987771,556.0987771,556.5986247999999,556.5986247999999,557.5289852999995,557.5289852999995,None,num_6,0.40665529999932915,557.5289852999995,None,happy,0,Happy,557.9622612199998,None,None,557.9622612199998,None,,,,,,,,,,,,,,,,,,,,,,,,,,,,,,,,,,,,,,,,,,,,,,,,,,,,,42,001,0,27,550,500,2022_Nov_17_1053,Experiment,2021.1.4,360.23963140189227,
images\S3_F_S_02.png,images\S3_F_S_02_scrambled.png,3,sad,-20,female,2,,557,on,2,0.5,0.75,0.5,0.927,3,556,1,1,1,2,2,32,128,162,,,,,,0,52,52,52,,,,,,,,,,,,,,,,,,,,,,,,,,,,,,,,,,,,,,,,,,,,,,,,,,,,,,,,,558.0759113999993,558.5786868999994,558.5786868999994,559.3283326999999,559.3283326999999,559.8309457999994,559.8309457999994,560.7641094,560.7641094,None,num_4,0.35541940000075556,560.7641094,None,sad,0,Sad,561.1389772199998,None,None,561.1389772199998,None,,,,,,,,,,,,,,,,,,,,,,,,,,,,,,,,,,,,,,,,,,,,,,,,,,,,,42,001,0,27,550,500,2022_Nov_17_1053,Experiment,2021.1.4,360.23963140189227,
images\S6_M_H_01.png,images\S6_M_H_01_scrambled.png,6,happy,10,male,4,,571,on,2,0.5,0.75,0.5,0.849,3,570,2,1,1,2,2,32,128,164,,,,,,0,53,53,53,,,,,,,,,,,,,,,,,,,,,,,,,,,,,,,,,,,,,,,,,,,,,,,,,,,,,,,,,561.2499222999995,561.7553711999999,561.7553711999999,562.5079184999995,562.5079184999995,563.0134054999999,563.0134054999999,563.8657863999997,563.8657863999997,None,num_6,0.3578261000002385,563.8657863999997,None,happy,0,Happy,564.2406987399994,None,None,564.2406987399994,None,,,,,,,,,,,,,,,,,,,,,,,,,,,,,,,,,,,,,,,,,,,,,,,,,,,,,42,001,0,27,550,500,2022_Nov_17_1053,Experiment,2021.1.4,360.23963140189227,
images\S2_M_H_03.png,images\S2_M_H_03_scrambled.png,2,happy,30,male,6,,489,off,1,0.5,0.75,0.5,0.789,3,488,1,1,1,0,0,0,0,6,,,,,,0,54,54,54,,,,,,,,,,,,,,,,,,,,,,,,,,,,,,,,,,,,,,,,,,,,,,,,,,,,,,,,,564.3212002,564.8239440999996,564.8239440999996,565.5792463999996,565.5792463999996,566.0789336999997,566.0789336999997,566.8704546999998,566.8704546999998,None,num_6,0.32092310000007274,566.8704546999998,None,happy,0,Happy,567.2064580399996,None,None,567.2064580399996,None,,,,,,,,,,,,,,,,,,,,,,,,,,,,,,,,,,,,,,,,,,,,,,,,,,,,,42,001,0,27,550,500,2022_Nov_17_1053,Experiment,2021.1.4,360.23963140189227,
images\S1_F_S_01.png,images\S1_F_S_01_scrambled.png,1,sad,-10,female,3,,124,off,1,0.5,0.75,0.5,0.791,3,123,2,1,1,0,0,0,0,3,,,,,,0,55,55,55,,,,,,,,,,,,,,,,,,,,,,,,,,,,,,,,,,,,,,,,,,,,,,,,,,,,,,,,,567.2619496999996,567.7645752999997,567.7645752999997,568.5171777999994,568.5171777999994,569.0197989999997,569.0197989999997,569.8140810999994,569.8140810999994,None,num_6,1.729369300000144,569.8140810999994,None,happy,0,Sad,571.5550798199995,None,None,571.5550798199995,None,,,,,,,,,,,,,,,,,,,,,,,,,,,,,,,,,,,,,,,,,,,,,,,,,,,,,42,001,0,27,550,500,2022_Nov_17_1053,Experiment,2021.1.4,360.23963140189227,
images\S9_F_S_03.png,images\S9_F_S_03_scrambled.png,9,sad,-30,female,1,,54,off,1,0.5,0.75,0.5,0.949,3,53,3,1,1,0,0,0,0,1,,,,,,0,56,56,56,,,,,,,,,,,,,,,,,,,,,,,,,,,,,,,,,,,,,,,,,,,,,,,,,,,,,,,,,571.6022804999993,572.1049115999995,572.1049115999995,572.8546753999999,572.8546753999999,573.3600946999995,573.3600946999995,574.3153662999994,574.3153662999994,None,num_4,0.35623820000000705,574.3153662999994,None,sad,0,Sad,574.6818983399993,None,None,574.6818983399993,None,,,,,,,,,,,,,,,,,,,,,,,,,,,,,,,,,,,,,,,,,,,,,,,,,,,,,42,001,0,27,550,500,2022_Nov_17_1053,Experiment,2021.1.4,360.23963140189227,
images\S1_F_H_03.png,images\S1_F_H_03_scrambled.png,1,happy,30,female,6,,423,on,2,0.5,0.75,0.5,0.882,3,422,1,1,1,2,2,32,128,166,,,,,,0,57,57,57,,,,,,,,,,,,,,,,,,,,,,,,,,,,,,,,,,,,,,,,,,,,,,,,,,,,,,,,,574.7290919999996,575.2317275999994,575.2317275999994,575.9870426999996,575.9870426999996,576.4897152999993,576.4897152999993,577.3754860999998,577.3754860999998,None,num_6,0.3602986999994755,577.3754860999998,None,happy,0,Happy,577.7644665799997,None,None,577.7644665799997,None,,,,,,,,,,,,,,,,,,,,,,,,,,,,,,,,,,,,,,,,,,,,,,,,,,,,,42,001,0,27,550,500,2022_Nov_17_1053,Experiment,2021.1.4,360.23963140189227,
images\S8_M_S_02.png,images\S8_M_S_02_scrambled.png,8,sad,-20,male,2,,227,on,2,0.5,0.75,0.5,0.847,3,226,2,1,1,2,2,32,128,162,,,,,,0,58,58,58,,,,,,,,,,,,,,,,,,,,,,,,,,,,,,,,,,,,,,,,,,,,,,,,,,,,,,,,,577.8170199999995,578.3196603999995,578.3196603999995,579.0694082,579.0694082,579.5692519999993,579.5692519999993,580.4191123999999,580.4191123999999,None,num_4,0.3404811999998856,580.4191123999999,None,sad,0,Sad,580.7744605399997,None,None,580.7744605399997,None,,,,,,,,,,,,,,,,,,,,,,,,,,,,,,,,,,,,,,,,,,,,,,,,,,,,,42,001,0,27,550,500,2022_Nov_17_1053,Experiment,2021.1.4,360.23963140189227,
images\S10_M_S_03.png,images\S10_M_S_03_scrambled.png,10,sad,-30,male,1,,540,off,1,0.5,0.75,0.5,0.867,3,539,1,1,1,0,0,0,0,1,,,,,,0,59,59,59,,,,,,,,,,,,,,,,,,,,,,,,,,,,,,,,,,,,,,,,,,,,,,,,,,,,,,,,,580.8244292999998,581.3242934999998,581.3242934999998,582.0740545999997,582.0740545999997,582.5794923999993,582.5794923999993,583.4487522999998,583.4487522999998,None,num_4,0.42276459999993676,583.4487522999998,None,sad,0,Sad,583.8957291399992,None,None,583.8957291399992,None,,,,,,,,,,,,,,,,,,,,,,,,,,,,,,,,,,,,,,,,,,,,,,,,,,,,,42,001,0,27,550,500,2022_Nov_17_1053,Experiment,2021.1.4,360.23963140189227,
images\S7_F_H_03.png,images\S7_F_H_03_scrambled.png,7,happy,30,female,6,,159,off,1,0.5,0.75,0.5,0.828,3,158,2,1,1,0,0,0,0,6,,,,,,0,60,60,60,,,,,,,,,,,,,,,,,,,,,,,,,,,,,,,,,,,,,,,,,,,,,,,,,,,,,,,,,583.9512301999994,584.4538758999997,584.4538758999997,585.2064164999992,585.2064164999992,585.7091400999998,585.7091400999998,586.5393841999994,586.5393841999994,None,num_6,0.31620770000063203,586.5393841999994,None,happy,0,Happy,586.8697858399995,None,None,586.8697858399995,None,,,,,,,,,,,,,,,,,,,,,,,,,,,,,,,,,,,,,,,,,,,,,,,,,,,,,42,001,0,27,550,500,2022_Nov_17_1053,Experiment,2021.1.4,360.23963140189227,
images\S1_F_S_02.png,images\S1_F_S_02_scrambled.png,1,sad,-20,female,2,,125,off,1,0.5,0.75,0.5,0.822,3,124,3,1,1,0,0,0,0,2,,,,,,0,61,61,61,,,,,,,,,,,,,,,,,,,,,,,,,,,,,,,,,,,,,,,,,,,,,,,,,,,,,,,,,586.9503103999996,587.4557333999992,587.4557333999992,588.2110439999997,588.2110439999997,588.7136393999999,588.7136393999999,589.5385241999993,589.5385241999993,None,num_4,0.6288043000004109,589.5385241999993,None,sad,0,Sad,590.1798719399998,None,None,590.1798719399998,None,,,,,,,,,,,,,,,,,,,,,,,,,,,,,,,,,,,,,,,,,,,,,,,,,,,,,42,001,0,27,550,500,2022_Nov_17_1053,Experiment,2021.1.4,360.23963140189227,
images\S10_M_S_03.png,images\S10_M_S_03_scrambled.png,10,sad,-30,male,1,,240,on,2,0.5,0.75,0.5,0.772,3,239,1,1,1,2,2,32,128,161,,,,,,0,62,62,62,,,,,,,,,,,,,,,,,,,,,,,,,,,,,,,,,,,,,,,,,,,,,,,,,,,,,,,,,590.2325597999998,590.7352793999999,590.7352793999999,591.4878118999995,591.4878118999995,591.9904315999993,591.9904315999993,592.7623866999993,592.7623866999993,None,num_4,0.3249795000001541,592.7623866999993,None,sad,0,Sad,593.1039821999998,None,None,593.1039821999998,None,,,,,,,,,,,,,,,,,,,,,,,,,,,,,,,,,,,,,,,,,,,,,,,,,,,,,42,001,0,27,550,500,2022_Nov_17_1053,Experiment,2021.1.4,360.23963140189227,
images\S2_M_H_02.png,images\S2_M_H_02_scrambled.png,2,happy,20,male,5,,308,on,2,0.5,0.75,0.5,0.847,3,307,2,1,1,2,2,32,128,165,,,,,,0,63,63,63,,,,,,,,,,,,,,,,,,,,,,,,,,,,,,,,,,,,,,,,,,,,,,,,,,,,,,,,,593.1539881999997,593.6594018999995,593.6594018999995,594.4147120999996,594.4147120999996,594.9200910999998,594.9200910999998,595.7698291999995,595.7698291999995,None,num_6,0.3817656999999599,595.7698291999995,None,happy,0,Happy,596.1669001399999,None,None,596.1669001399999,None,,,,,,,,,,,,,,,,,,,,,,,,,,,,,,,,,,,,,,,,,,,,,,,,,,,,,42,001,0,27,550,500,2022_Nov_17_1053,Experiment,2021.1.4,360.23963140189227,
images\S10_M_H_01.png,images\S10_M_H_01_scrambled.png,10,happy,10,male,4,,175,off,1,0.5,0.75,0.5,0.916,3,174,1,1,1,0,0,0,0,4,,,,,,0,64,64,64,,,,,,,,,,,,,,,,,,,,,,,,,,,,,,,,,,,,,,,,,,,,,,,,,,,,,,,,,596.2474238999994,596.7500790999993,596.7500790999993,597.4998079999996,597.4998079999996,598.0052495,598.0052495,598.9243637999998,598.9243637999998,None,num_6,0.474972500000149,598.9243637999998,None,happy,0,Happy,599.4242844799991,None,None,599.4242844799991,None,,,,,,,,,,,,,,,,,,,,,,,,,,,,,,,,,,,,,,,,,,,,,,,,,,,,,42,001,0,27,550,500,2022_Nov_17_1053,Experiment,2021.1.4,360.23963140189227,
images\S4_M_S_03.png,images\S4_M_S_03_scrambled.png,4,sad,-30,male,1,,384,off,1,0.5,0.75,0.5,0.844,3,383,2,1,1,0,0,0,0,1,,,,,,0,65,65,65,,,,,,,,,,,,,,,,,,,,,,,,,,,,,,,,,,,,,,,,,,,,,,,,,,,,,,,,,599.4769692999998,599.9796522999995,599.9796522999995,600.7349636999998,600.7349636999998,601.2347909999999,601.2347909999999,602.0817209999996,602.0817209999996,None,num_4,0.5097507000000405,602.0817209999996,None,sad,0,Sad,602.6177598799994,None,None,602.6177598799994,None,,,,,,,,,,,,,,,,,,,,,,,,,,,,,,,,,,,,,,,,,,,,,,,,,,,,,42,001,0,27,550,500,2022_Nov_17_1053,Experiment,2021.1.4,360.23963140189227,
images\S9_F_S_01.png,images\S9_F_S_01_scrambled.png,9,sad,-10,female,3,,592,on,2,0.5,0.75,0.5,0.804,3,591,1,1,1,2,2,32,128,163,,,,,,0,66,66,66,,,,,,,,,,,,,,,,,,,,,,,,,,,,,,,,,,,,,,,,,,,,,,,,,,,,,,,,,602.6704379999992,603.1758581999993,603.1758581999993,603.9311676999996,603.9311676999996,604.4338982999998,604.4338982999998,605.2418764999993,605.2418764999993,None,num_6,0.533497599999464,605.2418764999993,None,happy,0,Sad,605.7805938199992,None,None,605.7805938199992,None,,,,,,,,,,,,,,,,,,,,,,,,,,,,,,,,,,,,,,,,,,,,,,,,,,,,,42,001,0,27,550,500,2022_Nov_17_1053,Experiment,2021.1.4,360.23963140189227,
images\S1_F_H_01.png,images\S1_F_H_01_scrambled.png,1,happy,10,female,4,,541,on,2,0.5,0.75,0.5,0.919,3,540,2,1,1,2,2,32,128,164,,,,,,0,67,67,67,,,,,,,,,,,,,,,,,,,,,,,,,,,,,,,,,,,,,,,,,,,,,,,,,,,,,,,,,605.8638935999998,606.3692800999997,606.3692800999997,607.1246490999993,607.1246490999993,607.6300298999995,607.6300298999995,608.5547661999999,608.5547661999999,None,num_6,0.41260200000033365,608.5547661999999,None,happy,0,Happy,608.9879702999992,None,None,608.9879702999992,None,,,,,,,,,,,,,,,,,,,,,,,,,,,,,,,,,,,,,,,,,,,,,,,,,,,,,42,001,0,27,550,500,2022_Nov_17_1053,Experiment,2021.1.4,360.23963140189227,
images\S8_M_H_02.png,images\S8_M_H_02_scrambled.png,8,happy,20,male,5,,404,off,1,0.5,0.75,0.5,0.795,3,403,1,1,1,0,0,0,0,5,,,,,,0,68,68,68,,,,,,,,,,,,,,,,,,,,,,,,,,,,,,,,,,,,,,,,,,,,,,,,,,,,,,,,,609.0517842999998,609.5544051999996,609.5544051999996,610.3069976999996,610.3069976999996,610.8095802999997,610.8095802999997,611.6093695999998,611.6093695999998,None,num_6,0.5019727999997485,611.6093695999998,None,happy,0,Happy,612.1230778399998,None,None,612.1230778399998,None,,,,,,,,,,,,,,,,,,,,,,,,,,,,,,,,,,,,,,,,,,,,,,,,,,,,,42,001,0,27,550,500,2022_Nov_17_1053,Experiment,2021.1.4,360.23963140189227,
images\S6_M_S_01.png,images\S6_M_S_01_scrambled.png,6,sad,-10,male,3,,274,off,1,0.5,0.75,0.5,0.925,3,273,2,1,1,0,0,0,0,3,,,,,,0,69,69,69,,,,,,,,,,,,,,,,,,,,,,,,,,,,,,,,,,,,,,,,,,,,,,,,,,,,,,,,,612.2063549999993,612.7062056999994,612.7062056999994,613.4588758,613.4588758,613.9613712999999,613.9613712999999,614.8889812999996,614.8889812999996,None,num_4,0.6383748000007472,614.8889812999996,None,sad,0,Sad,615.5414713999994,None,None,615.5414713999994,None,,,,,,,,,,,,,,,,,,,,,,,,,,,,,,,,,,,,,,,,,,,,,,,,,,,,,42,001,0,27,550,500,2022_Nov_17_1053,Experiment,2021.1.4,360.23963140189227,
images\S10_M_H_03.png,images\S10_M_H_03_scrambled.png,10,happy,30,male,6,,477,on,2,0.5,0.75,0.5,0.773,3,476,1,1,1,2,2,32,128,166,,,,,,0,70,70,70,,,,,,,,,,,,,,,,,,,,,,,,,,,,,,,,,,,,,,,,,,,,,,,,,,,,,,,,,615.5886500999995,616.0912657999997,616.0912657999997,616.8439470999992,616.8439470999992,617.3436770999997,617.3436770999997,618.1185507,618.1185507,None,num_6,0.3927795999998125,618.1185507,None,happy,0,Happy,618.5238429399991,None,None,618.5238429399991,None,,,,,,,,,,,,,,,,,,,,,,,,,,,,,,,,,,,,,,,,,,,,,,,,,,,,,42,001,0,27,550,500,2022_Nov_17_1053,Experiment,2021.1.4,360.23963140189227,
images\S5_F_S_03.png,images\S5_F_S_03_scrambled.png,5,sad,-30,female,1,,390,off,1,0.5,0.75,0.5,0.927,3,389,1,1,1,0,0,0,0,1,,,,,,0,71,71,71,,,,,,,,,,,,,,,,,,,,,,,,,,,,,,,,,,,,,,,,,,,,,,,,,,,,,,,,,618.5710561999995,619.0737046999993,619.0737046999993,619.8234493,619.8234493,620.3232867999996,620.3232867999996,621.2536934999998,621.2536934999998,None,num_4,0.3616813999997248,621.2536934999998,None,sad,0,Sad,621.6368457199994,None,None,621.6368457199994,None,,,,,,,,,,,,,,,,,,,,,,,,,,,,,,,,,,,,,,,,,,,,,,,,,,,,,42,001,0,27,550,500,2022_Nov_17_1053,Experiment,2021.1.4,360.23963140189227,
images\S5_F_H_03.png,images\S5_F_H_03_scrambled.png,5,happy,30,female,6,,207,on,2,0.5,0.75,0.5,0.801,3,206,1,2,1,2,2,32,128,166,,,,,,0,72,72,72,,,,,,,,,,,,,,,,,,,,,,,,,,,,,,,,,,,,,,,,,,,,,,,,,,,,,,,,,621.7450664999997,622.2476924999992,622.2476924999992,622.9974814999996,622.9974814999996,623.5001221999992,623.5001221999992,624.3053891,624.3053891,None,num_6,0.3979509999999209,624.3053891,None,happy,0,Happy,624.7163905399997,None,None,624.7163905399997,None,,,,,,,,,,,,,,,,,,,,,,,,,,,,,,,,,,,,,,,,,,,,,,,,,,,,,42,001,0,27,550,500,2022_Nov_17_1053,Experiment,2021.1.4,360.23963140189227,
images\S9_F_S_01.png,images\S9_F_S_01_scrambled.png,9,sad,-10,female,3,,232,on,2,0.5,0.75,0.5,0.849,3,231,2,1,1,2,2,32,128,163,,,,,,0,73,73,73,,,,,,,,,,,,,,,,,,,,,,,,,,,,,,,,,,,,,,,,,,,,,,,,,,,,,,,,,624.7635962999993,625.2662258,625.2662258,626.0187693999997,626.0187693999997,626.5186104999993,626.5186104999993,627.3683272999997,627.3683272999997,None,num_4,0.4471387000003233,627.3683272999997,None,sad,0,Sad,627.8293202399994,None,None,627.8293202399994,None,,,,,,,,,,,,,,,,,,,,,,,,,,,,,,,,,,,,,,,,,,,,,,,,,,,,,42,001,0,27,550,500,2022_Nov_17_1053,Experiment,2021.1.4,360.23963140189227,
images\S8_M_S_02.png,images\S8_M_S_02_scrambled.png,8,sad,-20,male,2,,467,on,2,0.5,0.75,0.5,0.86,3,466,3,1,1,2,2,32,128,162,,,,,,0,74,74,74,,,,,,,,,,,,,,,,,,,,,,,,,,,,,,,,,,,,,,,,,,,,,,,,,,,,,,,,,627.8765048999994,628.3791466999992,628.3791466999992,629.1345139999994,629.1345139999994,629.6398893999994,629.6398893999994,630.5035972999995,630.5035972999995,None,num_4,0.31166659999962576,630.5035972999995,None,sad,0,Sad,630.8311826999993,None,None,630.8311826999993,None,,,,,,,,,,,,,,,,,,,,,,,,,,,,,,,,,,,,,,,,,,,,,,,,,,,,,42,001,0,27,550,500,2022_Nov_17_1053,Experiment,2021.1.4,360.23963140189227,
images\S6_M_H_02.png,images\S6_M_H_02_scrambled.png,6,happy,20,male,5,,512,off,1,0.5,0.75,0.5,0.938,3,511,1,1,1,0,0,0,0,5,,,,,,0,75,75,75,,,,,,,,,,,,,,,,,,,,,,,,,,,,,,,,,,,,,,,,,,,,,,,,,,,,,,,,,630.9422175,631.4448864999995,631.4448864999995,632.2001930999995,632.2001930999995,632.7055911999996,632.7055911999996,633.6497319999999,633.6497319999999,None,num_6,0.6617765999999392,633.6497319999999,None,happy,0,Happy,634.3245145399991,None,None,634.3245145399991,None,,,,,,,,,,,,,,,,,,,,,,,,,,,,,,,,,,,,,,,,,,,,,,,,,,,,,42,001,0,27,550,500,2022_Nov_17_1053,Experiment,2021.1.4,360.23963140189227,
images\blank.jpg,images\blank.jpg,none,none,none,none,0,,624,on,2,0.5,0.75,0.5,0.784,0,623,1,1,1,3,3,48,192,240,,,,,,0,76,76,76,,,,,,,,,,,,,,,,,,,,,,,,,,,,,,,,,,,,,,,,,,,,,,,,,,,,,,,,,634.4081205999992,634.9076578999993,634.9076578999993,635.6574305999993,635.6574305999993,636.1572692,636.1572692,636.9432637,636.9432637,636.9432637,None,,636.9432637,None,miss,0,,639.9477783599997,None,None,639.9477783599997,None,,,,,,,,,,,,,,,,,,,,,,,,,,,,,,,,,,,,,,,,,,,,,,,,,,,,,42,001,0,27,550,500,2022_Nov_17_1053,Experiment,2021.1.4,360.23963140189227,
images\S10_M_H_02.png,images\S10_M_H_02_scrambled.png,10,happy,20,male,5,,416,off,1,0.5,0.75,0.5,0.827,3,415,1,1,1,0,0,0,0,5,,,,,,0,77,77,77,,,,,,,,,,,,,,,,,,,,,,,,,,,,,,,,,,,,,,,,,,,,,,,,,,,,,,,,,640.0617653999998,640.5642420999993,640.5642420999993,641.3140159999994,641.3140159999994,641.8194672999998,641.8194672999998,642.6497593999993,642.6497593999993,None,num_6,0.07750260000011622,642.6497593999993,640.0617653999998,happy,0,Happy,642.7469656199999,None,None,642.7469656199999,None,,,,,,,,,,,,,,,,,,,,,,,,,,,,,,,,,,,,,,,,,,,,,,,,,,,,,42,001,0,27,550,500,2022_Nov_17_1053,Experiment,2021.1.4,360.23963140189227,
images\S2_M_H_01.png,images\S2_M_H_01_scrambled.png,2,happy,10,male,4,,247,off,1,0.5,0.75,0.5,0.79,3,246,2,1,1,0,0,0,0,4,,,,,,0,78,78,78,,,,,,,,,,,,,,,,,,,,,,,,,,,,,,,,,,,,,,,,,,,,,,,,,,,,,,,,,642.7996519999997,643.3022883999993,643.3022883999993,644.0548538999992,644.0548538999992,644.5574494999992,644.5574494999992,645.3544757,645.3544757,None,num_6,0.7889067000005525,645.3544757,None,happy,0,Happy,646.1569656399992,None,None,646.1569656399992,None,,,,,,,,,,,,,,,,,,,,,,,,,,,,,,,,,,,,,,,,,,,,,,,,,,,,,42,001,0,27,550,500,2022_Nov_17_1053,Experiment,2021.1.4,360.23963140189227,
images\S7_F_H_02.png,images\S7_F_H_02_scrambled.png,7,happy,20,female,5,,458,on,2,0.5,0.75,0.5,0.846,3,457,1,1,1,2,2,32,128,165,,,,,,0,79,79,79,,,,,,,,,,,,,,,,,,,,,,,,,,,,,,,,,,,,,,,,,,,,,,,,,,,,,,,,,646.2402720999999,646.7456764999997,646.7456764999997,647.4983328999997,647.4983328999997,647.9980476999999,647.9980476999999,648.8450039999998,648.8450039999998,None,num_6,0.3623400999995283,648.8450039999998,None,happy,0,Happy,649.2254807999993,None,None,649.2254807999993,None,,,,,,,,,,,,,,,,,,,,,,,,,,,,,,,,,,,,,,,,,,,,,,,,,,,,,42,001,0,27,550,500,2022_Nov_17_1053,Experiment,2021.1.4,360.23963140189227,
images\blank.jpg,images\blank.jpg,none,none,none,none,0,,611,on,2,0.5,0.75,0.5,0.847,0,610,2,1,1,3,3,48,192,240,,,,,,0,80,80,80,,,,,,,,,,,,,,,,,,,,,,,,,,,,,,,,,,,,,,,,,,,,,,,,,,,,,,,,,649.3090806,649.8142196999997,649.8142196999997,650.5639376999998,650.5639376999998,651.0693717999993,651.0693717999993,651.9191449,651.9191449,651.9191449,None,,651.9191449,None,miss,0,,654.9237528199994,None,None,654.9237528199994,None,,,,,,,,,,,,,,,,,,,,,,,,,,,,,,,,,,,,,,,,,,,,,,,,,,,,,42,001,0,27,550,500,2022_Nov_17_1053,Experiment,2021.1.4,360.23963140189227,
images\S5_F_H_02.png,images\S5_F_H_02_scrambled.png,5,happy,20,female,5,,446,on,2,0.5,0.75,0.5,0.843,3,445,3,1,1,2,2,32,128,165,,,,,,0,81,81,81,,,,,,,,,,,,,,,,,,,,,,,,,,,,,,,,,,,,,,,,,,,,,,,,,,,,,,,,,655.0904965999998,655.5930292999992,655.5930292999992,656.3454911999997,656.3454911999997,656.8482231999997,656.8482231999997,657.6979469999997,657.6979469999997,None,num_6,0.4853282999993098,657.6979469999997,655.0904965999998,happy,0,Happy,658.2004730999993,None,None,658.2004730999993,None,,,,,,,,,,,,,,,,,,,,,,,,,,,,,,,,,,,,,,,,,,,,,,,,,,,,,42,001,0,27,550,500,2022_Nov_17_1053,Experiment,2021.1.4,360.23963140189227,
images\S1_F_S_01.png,images\S1_F_S_01_scrambled.png,1,sad,-10,female,3,,484,off,1,0.5,0.75,0.5,0.846,3,483,1,1,1,0,0,0,0,3,,,,,,0,82,82,82,,,,,,,,,,,,,,,,,,,,,,,,,,,,,,,,,,,,,,,,,,,,,,,,,,,,,,,,,658.2476508999998,658.7531788999995,658.7531788999995,659.5028112999998,659.5028112999998,660.0026988999998,660.0026988999998,660.8524361999998,660.8524361999998,None,num_4,2.8667851999998675,660.8524361999998,None,sad,0,Sad,663.7320765399994,None,None,663.7320765399994,None,,,,,,,,,,,,,,,,,,,,,,,,,,,,,,,,,,,,,,,,,,,,,,,,,,,,,42,001,0,27,550,500,2022_Nov_17_1053,Experiment,2021.1.4,360.23963140189227,
images\S4_M_S_03.png,images\S4_M_S_03_scrambled.png,4,sad,-30,male,1,,144,off,1,0.5,0.75,0.5,0.931,3,143,2,1,1,0,0,0,0,1,,,,,,0,83,83,83,,,,,,,,,,,,,,,,,,,,,,,,,,,,,,,,,,,,,,,,,,,,,,,,,,,,,,,,,663.7792798,664.2847306999993,664.2847306999993,665.0400307999998,665.0400307999998,665.5426537999992,665.5426537999992,666.4756723,666.4756723,None,num_4,0.37164279999979044,666.4756723,None,sad,0,Sad,666.8616699399994,None,None,666.8616699399994,None,,,,,,,,,,,,,,,,,,,,,,,,,,,,,,,,,,,,,,,,,,,,,,,,,,,,,42,001,0,27,550,500,2022_Nov_17_1053,Experiment,2021.1.4,360.23963140189227,
images\S4_M_H_01.png,images\S4_M_H_01_scrambled.png,4,happy,10,male,4,,79,on,2,0.5,0.75,0.5,0.943,3,78,1,2,1,2,2,32,128,164,,,,,,0,84,84,84,,,,,,,,,,,,,,,,,,,,,,,,,,,,,,,,,,,,,,,,,,,,,,,,,,,,,,,,,666.9116304999998,667.4114889999992,667.4114889999992,668.1668045999995,668.1668045999995,668.6694793999995,668.6694793999995,669.6191777999993,669.6191777999993,None,num_4,0.4359601999994993,669.6191777999993,None,sad,0,Happy,670.0606701199997,None,None,670.0606701199997,None,,,,,,,,,,,,,,,,,,,,,,,,,,,,,,,,,,,,,,,,,,,,,,,,,,,,,42,001,0,27,550,500,2022_Nov_17_1053,Experiment,2021.1.4,360.23963140189227,
images\S7_F_H_03.png,images\S7_F_H_03_scrambled.png,7,happy,30,female,6,,39,off,1,0.5,0.75,0.5,0.798,3,38,1,1,1,0,0,0,0,6,,,,,,0,85,85,85,,,,,,,,,,,,,,,,,,,,,,,,,,,,,,,,,,,,,,,,,,,,,,,,,,,,,,,,,670.1078651999997,670.6105124999995,670.6105124999995,671.3630287999995,671.3630287999995,671.8656782999997,671.8656782999997,672.6709774999999,672.6709774999999,None,num_6,0.40817520000018703,672.6709774999999,None,happy,0,Happy,673.0930307999993,None,None,673.0930307999993,None,,,,,,,,,,,,,,,,,,,,,,,,,,,,,,,,,,,,,,,,,,,,,,,,,,,,,42,001,0,27,550,500,2022_Nov_17_1053,Experiment,2021.1.4,360.23963140189227,
images\S10_M_S_01.png,images\S10_M_S_01_scrambled.png,10,sad,-10,male,3,,358,on,2,0.5,0.75,0.5,0.796,3,357,1,1,1,2,2,32,128,163,,,,,,0,86,86,86,,,,,,,,,,,,,,,,,,,,,,,,,,,,,,,,,,,,,,,,,,,,,,,,,,,,,,,,,673.1374725999995,673.6401286999999,673.6401286999999,674.3926881999996,674.3926881999996,674.8952641999995,674.8952641999995,675.6922386999995,675.6922386999995,None,num_6,0.5150441999994655,675.6922386999995,None,happy,0,Sad,676.2199542799993,None,None,676.2199542799993,None,,,,,,,,,,,,,,,,,,,,,,,,,,,,,,,,,,,,,,,,,,,,,,,,,,,,,42,001,0,27,550,500,2022_Nov_17_1053,Experiment,2021.1.4,360.23963140189227,
images\S3_F_H_02.png,images\S3_F_H_02_scrambled.png,3,happy,20,female,5,,14,off,1,0.5,0.75,0.5,0.766,3,13,1,1,1,0,0,0,0,5,,,,,,0,87,87,87,,,,,,,,,,,,,,,,,,,,,,,,,,,,,,,,,,,,,,,,,,,,,,,,,,,,,,,,,676.2726269999994,676.7724673999992,676.7724673999992,677.5222313999993,677.5222313999993,678.0248906999996,678.0248906999996,678.7940890999998,678.7940890999998,None,num_4,0.5570895000000746,678.7940890999998,None,sad,0,Happy,679.3605830199997,None,None,679.3605830199997,None,,,,,,,,,,,,,,,,,,,,,,,,,,,,,,,,,,,,,,,,,,,,,,,,,,,,,42,001,0,27,550,500,2022_Nov_17_1053,Experiment,2021.1.4,360.23963140189227,
images\S3_F_H_02.png,images\S3_F_H_02_scrambled.png,3,happy,20,female,5,,434,on,2,0.5,0.75,0.5,0.897,3,433,1,2,2,2,2,32,128,165,,,,,,0,88,88,88,,,,,,,,,,,,,,,,,,,,,,,,,,,,,,,,,,,,,,,,,,,,,,,,,,,,,,,,,679.4133204999998,679.9131551999999,679.9131551999999,680.6629516999992,680.6629516999992,681.1655687999992,681.1655687999992,682.0652954999996,682.0652954999996,None,num_4,0.8061072000000422,682.0652954999996,None,sad,0,Happy,682.88178782,None,None,682.88178782,None,,,,,,,,,,,,,,,,,,,,,,,,,,,,,,,,,,,,,,,,,,,,,,,,,,,,,42,001,0,27,550,500,2022_Nov_17_1053,Experiment,2021.1.4,360.23963140189227,
images\S10_M_H_03.png,images\S10_M_H_03_scrambled.png,10,happy,30,male,6,,597,on,2,0.5,0.75,0.5,0.855,3,596,2,1,1,2,2,32,128,166,,,,,,0,89,89,89,,,,,,,,,,,,,,,,,,,,,,,,,,,,,,,,,,,,,,,,,,,,,,,,,,,,,,,,,682.9372211,683.4398885999999,683.4398885999999,684.1924325999998,684.1924325999998,684.6950066999998,684.6950066999998,685.5558784999994,685.5558784999994,None,num_6,0.41941679999945336,685.5558784999994,None,happy,0,Happy,685.9890705399997,None,None,685.9890705399997,None,,,,,,,,,,,,,,,,,,,,,,,,,,,,,,,,,,,,,,,,,,,,,,,,,,,,,42,001,0,27,550,500,2022_Nov_17_1053,Experiment,2021.1.4,360.23963140189227,
images\S7_F_S_03.png,images\S7_F_S_03_scrambled.png,7,sad,-30,female,1,,42,off,1,0.5,0.75,0.5,0.789,3,41,1,1,1,0,0,0,0,1,,,,,,0,90,90,90,,,,,,,,,,,,,,,,,,,,,,,,,,,,,,,,,,,,,,,,,,,,,,,,,,,,,,,,,686.0751960999996,686.5749762999994,686.5749762999994,687.3247819999997,687.3247819999997,687.8273966999996,687.8273966999996,688.6189224,688.6189224,None,num_4,0.46035589999974036,688.6189224,None,sad,0,Sad,689.0936626399993,None,None,689.0936626399993,None,,,,,,,,,,,,,,,,,,,,,,,,,,,,,,,,,,,,,,,,,,,,,,,,,,,,,42,001,0,27,550,500,2022_Nov_17_1053,Experiment,2021.1.4,360.23963140189227,
images\S8_M_H_01.png,images\S8_M_H_01_scrambled.png,8,happy,10,male,4,,103,on,2,0.5,0.75,0.5,0.78,3,102,1,1,1,2,2,32,128,164,,,,,,0,91,91,91,,,,,,,,,,,,,,,,,,,,,,,,,,,,,,,,,,,,,,,,,,,,,,,,,,,,,,,,,689.1408557999994,689.6462564999993,689.6462564999993,690.3988989,690.3988989,690.9042231999993,690.9042231999993,691.6872859999994,691.6872859999994,None,num_4,0.8879018999996333,691.6872859999994,None,sad,0,Happy,692.5842452199997,None,None,692.5842452199997,None,,,,,,,,,,,,,,,,,,,,,,,,,,,,,,,,,,,,,,,,,,,,,,,,,,,,,42,001,0,27,550,500,2022_Nov_17_1053,Experiment,2021.1.4,360.23963140189227,
images\S5_F_S_03.png,images\S5_F_S_03_scrambled.png,5,sad,-30,female,1,,570,on,2,0.5,0.75,0.5,0.8,3,569,2,1,1,2,2,32,128,161,,,,,,0,92,92,92,,,,,,,,,,,,,,,,,,,,,,,,,,,,,,,,,,,,,,,,,,,,,,,,,,,,,,,,,692.6314447999994,693.1341134999993,693.1341134999993,693.8894363999998,693.8894363999998,694.3948197,694.3948197,695.1973252999996,695.1973252999996,None,None,,695.1973252999996,None,miss,0,Sad,698.1991697599998,None,None,698.1991697599998,None,,,,,,,,,,,,,,,,,,,,,,,,,,,,,,,,,,,,,,,,,,,,,,,,,,,,,42,001,0,27,550,500,2022_Nov_17_1053,Experiment,2021.1.4,360.23963140189227,
images\S6_M_S_02.png,images\S6_M_S_02_scrambled.png,6,sad,-20,male,2,,575,on,2,0.5,0.75,0.5,0.907,3,574,3,1,1,2,2,32,128,162,,,,,,0,93,93,93,,,,,,,,,,,,,,,,,,,,,,,,,,,,,,,,,,,,,,,,,,,,,,,,,,,,,,,,,698.2824671999997,698.7879827999996,698.7879827999996,699.5432844999996,699.5432844999996,700.0430256,700.0430256,700.9540021999992,700.9540021999992,698.2824671999997,num_4,0.3091995000004317,700.9540021999992,698.2824671999997,sad,0,Sad,701.2732226399997,None,None,701.2732226399997,None,,,,,,,,,,,,,,,,,,,,,,,,,,,,,,,,,,,,,,,,,,,,,,,,,,,,,42,001,0,27,550,500,2022_Nov_17_1053,Experiment,2021.1.4,360.23963140189227,
images\S9_F_S_01.png,images\S9_F_S_01_scrambled.png,9,sad,-10,female,3,,352,on,2,0.5,0.75,0.5,0.83,3,351,4,1,1,2,2,32,128,163,,,,,,0,94,94,94,,,,,,,,,,,,,,,,,,,,,,,,,,,,,,,,,,,,,,,,,,,,,,,,,,,,,,,,,701.3231920999997,701.8287195999992,701.8287195999992,702.5811273999998,702.5811273999998,703.0838527999995,703.0838527999995,703.9196493,703.9196493,None,num_4,0.60748969999986,703.9196493,None,sad,0,Sad,704.5388779399995,None,None,704.5388779399995,None,,,,,,,,,,,,,,,,,,,,,,,,,,,,,,,,,,,,,,,,,,,,,,,,,,,,,42,001,0,27,550,500,2022_Nov_17_1053,Experiment,2021.1.4,360.23963140189227,
images\S10_M_S_01.png,images\S10_M_S_01_scrambled.png,10,sad,-10,male,3,,298,off,1,0.5,0.75,0.5,0.903,3,297,1,1,2,0,0,0,0,3,,,,,,0,95,95,95,,,,,,,,,,,,,,,,,,,,,,,,,,,,,,,,,,,,,,,,,,,,,,,,,,,,,,,,,704.5860659999998,705.0914790999996,705.0914790999996,705.8440721999996,705.8440721999996,706.3494653999996,706.3494653999996,707.2547233999994,707.2547233999994,None,num_6,0.34460910000052536,707.2547233999994,None,happy,0,Sad,707.6075154799995,None,None,707.6075154799995,None,,,,,,,,,,,,,,,,,,,,,,,,,,,,,,,,,,,,,,,,,,,,,,,,,,,,,42,001,0,27,550,500,2022_Nov_17_1053,Experiment,2021.1.4,360.23963140189227,
images\S3_F_S_03.png,images\S3_F_S_03_scrambled.png,3,sad,-30,female,1,,18,off,1,0.5,0.75,0.5,0.753,3,17,2,1,1,0,0,0,0,1,,,,,,0,96,96,96,,,,,,,,,,,,,,,,,,,,,,,,,,,,,,,,,,,,,,,,,,,,,,,,,,,,,,,,,707.6656708999999,708.1710774999992,708.1710774999992,708.9208320999996,708.9208320999996,709.4235810999999,709.4235810999999,710.1789038999996,710.1789038999996,None,num_4,0.36424689999967086,710.1789038999996,None,sad,0,Sad,710.5676123199999,None,None,710.5676123199999,None,,,,,,,,,,,,,,,,,,,,,,,,,,,,,,,,,,,,,,,,,,,,,,,,,,,,,42,001,0,27,550,500,2022_Nov_17_1053,Experiment,2021.1.4,360.23963140189227,
images\S10_M_H_01.png,images\S10_M_H_01_scrambled.png,10,happy,10,male,4,,595,on,2,0.5,0.75,0.5,0.92,3,594,1,1,1,2,2,32,128,164,,,,,,0,97,97,97,,,,,,,,,,,,,,,,,,,,,,,,,,,,,,,,,,,,,,,,,,,,,,,,,,,,,,,,,710.6203063999992,711.1257262999998,711.1257262999998,711.8783717999995,711.8783717999995,712.3837662999995,712.3837662999995,713.3056133999999,713.3056133999999,None,num_6,0.27745839999988675,713.3056133999999,None,happy,0,Happy,713.5944127399993,None,None,713.5944127399993,None,,,,,,,,,,,,,,,,,,,,,,,,,,,,,,,,,,,,,,,,,,,,,,,,,,,,,42,001,0,27,550,500,2022_Nov_17_1053,Experiment,2021.1.4,360.23963140189227,
images\S3_F_S_03.png,images\S3_F_S_03_scrambled.png,3,sad,-30,female,1,,558,on,2,0.5,0.75,0.5,0.775,3,557,2,1,1,2,2,32,128,161,,,,,,0,98,98,98,,,,,,,,,,,,,,,,,,,,,,,,,,,,,,,,,,,,,,,,,,,,,,,,,,,,,,,,,713.6443714999996,714.1469982999997,714.1469982999997,714.8967660999997,714.8967660999997,715.3993778999993,715.3993778999993,716.1797355999997,716.1797355999997,None,num_4,0.24339269999927637,716.1797355999997,None,sad,0,Sad,716.4491308799996,None,None,716.4491308799996,None,,,,,,,,,,,,,,,,,,,,,,,,,,,,,,,,,,,,,,,,,,,,,,,,,,,,,42,001,0,27,550,500,2022_Nov_17_1053,Experiment,2021.1.4,360.23963140189227,
images\S6_M_H_01.png,images\S6_M_H_01_scrambled.png,6,happy,10,male,4,,451,on,2,0.5,0.75,0.5,0.823,3,450,3,1,1,2,2,32,128,164,,,,,,0,99,99,99,,,,,,,,,,,,,,,,,,,,,,,,,,,,,,,,,,,,,,,,,,,,,,,,,,,,,,,,,716.5129198999994,717.0155685,717.0155685,717.7681217999998,717.7681217999998,718.2707400999998,718.2707400999998,719.1010254999992,719.1010254999992,None,num_6,0.2101738999999725,719.1010254999992,None,happy,0,Happy,719.3315650199991,None,None,719.3315650199991,None,,,,,,,,,,,,,,,,,,,,,,,,,,,,,,,,,,,,,,,,,,,,,,,,,,,,,42,001,0,27,550,500,2022_Nov_17_1053,Experiment,2021.1.4,360.23963140189227,
images\blank.jpg,images\blank.jpg,none,none,none,none,0,,634,on,2,0.5,0.75,0.5,0.782,0,633,4,1,1,3,3,48,192,240,,,,,,0,100,100,100,,,,,,,,,,,,,,,,,,,,,,,,,,,,,,,,,,,,,,,,,,,,,,,,,,,,,,,,,719.4205583999992,719.9230097,719.9230097,720.6727438999997,720.6727438999997,721.1753997999995,721.1753997999995,721.9640789999994,721.9640789999994,721.9640789999994,None,,721.9640789999994,None,miss,0,,724.9630961599997,None,None,724.9630961599997,None,,,,,,,,,,,,,,,,,,,,,,,,,,,,,,,,,,,,,,,,,,,,,,,,,,,,,42,001,0,27,550,500,2022_Nov_17_1053,Experiment,2021.1.4,360.23963140189227,
images\blank.jpg,images\blank.jpg,none,none,none,none,0,,616,on,2,0.5,0.75,0.5,0.871,0,615,5,2,2,3,3,48,192,240,,,,,,0,101,101,101,,,,,,,,,,,,,,,,,,,,,,,,,,,,,,,,,,,,,,,,,,,,,,,,,,,,,,,,,724.9853067999993,725.4880359999997,725.4880359999997,726.2404954999993,726.2404954999993,726.7458864,726.7458864,727.6178160999998,727.6178160999998,727.6178160999998,None,,727.6178160999998,724.9853067999993,miss,0,,730.6197113199999,None,None,730.6197113199999,None,,,,,,,,,,,,,,,,,,,,,,,,,,,,,,,,,,,,,,,,,,,,,,,,,,,,,42,001,0,27,550,500,2022_Nov_17_1053,Experiment,2021.1.4,360.23963140189227,
images\blank.jpg,images\blank.jpg,none,none,none,none,0,,608,on,2,0.5,0.75,0.5,0.944,0,607,6,3,3,3,3,48,192,240,,,,,,0,102,102,102,,,,,,,,,,,,,,,,,,,,,,,,,,,,,,,,,,,,,,,,,,,,,,,,,,,,,,,,,730.6446652999994,731.1472747999996,731.1472747999996,731.8998671999998,731.8998671999998,732.4052505999998,732.4052505999998,733.3494064999995,733.3494064999995,733.3494064999995,None,,733.3494064999995,730.6446652999994,miss,0,,736.34845676,None,None,736.34845676,None,,,,,,,,,,,,,,,,,,,,,,,,,,,,,,,,,,,,,,,,,,,,,,,,,,,,,42,001,0,27,550,500,2022_Nov_17_1053,Experiment,2021.1.4,360.23963140189227,
images\S4_M_H_03.png,images\S4_M_H_03_scrambled.png,4,happy,30,male,6,,21,off,1,0.5,0.75,0.5,0.832,3,20,1,1,1,0,0,0,0,6,,,,,,0,103,103,103,,,,,,,,,,,,,,,,,,,,,,,,,,,,,,,,,,,,,,,,,,,,,,,,,,,,,,,,,736.4625295999995,736.9649167999996,736.9649167999996,737.7202705,737.7202705,738.2230025999997,738.2230025999997,739.0588295999996,739.0588295999996,None,num_6,0.2123572000000422,739.0588295999996,736.4625295999995,happy,0,Happy,739.2975866199993,None,None,739.2975866199993,None,,,,,,,,,,,,,,,,,,,,,,,,,,,,,,,,,,,,,,,,,,,,,,,,,,,,,42,001,0,27,550,500,2022_Nov_17_1053,Experiment,2021.1.4,360.23963140189227,
images\S9_F_H_03.png,images\S9_F_H_03_scrambled.png,9,happy,30,female,6,,351,on,2,0.5,0.75,0.5,0.899,3,350,1,1,2,2,2,32,128,166,,,,,,0,104,104,104,,,,,,,,,,,,,,,,,,,,,,,,,,,,,,,,,,,,,,,,,,,,,,,,,,,,,,,,,739.4086079999997,739.9140622999994,739.9140622999994,740.6637919999994,740.6637919999994,741.1692327999999,741.1692327999999,742.0744986,742.0744986,None,num_6,0.22064620000037394,742.0744986,None,happy,0,Happy,742.3049585399998,None,None,742.3049585399998,None,,,,,,,,,,,,,,,,,,,,,,,,,,,,,,,,,,,,,,,,,,,,,,,,,,,,,42,001,0,27,550,500,2022_Nov_17_1053,Experiment,2021.1.4,360.23963140189227,
images\S5_F_H_01.png,images\S5_F_H_01_scrambled.png,5,happy,10,female,4,,385,off,1,0.5,0.75,0.5,0.851,3,384,1,1,1,0,0,0,0,4,,,,,,0,105,105,105,,,,,,,,,,,,,,,,,,,,,,,,,,,,,,,,,,,,,,,,,,,,,,,,,,,,,,,,,742.3549254999998,742.8603432,742.8603432,743.6129899999996,743.6129899999996,744.1183595999992,744.1183595999992,744.9736932999995,744.9736932999995,None,num_6,0.3292998000006264,744.9736932999995,None,happy,0,Happy,745.3179141999994,None,None,745.3179141999994,None,,,,,,,,,,,,,,,,,,,,,,,,,,,,,,,,,,,,,,,,,,,,,,,,,,,,,42,001,0,27,550,500,2022_Nov_17_1053,Experiment,2021.1.4,360.23963140189227,
images\blank.jpg,images\blank.jpg,none,none,none,none,0,,632,on,2,0.5,0.75,0.5,0.781,0,631,1,1,1,3,3,48,192,240,,,,,,0,106,106,106,,,,,,,,,,,,,,,,,,,,,,,,,,,,,,,,,,,,,,,,,,,,,,,,,,,,,,,,,745.4014193999992,745.9010350999997,745.9010350999997,746.6508062999992,746.6508062999992,747.1535709999998,747.1535709999998,747.9393506999995,747.9393506999995,747.9393506999995,None,,747.9393506999995,None,miss,0,,750.9384157599999,None,None,750.9384157599999,None,,,,,,,,,,,,,,,,,,,,,,,,,,,,,,,,,,,,,,,,,,,,,,,,,,,,,42,001,0,27,550,500,2022_Nov_17_1053,Experiment,2021.1.4,360.23963140189227,
images\S1_F_H_01.png,images\S1_F_H_01_scrambled.png,1,happy,10,female,4,,61,on,2,0.5,0.75,0.5,0.779,3,60,2,1,1,2,2,32,128,164,,,,,,0,107,107,107,,,,,,,,,,,,,,,,,,,,,,,,,,,,,,,,,,,,,,,,,,,,,,,,,,,,,,,,,751.0580694,751.5604448999993,751.5604448999993,752.3157181999995,752.3157181999995,752.8183789999994,752.8183789999994,753.6014575999998,753.6014575999998,None,num_4,0.9335387999999512,753.6014575999998,751.0580694,sad,0,Happy,754.5428160199992,None,None,754.5428160199992,None,,,,,,,,,,,,,,,,,,,,,,,,,,,,,,,,,,,,,,,,,,,,,,,,,,,,,42,001,0,27,550,500,2022_Nov_17_1053,Experiment,2021.1.4,360.23963140189227,
images\S7_F_S_03.png,images\S7_F_S_03_scrambled.png,7,sad,-30,female,1,,582,on,2,0.5,0.75,0.5,0.888,3,581,3,1,1,2,2,32,128,161,,,,,,0,108,108,108,,,,,,,,,,,,,,,,,,,,,,,,,,,,,,,,,,,,,,,,,,,,,,,,,,,,,,,,,754.5900237999995,755.0954532999995,755.0954532999995,755.8507795999994,755.8507795999994,756.3561671999996,756.3561671999996,757.2503416999998,757.2503416999998,None,num_4,0.4127711000001,757.2503416999998,None,sad,0,Sad,757.6891998199997,None,None,757.6891998199997,None,,,,,,,,,,,,,,,,,,,,,,,,,,,,,,,,,,,,,,,,,,,,,,,,,,,,,42,001,0,27,550,500,2022_Nov_17_1053,Experiment,2021.1.4,360.23963140189227,
images\S5_F_S_02.png,images\S5_F_S_02_scrambled.png,5,sad,-20,female,2,,149,off,1,0.5,0.75,0.5,0.924,3,148,1,1,1,0,0,0,0,2,,,,,,0,109,109,109,,,,,,,,,,,,,,,,,,,,,,,,,,,,,,,,,,,,,,,,,,,,,,,,,,,,,,,,,757.7945744999997,758.2972104,758.2972104,759.0498647999993,759.0498647999993,759.5551996999993,759.5551996999993,760.4798551999993,760.4798551999993,None,num_4,0.3113432999998622,760.4798551999993,None,sad,0,Sad,760.8187553799997,None,None,760.8187553799997,None,,,,,,,,,,,,,,,,,,,,,,,,,,,,,,,,,,,,,,,,,,,,,,,,,,,,,42,001,0,27,550,500,2022_Nov_17_1053,Experiment,2021.1.4,360.23963140189227,
images\S8_M_H_01.png,images\S8_M_H_01_scrambled.png,8,happy,10,male,4,,583,on,2,0.5,0.75,0.5,0.857,3,582,1,1,1,2,2,32,128,164,,,,,,0,110,110,110,,,,,,,,,,,,,,,,,,,,,,,,,,,,,,,,,,,,,,,,,,,,,,,,,,,,,,,,,760.8714015999994,761.3741581999993,761.3741581999993,762.1238182999996,762.1238182999996,762.6264416999993,762.6264416999993,763.4872685999999,763.4872685999999,None,num_6,0.28769289999945613,763.4872685999999,None,happy,0,Happy,763.7871869399991,None,None,763.7871869399991,None,,,,,,,,,,,,,,,,,,,,,,,,,,,,,,,,,,,,,,,,,,,,,,,,,,,,,42,001,0,27,550,500,2022_Nov_17_1053,Experiment,2021.1.4,360.23963140189227,
images\S7_F_S_03.png,images\S7_F_S_03_scrambled.png,7,sad,-30,female,1,,402,off,1,0.5,0.75,0.5,0.918,3,401,1,1,1,0,0,0,0,1,,,,,,0,111,111,111,,,,,,,,,,,,,,,,,,,,,,,,,,,,,,,,,,,,,,,,,,,,,,,,,,,,,,,,,763.8371533999998,764.3398655999999,764.3398655999999,765.0895470999994,765.0895470999994,765.5949967999995,765.5949967999995,766.5197361999999,766.5197361999999,None,num_4,0.19949980000001233,766.5197361999999,None,sad,0,Sad,766.7474956199992,None,None,766.7474956199992,None,,,,,,,,,,,,,,,,,,,,,,,,,,,,,,,,,,,,,,,,,,,,,,,,,,,,,42,001,0,27,550,500,2022_Nov_17_1053,Experiment,2021.1.4,360.23963140189227,
images\S6_M_H_01.png,images\S6_M_H_01_scrambled.png,6,happy,10,male,4,,331,on,2,0.5,0.75,0.5,0.791,3,330,1,1,1,2,2,32,128,164,,,,,,0,112,112,112,,,,,,,,,,,,,,,,,,,,,,,,,,,,,,,,,,,,,,,,,,,,,,,,,,,,,,,,,766.7973493999998,767.3000220999993,767.3000220999993,768.0553258,768.0553258,768.5579076999993,768.5579076999993,769.3549285999998,769.3549285999998,None,num_6,0.2841686000001573,769.3549285999998,None,happy,0,Happy,769.652046739999,None,None,769.652046739999,None,,,,,,,,,,,,,,,,,,,,,,,,,,,,,,,,,,,,,,,,,,,,,,,,,,,,,42,001,0,27,550,500,2022_Nov_17_1053,Experiment,2021.1.4,360.23963140189227,
images\S7_F_H_03.png,images\S7_F_H_03_scrambled.png,7,happy,30,female,6,,579,on,2,0.5,0.75,0.5,0.814,3,578,2,1,1,2,2,32,128,166,,,,,,0,113,113,113,,,,,,,,,,,,,,,,,,,,,,,,,,,,,,,,,,,,,,,,,,,,,,,,,,,,,,,,,769.7020124999999,770.2046901999993,770.2046901999993,770.9599856999994,770.9599856999994,771.4597832999998,771.4597832999998,772.2762333999999,772.2762333999999,None,num_6,1.0426961999992272,772.2762333999999,None,happy,0,Happy,773.3342175399997,None,None,773.3342175399997,None,,,,,,,,,,,,,,,,,,,,,,,,,,,,,,,,,,,,,,,,,,,,,,,,,,,,,42,001,0,27,550,500,2022_Nov_17_1053,Experiment,2021.1.4,360.23963140189227,
images\S8_M_S_02.png,images\S8_M_S_02_scrambled.png,8,sad,-20,male,2,,527,off,1,0.5,0.75,0.5,0.836,3,526,1,1,1,0,0,0,0,2,,,,,,0,114,114,114,,,,,,,,,,,,,,,,,,,,,,,,,,,,,,,,,,,,,,,,,,,,,,,,,,,,,,,,,773.3814242999997,773.8841602999992,773.8841602999992,774.6338345999993,774.6338345999993,775.1364454999994,775.1364454999994,775.9750519999998,775.9750519999998,None,num_4,0.39195309999922756,775.9750519999998,None,sad,0,Sad,776.3832867399991,None,None,776.3832867399991,None,,,,,,,,,,,,,,,,,,,,,,,,,,,,,,,,,,,,,,,,,,,,,,,,,,,,,42,001,0,27,550,500,2022_Nov_17_1053,Experiment,2021.1.4,360.23963140189227,
images\S9_F_S_02.png,images\S9_F_S_02_scrambled.png,9,sad,-20,female,2,,173,off,1,0.5,0.75,0.5,0.948,3,172,2,1,2,0,0,0,0,2,,,,,,0,115,115,115,,,,,,,,,,,,,,,,,,,,,,,,,,,,,,,,,,,,,,,,,,,,,,,,,,,,,,,,,776.4361194999992,776.9386698999997,776.9386698999997,777.6912215999992,777.6912215999992,778.1966071999996,778.1966071999996,779.1518675999996,779.1518675999996,None,num_4,0.8550992999998925,779.1518675999996,None,sad,0,Sad,780.0294512799991,None,None,780.0294512799991,None,,,,,,,,,,,,,,,,,,,,,,,,,,,,,,,,,,,,,,,,,,,,,,,,,,,,,42,001,0,27,550,500,2022_Nov_17_1053,Experiment,2021.1.4,360.23963140189227,
images\S9_F_S_01.png,images\S9_F_S_01_scrambled.png,9,sad,-10,female,3,,532,off,1,0.5,0.75,0.5,0.852,3,531,3,2,1,0,0,0,0,3,,,,,,0,116,116,116,,,,,,,,,,,,,,,,,,,,,,,,,,,,,,,,,,,,,,,,,,,,,,,,,,,,,,,,,780.0821105999994,780.5848318999997,780.5848318999997,781.3401195999995,781.3401195999995,781.8427388999999,781.8427388999999,782.6980150999998,782.6980150999998,None,num_4,0.13284179999936896,782.6980150999998,None,sad,0,Sad,782.8507432999991,None,None,782.8507432999991,None,,,,,,,,,,,,,,,,,,,,,,,,,,,,,,,,,,,,,,,,,,,,,,,,,,,,,42,001,0,27,550,500,2022_Nov_17_1053,Experiment,2021.1.4,360.23963140189227,
images\S3_F_H_03.png,images\S3_F_H_03_scrambled.png,3,happy,30,female,6,,375,off,1,0.5,0.75,0.5,0.805,3,374,4,1,1,0,0,0,0,6,,,,,,0,117,117,117,,,,,,,,,,,,,,,,,,,,,,,,,,,,,,,,,,,,,,,,,,,,,,,,,,,,,,,,,782.9617697999993,783.4645464999994,783.4645464999994,784.2198097999999,784.2198097999999,784.7251829999996,784.7251829999996,785.5360113999996,785.5360113999996,None,num_6,0.17497999999977765,785.5360113999996,None,happy,0,Happy,785.7248303399996,None,None,785.7248303399996,None,,,,,,,,,,,,,,,,,,,,,,,,,,,,,,,,,,,,,,,,,,,,,,,,,,,,,42,001,0,27,550,500,2022_Nov_17_1053,Experiment,2021.1.4,360.23963140189227,
images\S2_M_S_02.png,images\S2_M_S_02_scrambled.png,2,sad,-20,male,2,,431,on,2,0.5,0.75,0.5,0.775,3,430,1,1,1,2,2,32,128,162,,,,,,0,118,118,118,,,,,,,,,,,,,,,,,,,,,,,,,,,,,,,,,,,,,,,,,,,,,,,,,,,,,,,,,785.8109022999997,786.3163144,786.3163144,787.0688336999992,787.0688336999992,787.5743634999999,787.5743634999999,788.3546281999998,788.3546281999998,None,num_4,0.36441479999939475,788.3546281999998,None,sad,0,Sad,788.7350135999991,None,None,788.7350135999991,None,,,,,,,,,,,,,,,,,,,,,,,,,,,,,,,,,,,,,,,,,,,,,,,,,,,,,42,001,0,27,550,500,2022_Nov_17_1053,Experiment,2021.1.4,360.23963140189227,
images\S6_M_H_02.png,images\S6_M_H_02_scrambled.png,6,happy,20,male,5,,32,off,1,0.5,0.75,0.5,0.941,3,31,1,1,1,0,0,0,0,5,,,,,,0,119,119,119,,,,,,,,,,,,,,,,,,,,,,,,,,,,,,,,,,,,,,,,,,,,,,,,,,,,,,,,,788.7822292999999,789.2848797999995,789.2848797999995,790.0346057999996,790.0346057999996,790.5400108999993,790.5400108999993,791.4842733999994,791.4842733999994,None,num_6,0.29886050000004616,791.4842733999994,None,happy,0,Happy,791.7979381399995,None,None,791.7979381399995,None,,,,,,,,,,,,,,,,,,,,,,,,,,,,,,,,,,,,,,,,,,,,,,,,,,,,,42,001,0,27,550,500,2022_Nov_17_1053,Experiment,2021.1.4,360.23963140189227,
images\S5_F_S_02.png,images\S5_F_S_02_scrambled.png,5,sad,-20,female,2,,89,on,2,0.5,0.75,0.5,0.769,3,88,1,1,1,2,2,32,128,162,,,,,,0,120,120,120,,,,,,,,,,,,,,,,,,,,,,,,,,,,,,,,,,,,,,,,,,,,,,,,,,,,,,,,,791.8451422999997,792.3477670999991,792.3477670999991,793.1003315999997,793.1003315999997,793.6057283,793.6057283,794.3804871999992,794.3804871999992,None,num_4,0.3706405000002633,794.3804871999992,None,sad,0,Sad,794.7693882199999,None,None,794.7693882199999,None,,,,,,,,,,,,,,,,,,,,,,,,,,,,,,,,,,,,,,,,,,,,,,,,,,,,,42,001,0,27,550,500,2022_Nov_17_1053,Experiment,2021.1.4,360.23963140189227,
images\S9_F_S_03.png,images\S9_F_S_03_scrambled.png,9,sad,-30,female,1,,174,off,1,0.5,0.75,0.5,0.813,3,173,1,1,1,0,0,0,0,1,,,,,,0,121,121,121,,,,,,,,,,,,,,,,,,,,,,,,,,,,,,,,,,,,,,,,,,,,,,,,,,,,,,,,,794.8219921999998,795.3247081,795.3247081,796.0799945999997,796.0799945999997,796.5798103999996,796.5798103999996,797.3962222999999,797.3962222999999,None,num_6,1.2588265000003958,797.3962222999999,None,happy,0,Sad,798.65972352,None,None,798.65972352,None,,,,,,,,,,,,,,,,,,,,,,,,,,,,,,,,,,,,,,,,,,,,,,,,,,,,,42,001,0,27,550,500,2022_Nov_17_1053,Experiment,2021.1.4,360.23963140189227,
images\S7_F_S_02.png,images\S7_F_S_02_scrambled.png,7,sad,-20,female,2,,221,on,2,0.5,0.75,0.5,0.787,3,220,1,1,1,2,2,32,128,162,,,,,,0,122,122,122,,,,,,,,,,,,,,,,,,,,,,,,,,,,,,,,,,,,,,,,,,,,,,,,,,,,,,,,,798.7430027999999,799.2456276999992,799.2456276999992,800.0009714999997,800.0009714999997,800.5063565999999,800.5063565999999,801.2978054999994,801.2978054999994,None,num_4,0.7091425999997227,801.2978054999994,None,sad,0,Sad,802.0197737399998,None,None,802.0197737399998,None,,,,,,,,,,,,,,,,,,,,,,,,,,,,,,,,,,,,,,,,,,,,,,,,,,,,,42,001,0,27,550,500,2022_Nov_17_1053,Experiment,2021.1.4,360.23963140189227,
images\S8_M_H_01.png,images\S8_M_H_01_scrambled.png,8,happy,10,male,4,,343,on,2,0.5,0.75,0.5,0.844,3,342,2,1,1,2,2,32,128,164,,,,,,0,123,123,123,,,,,,,,,,,,,,,,,,,,,,,,,,,,,,,,,,,,,,,,,,,,,,,,,,,,,,,,,802.0669707999996,802.5696141999997,802.5696141999997,803.3249668999997,803.3249668999997,803.8303711999997,803.8303711999997,804.6801089,804.6801089,None,num_6,0.49482110000008106,804.6801089,None,happy,0,Happy,805.1854656399995,None,None,805.1854656399995,None,,,,,,,,,,,,,,,,,,,,,,,,,,,,,,,,,,,,,,,,,,,,,,,,,,,,,42,001,0,27,550,500,2022_Nov_17_1053,Experiment,2021.1.4,360.23963140189227,
images\S7_F_H_01.png,images\S7_F_H_01_scrambled.png,7,happy,10,female,4,,217,on,2,0.5,0.75,0.5,0.829,3,216,3,1,2,2,2,32,128,164,,,,,,0,124,124,124,,,,,,,,,,,,,,,,,,,,,,,,,,,,,,,,,,,,,,,,,,,,,,,,,,,,,,,,,805.2687466999996,805.7714044999993,805.7714044999993,806.5267168,806.5267168,807.0294453999995,807.0294453999995,807.8651986999994,807.8651986999994,None,num_4,0.8058906000005663,807.8651986999994,None,sad,0,Happy,808.6844620799997,None,None,808.6844620799997,None,,,,,,,,,,,,,,,,,,,,,,,,,,,,,,,,,,,,,,,,,,,,,,,,,,,,,42,001,0,27,550,500,2022_Nov_17_1053,Experiment,2021.1.4,360.23963140189227,
images\S6_M_S_02.png,images\S6_M_S_02_scrambled.png,6,sad,-20,male,2,,95,on,2,0.5,0.75,0.5,0.765,3,94,4,1,1,2,2,32,128,162,,,,,,0,125,125,125,,,,,,,,,,,,,,,,,,,,,,,,,,,,,,,,,,,,,,,,,,,,,,,,,,,,,,,,,808.7454536999994,809.2453013999993,809.2453013999993,809.9950743999998,809.9950743999998,810.5004936999994,810.5004936999994,811.2697564999999,811.2697564999999,None,num_4,0.38504180000018096,811.2697564999999,None,sad,0,Sad,811.6667946399997,None,None,811.6667946399997,None,,,,,,,,,,,,,,,,,,,,,,,,,,,,,,,,,,,,,,,,,,,,,,,,,,,,,42,001,0,27,550,500,2022_Nov_17_1053,Experiment,2021.1.4,360.23963140189227,
images\S10_M_S_02.png,images\S10_M_S_02_scrambled.png,10,sad,-20,male,2,,119,on,2,0.5,0.75,0.5,0.901,3,118,5,1,2,2,2,32,128,162,,,,,,0,126,126,126,,,,,,,,,,,,,,,,,,,,,,,,,,,,,,,,,,,,,,,,,,,,,,,,,,,,,,,,,811.7473019999998,812.2499203999996,812.2499203999996,812.9996885,812.9996885,813.5051457,813.5051457,814.4103927999995,814.4103927999995,None,num_6,0.37248709999948915,814.4103927999995,None,happy,0,Sad,814.7908182199992,None,None,814.7908182199992,None,,,,,,,,,,,,,,,,,,,,,,,,,,,,,,,,,,,,,,,,,,,,,,,,,,,,,42,001,0,27,550,500,2022_Nov_17_1053,Experiment,2021.1.4,360.23963140189227,
images\S7_F_H_01.png,images\S7_F_H_01_scrambled.png,7,happy,10,female,4,,457,on,2,0.5,0.75,0.5,0.846,3,456,6,1,1,2,2,32,128,164,,,,,,0,127,127,127,,,,,,,,,,,,,,,,,,,,,,,,,,,,,,,,,,,,,,,,,,,,,,,,,,,,,,,,,814.8407991999993,815.3462105999997,815.3462105999997,816.0987587999998,816.0987587999998,816.6042563999999,816.6042563999999,817.4538622999999,817.4538622999999,None,num_6,0.5850427999994281,817.4538622999999,None,happy,0,Happy,818.0537035399997,None,None,818.0537035399997,None,,,,,,,,,,,,,,,,,,,,,,,,,,,,,,,,,,,,,,,,,,,,,,,,,,,,,42,001,0,27,550,500,2022_Nov_17_1053,Experiment,2021.1.4,360.23963140189227,
images\S6_M_S_03.png,images\S6_M_S_03_scrambled.png,6,sad,-30,male,1,,96,on,2,0.5,0.75,0.5,0.876,3,95,7,1,1,2,2,32,128,161,,,,,,0,128,128,128,,,,,,,,,,,,,,,,,,,,,,,,,,,,,,,,,,,,,,,,,,,,,,,,,,,,,,,,,818.1008915999992,818.6063061999994,818.6063061999994,819.3588311999993,819.3588311999993,819.8643692999995,819.8643692999995,820.7445433999992,820.7445433999992,None,num_4,0.39823400000022957,820.7445433999992,None,sad,0,Sad,821.1555300999994,None,None,821.1555300999994,None,,,,,,,,,,,,,,,,,,,,,,,,,,,,,,,,,,,,,,,,,,,,,,,,,,,,,42,001,0,27,550,500,2022_Nov_17_1053,Experiment,2021.1.4,360.23963140189227,
images\S2_M_S_01.png,images\S2_M_S_01_scrambled.png,2,sad,-10,male,3,,490,off,1,0.5,0.75,0.5,0.782,3,489,1,1,1,0,0,0,0,3,,,,,,0,129,129,129,,,,,,,,,,,,,,,,,,,,,,,,,,,,,,,,,,,,,,,,,,,,,,,,,,,,,,,,,821.2027015999993,821.7025477999996,821.7025477999996,822.4578693999993,822.4578693999993,822.9605334999997,822.9605334999997,823.7492710999995,823.7492710999995,None,num_6,0.6496891999995569,823.7492710999995,None,happy,0,Sad,824.4072823199997,None,None,824.4072823199997,None,,,,,,,,,,,,,,,,,,,,,,,,,,,,,,,,,,,,,,,,,,,,,,,,,,,,,42,001,0,27,550,500,2022_Nov_17_1053,Experiment,2021.1.4,360.23963140189227,
images\S3_F_S_03.png,images\S3_F_S_03_scrambled.png,3,sad,-30,female,1,,498,off,1,0.5,0.75,0.5,0.798,3,497,2,1,1,0,0,0,0,1,,,,,,0,130,130,130,,,,,,,,,,,,,,,,,,,,,,,,,,,,,,,,,,,,,,,,,,,,,,,,,,,,,,,,,824.4572522999997,824.9598723999998,824.9598723999998,825.7152550999999,825.7152550999999,826.2206330999998,826.2206330999998,827.0259289999995,827.0259289999995,None,num_4,0.13289260000055947,827.0259289999995,None,sad,0,Sad,827.1841950999997,None,space,827.1841950999997,None,57.198572799999965,,,,,,,,,,,,,,,,,,,,,,,,,,,,,,,,,,,,,,,,,,,,,,,,,,,,42,001,0,27,550,500,2022_Nov_17_1053,Experiment,2021.1.4,360.23963140189227,
images\blank.jpg,images\blank.jpg,none,none,none,none,0,,619,on,2,0.5,0.75,0.5,0.922,0,618,1,1,1,3,3,48,192,240,,,,,,0,131,131,131,,,,,,,,,,,,,,,,,,,,,,,,,,,,,,,,,,,,,,,,,,,,,,,,,,,,,,,,,884.4722849999998,884.9746510999994,884.9746510999994,885.7243983999997,885.7243983999997,886.2298416999993,886.2298416999993,887.151726,887.151726,887.151726,None,,887.151726,None,miss,0,,890.1675080599995,None,None,890.1675080599995,None,,,,,,,,,,,,,,,,,,,,,,,,,,,,,,,,,,,,,,,,,,,,,,,,,,,,,42,001,0,27,550,500,2022_Nov_17_1053,Experiment,2021.1.4,360.23963140189227,
images\S6_M_H_02.png,images\S6_M_H_02_scrambled.png,6,happy,20,male,5,,92,on,2,0.5,0.75,0.5,0.808,3,91,2,1,1,2,2,32,128,165,,,,,,0,132,132,132,,,,,,,,,,,,,,,,,,,,,,,,,,,,,,,,,,,,,,,,,,,,,,,,,,,,,,,,,890.2843411999993,890.7895658999996,890.7895658999996,891.5448397,891.5448397,892.0474552999995,892.0474552999995,892.8584140999992,892.8584140999992,None,num_6,0.27624220000052446,892.8584140999992,890.2843411999993,happy,0,Happy,893.1471022399995,None,None,893.1471022399995,None,,,,,,,,,,,,,,,,,,,,,,,,,,,,,,,,,,,,,,,,,,,,,,,,,,,,,42,001,0,27,550,500,2022_Nov_17_1053,Experiment,2021.1.4,360.23963140189227,
images\S10_M_S_02.png,images\S10_M_S_02_scrambled.png,10,sad,-20,male,2,,359,on,2,0.5,0.75,0.5,0.835,3,358,3,1,1,2,2,32,128,162,,,,,,0,133,133,133,,,,,,,,,,,,,,,,,,,,,,,,,,,,,,,,,,,,,,,,,,,,,,,,,,,,,,,,,893.1970625999993,893.6997441999993,893.6997441999993,894.4522856999993,894.4522856999993,894.9549119999992,894.9549119999992,895.7936063999996,895.7936063999996,None,num_6,0.3249675999995816,895.7936063999996,None,happy,0,Sad,896.1267254199995,None,None,896.1267254199995,None,,,,,,,,,,,,,,,,,,,,,,,,,,,,,,,,,,,,,,,,,,,,,,,,,,,,,42,001,0,27,550,500,2022_Nov_17_1053,Experiment,2021.1.4,360.23963140189227,
images\S10_M_S_03.png,images\S10_M_S_03_scrambled.png,10,sad,-30,male,1,,300,off,1,0.5,0.75,0.5,0.874,3,299,1,2,1,0,0,0,0,1,,,,,,0,134,134,134,,,,,,,,,,,,,,,,,,,,,,,,,,,,,,,,,,,,,,,,,,,,,,,,,,,,,,,,,896.1739207999999,896.6737587999996,896.6737587999996,897.4263257999992,897.4263257999992,897.9289571999998,897.9289571999998,898.8064494999999,898.8064494999999,None,num_4,0.3363417999999001,898.8064494999999,None,sad,0,Sad,899.1675923799993,None,None,899.1675923799993,None,,,,,,,,,,,,,,,,,,,,,,,,,,,,,,,,,,,,,,,,,,,,,,,,,,,,,42,001,0,27,550,500,2022_Nov_17_1053,Experiment,2021.1.4,360.23963140189227,
images\S10_M_H_03.png,images\S10_M_H_03_scrambled.png,10,happy,30,male,6,,117,on,2,0.5,0.75,0.5,0.792,3,116,1,3,1,2,2,32,128,166,,,,,,0,135,135,135,,,,,,,,,,,,,,,,,,,,,,,,,,,,,,,,,,,,,,,,,,,,,,,,,,,,,,,,,899.2201950999997,899.7256197999995,899.7256197999995,900.4781389999998,900.4781389999998,900.9779812999996,900.9779812999996,901.7750001999993,901.7750001999993,None,num_6,0.3276480000004085,901.7750001999993,None,happy,0,Happy,902.1248814799991,None,None,902.1248814799991,None,,,,,,,,,,,,,,,,,,,,,,,,,,,,,,,,,,,,,,,,,,,,,,,,,,,,,42,001,0,27,550,500,2022_Nov_17_1053,Experiment,2021.1.4,360.23963140189227,
images\S1_F_S_01.png,images\S1_F_S_01_scrambled.png,1,sad,-10,female,3,,64,on,2,0.5,0.75,0.5,0.879,3,63,2,1,1,2,2,32,128,163,,,,,,0,136,136,136,,,,,,,,,,,,,,,,,,,,,,,,,,,,,,,,,,,,,,,,,,,,,,,,,,,,,,,,,902.1748270999997,902.6802721999993,902.6802721999993,903.4355809999997,903.4355809999997,903.9383029,903.9383029,904.8268952999997,904.8268952999997,None,num_4,0.9398414000006596,904.8268952999997,None,sad,0,Sad,905.7820633399991,None,None,905.7820633399991,None,,,,,,,,,,,,,,,,,,,,,,,,,,,,,,,,,,,,,,,,,,,,,,,,,,,,,42,001,0,27,550,500,2022_Nov_17_1053,Experiment,2021.1.4,360.23963140189227,
images\S5_F_H_03.png,images\S5_F_H_03_scrambled.png,5,happy,30,female,6,,507,off,1,0.5,0.75,0.5,0.911,3,506,1,1,1,0,0,0,0,6,,,,,,0,137,137,137,,,,,,,,,,,,,,,,,,,,,,,,,,,,,,,,,,,,,,,,,,,,,,,,,,,,,,,,,905.8292652,906.3347132999997,906.3347132999997,907.0844485999996,907.0844485999996,907.5898693999998,907.5898693999998,908.5062129999997,908.5062129999997,None,num_6,0.42840350000005856,908.5062129999997,None,happy,0,Happy,908.9477607999993,None,None,908.9477607999993,None,,,,,,,,,,,,,,,,,,,,,,,,,,,,,,,,,,,,,,,,,,,,,,,,,,,,,42,001,0,27,550,500,2022_Nov_17_1053,Experiment,2021.1.4,360.23963140189227,
images\S7_F_S_01.png,images\S7_F_S_01_scrambled.png,7,sad,-10,female,3,,580,on,2,0.5,0.75,0.5,0.827,3,579,1,1,1,2,2,32,128,163,,,,,,0,138,138,138,,,,,,,,,,,,,,,,,,,,,,,,,,,,,,,,,,,,,,,,,,,,,,,,,,,,,,,,,909.0560300999996,909.5614556,909.5614556,910.3140687999994,910.3140687999994,910.8194629,910.8194629,911.6496740999992,911.6496740999992,None,num_4,0.3488861000005272,911.6496740999992,None,sad,0,Sad,912.0134764999998,None,None,912.0134764999998,None,,,,,,,,,,,,,,,,,,,,,,,,,,,,,,,,,,,,,,,,,,,,,,,,,,,,,42,001,0,27,550,500,2022_Nov_17_1053,Experiment,2021.1.4,360.23963140189227,
images\S10_M_S_01.png,images\S10_M_S_01_scrambled.png,10,sad,-10,male,3,,538,off,1,0.5,0.75,0.5,0.823,3,537,1,1,2,0,0,0,0,3,,,,,,0,139,139,139,,,,,,,,,,,,,,,,,,,,,,,,,,,,,,,,,,,,,,,,,,,,,,,,,,,,,,,,,912.0606593999992,912.5660836999996,912.5660836999996,913.3214027999993,913.3214027999993,913.8241415999992,913.8241415999992,914.6543758999996,914.6543758999996,None,num_6,0.32829730000048585,914.6543758999996,None,happy,0,Sad,914.9875519199998,None,None,914.9875519199998,None,,,,,,,,,,,,,,,,,,,,,,,,,,,,,,,,,,,,,,,,,,,,,,,,,,,,,42,001,0,27,550,500,2022_Nov_17_1053,Experiment,2021.1.4,360.23963140189227,
