image_face,image_scram,avatar,emo,emotion,sex,trigeeg,dac,trial_no,NMES,stimtime,baseline,iti,face,scr_face,resp_time,index,count_NMES,count_avatar,count_emotion,dac1,dac2,dac1_output,dac2_output,trigs_out,nmes,practice_trials.thisRepN,practice_trials.thisTrialN,practice_trials.thisN,practice_trials.thisIndex,real_trials.thisRepN,real_trials.thisTrialN,real_trials.thisN,real_trials.thisIndex,trials.thisRepN,trials.thisTrialN,trials.thisN,trials.thisIndex,position,Welcome.started,Welcome.stopped,Welcome_resp.keys,Welcome_resp.rt,text_2.started,text_2.stopped,form_2.index,form_2.itemText,form_2.type,form_2.response,form_2.rt,key_resp_4.keys,key_resp_4.rt,key_resp_4.started,key_resp_4.stopped,instructions.started,instructions.stopped,end_instr.keys,end_instr.rt,instructions_2.started,instructions_2.stopped,end_instr_2.keys,end_instr_2.rt,end_instr_2.started,end_instr_2.stopped,instruct_keypress.started,instruct_keypress.stopped,end_instruct_keypress.keys,end_instruct_keypress.rt,start_practice.started,start_practice.stopped,start_practice_resp.keys,start_practice_resp.rt,prac_baseline.started,prac_baseline.stopped,prac_iti.started,prac_iti.stopped,prac_stimulus.started,prac_stimulus.stopped,prac_scram_stim.started,prac_scram_stim.stopped,prac_stimulus_resp.started,prac_stimulus_resp.stopped,prac_resp.keys,prac_resp.rt,prac_resp.started,prac_resp.stopped,transition_to_real.started,transition_to_real.stopped,end_transition_to_real.keys,end_transition_to_real.rt,fixation_cross.started,fixation_cross.stopped,tr_iti.started,tr_iti.stopped,stimulus.started,stimulus.stopped,scram_stim.started,scram_stim.stopped,response_txt.started,response_txt.stopped,response.keys,response.rt,response.started,response.stopped,participant_Resp,grouping,corAnswer,break_msg.started,break_msg.stopped,end_break.keys,end_break.started,end_break.stopped,end_break.rt,text.started,text.stopped,key_resp_3.keys,key_resp_3.rt,key_resp_3.started,key_resp_3.stopped,fix_cross_comf.started,fix_cross_comf.stopped,stimulation_comf.started,stimulation_comf.stopped,rate_instr.started,rate_instr.stopped,comfort_rating.response,comfort_rating.rt,comfort_rating.started,comfort_rating.stopped,resp_form.keys,resp_form.rt,resp_form.started,resp_form.stopped,survey_instructions.started,survey_instructions.stopped,key_resp_2.keys,key_resp_2.rt,key_resp_2.started,key_resp_2.stopped,form.index,form.itemText,form.type,form.response,form.rt,key_resp.keys,key_resp.rt,key_resp.started,key_resp.stopped,text_3.started,text_3.stopped,rate_smile.response,rate_smile.rt,rate_smile.started,rate_smile.stopped,key_resp_5.keys,key_resp_5.rt,key_resp_5.started,key_resp_5.stopped,end_msg.started,end_msg.stopped,end_resp.keys,end_resp.rt,end_resp.started,end_resp.stopped,participant,session,gender,age,LEFT,RIGHT,date,expName,psychopyVersion,frameRate,
,,,,,,,,,,,,,,,,,,,,,,,,,,,,,,,,,,,,,,H-S,50.66675059999943,None,num_add,6.9654554999997345,,,,,,,,,,,,,,,,,,,,,,,,,,,,,,,,,,,,,,,,,,,,,,,,,,,,,,,,,,,,,,,,,,,,,,,,,,,,,,,,,,,,,,,,,,,,,,,,,,,,,,,,,,,,,,,,,,,,,,,,,,43,001,1,21,550,550,2022_Nov_21_1408,Experiment,2021.1.4,360.1994063792055,
,,,,,,,,,,,,,,,,,,,,,,,,,,,,,,,,,,,,,,,,,,,57.65781959999913,59.72107629999846,1,"This scale consistes of a number of words that describe different feelings and emotion. Read each item and then list the number from the scale below each word. Indicate (by clicking) to what extend you feel this way RIGHT NOW, that is, AT THE PRESENT MOMENT.",description,,,,,,,,,,,,,,,,,,,,,,,,,,,,,,,,,,,,,,,,,,,,,,,,,,,,,,,,,,,,,,,,,,,,,,,,,,,,,,,,,,,,,,,,,,,,,,,,,,,,,,,,,,,,,,,,,,,,,43,001,1,21,550,550,2022_Nov_21_1408,Experiment,2021.1.4,360.1994063792055,
,,,,,,,,,,,,,,,,,,,,,,,,,,,,,,,,,,,,,,,,,,,,,2,Interested,rating,5.0,25.315201800000068,,,,,,,,,,,,,,,,,,,,,,,,,,,,,,,,,,,,,,,,,,,,,,,,,,,,,,,,,,,,,,,,,,,,,,,,,,,,,,,,,,,,,,,,,,,,,,,,,,,,,,,,,,,,,,,,,,,43,001,1,21,550,550,2022_Nov_21_1408,Experiment,2021.1.4,360.1994063792055,
,,,,,,,,,,,,,,,,,,,,,,,,,,,,,,,,,,,,,,,,,,,,,3,Distressed,rating,5.0,30.717797400000563,,,,,,,,,,,,,,,,,,,,,,,,,,,,,,,,,,,,,,,,,,,,,,,,,,,,,,,,,,,,,,,,,,,,,,,,,,,,,,,,,,,,,,,,,,,,,,,,,,,,,,,,,,,,,,,,,,,43,001,1,21,550,550,2022_Nov_21_1408,Experiment,2021.1.4,360.1994063792055,
,,,,,,,,,,,,,,,,,,,,,,,,,,,,,,,,,,,,,,,,,,,,,4,Excited,rating,4.0,36.793267499999274,,,,,,,,,,,,,,,,,,,,,,,,,,,,,,,,,,,,,,,,,,,,,,,,,,,,,,,,,,,,,,,,,,,,,,,,,,,,,,,,,,,,,,,,,,,,,,,,,,,,,,,,,,,,,,,,,,,43,001,1,21,550,550,2022_Nov_21_1408,Experiment,2021.1.4,360.1994063792055,
,,,,,,,,,,,,,,,,,,,,,,,,,,,,,,,,,,,,,,,,,,,,,5,Upset,rating,1.0,41.15253610000036,,,,,,,,,,,,,,,,,,,,,,,,,,,,,,,,,,,,,,,,,,,,,,,,,,,,,,,,,,,,,,,,,,,,,,,,,,,,,,,,,,,,,,,,,,,,,,,,,,,,,,,,,,,,,,,,,,,43,001,1,21,550,550,2022_Nov_21_1408,Experiment,2021.1.4,360.1994063792055,
,,,,,,,,,,,,,,,,,,,,,,,,,,,,,,,,,,,,,,,,,,,,,6,Strong,rating,3.0,50.94740920000004,,,,,,,,,,,,,,,,,,,,,,,,,,,,,,,,,,,,,,,,,,,,,,,,,,,,,,,,,,,,,,,,,,,,,,,,,,,,,,,,,,,,,,,,,,,,,,,,,,,,,,,,,,,,,,,,,,,43,001,1,21,550,550,2022_Nov_21_1408,Experiment,2021.1.4,360.1994063792055,
,,,,,,,,,,,,,,,,,,,,,,,,,,,,,,,,,,,,,,,,,,,,,7,Guilty,rating,1.0,23.034722399999737,,,,,,,,,,,,,,,,,,,,,,,,,,,,,,,,,,,,,,,,,,,,,,,,,,,,,,,,,,,,,,,,,,,,,,,,,,,,,,,,,,,,,,,,,,,,,,,,,,,,,,,,,,,,,,,,,,,43,001,1,21,550,550,2022_Nov_21_1408,Experiment,2021.1.4,360.1994063792055,
,,,,,,,,,,,,,,,,,,,,,,,,,,,,,,,,,,,,,,,,,,,,,8,Scared,rating,2.0,21.04444230000081,,,,,,,,,,,,,,,,,,,,,,,,,,,,,,,,,,,,,,,,,,,,,,,,,,,,,,,,,,,,,,,,,,,,,,,,,,,,,,,,,,,,,,,,,,,,,,,,,,,,,,,,,,,,,,,,,,,43,001,1,21,550,550,2022_Nov_21_1408,Experiment,2021.1.4,360.1994063792055,
,,,,,,,,,,,,,,,,,,,,,,,,,,,,,,,,,,,,,,,,,,,,,9,Hostile,rating,1.0,19.469591900000523,,,,,,,,,,,,,,,,,,,,,,,,,,,,,,,,,,,,,,,,,,,,,,,,,,,,,,,,,,,,,,,,,,,,,,,,,,,,,,,,,,,,,,,,,,,,,,,,,,,,,,,,,,,,,,,,,,,43,001,1,21,550,550,2022_Nov_21_1408,Experiment,2021.1.4,360.1994063792055,
,,,,,,,,,,,,,,,,,,,,,,,,,,,,,,,,,,,,,,,,,,,,,10,Enthusiastic,rating,4.0,12.646786999999676,,,,,,,,,,,,,,,,,,,,,,,,,,,,,,,,,,,,,,,,,,,,,,,,,,,,,,,,,,,,,,,,,,,,,,,,,,,,,,,,,,,,,,,,,,,,,,,,,,,,,,,,,,,,,,,,,,,43,001,1,21,550,550,2022_Nov_21_1408,Experiment,2021.1.4,360.1994063792055,
,,,,,,,,,,,,,,,,,,,,,,,,,,,,,,,,,,,,,,,,,,,,,11,Proud,rating,4.0,13.293307399999321,,,,,,,,,,,,,,,,,,,,,,,,,,,,,,,,,,,,,,,,,,,,,,,,,,,,,,,,,,,,,,,,,,,,,,,,,,,,,,,,,,,,,,,,,,,,,,,,,,,,,,,,,,,,,,,,,,,43,001,1,21,550,550,2022_Nov_21_1408,Experiment,2021.1.4,360.1994063792055,
,,,,,,,,,,,,,,,,,,,,,,,,,,,,,,,,,,,,,,,,,,,,,12,Irritable,rating,1.0,12.219737800000075,,,,,,,,,,,,,,,,,,,,,,,,,,,,,,,,,,,,,,,,,,,,,,,,,,,,,,,,,,,,,,,,,,,,,,,,,,,,,,,,,,,,,,,,,,,,,,,,,,,,,,,,,,,,,,,,,,,43,001,1,21,550,550,2022_Nov_21_1408,Experiment,2021.1.4,360.1994063792055,
,,,,,,,,,,,,,,,,,,,,,,,,,,,,,,,,,,,,,,,,,,,,,13,Alert,rating,3.0,10.703574199998911,,,,,,,,,,,,,,,,,,,,,,,,,,,,,,,,,,,,,,,,,,,,,,,,,,,,,,,,,,,,,,,,,,,,,,,,,,,,,,,,,,,,,,,,,,,,,,,,,,,,,,,,,,,,,,,,,,,43,001,1,21,550,550,2022_Nov_21_1408,Experiment,2021.1.4,360.1994063792055,
,,,,,,,,,,,,,,,,,,,,,,,,,,,,,,,,,,,,,,,,,,,,,14,Ashamed,rating,1.0,10.820914099998845,,,,,,,,,,,,,,,,,,,,,,,,,,,,,,,,,,,,,,,,,,,,,,,,,,,,,,,,,,,,,,,,,,,,,,,,,,,,,,,,,,,,,,,,,,,,,,,,,,,,,,,,,,,,,,,,,,,43,001,1,21,550,550,2022_Nov_21_1408,Experiment,2021.1.4,360.1994063792055,
,,,,,,,,,,,,,,,,,,,,,,,,,,,,,,,,,,,,,,,,,,,,,15,Inspired,rating,2.0,10.493218900001011,,,,,,,,,,,,,,,,,,,,,,,,,,,,,,,,,,,,,,,,,,,,,,,,,,,,,,,,,,,,,,,,,,,,,,,,,,,,,,,,,,,,,,,,,,,,,,,,,,,,,,,,,,,,,,,,,,,43,001,1,21,550,550,2022_Nov_21_1408,Experiment,2021.1.4,360.1994063792055,
,,,,,,,,,,,,,,,,,,,,,,,,,,,,,,,,,,,,,,,,,,,,,16,Nervous,rating,2.0,11.580213900000672,,,,,,,,,,,,,,,,,,,,,,,,,,,,,,,,,,,,,,,,,,,,,,,,,,,,,,,,,,,,,,,,,,,,,,,,,,,,,,,,,,,,,,,,,,,,,,,,,,,,,,,,,,,,,,,,,,,43,001,1,21,550,550,2022_Nov_21_1408,Experiment,2021.1.4,360.1994063792055,
,,,,,,,,,,,,,,,,,,,,,,,,,,,,,,,,,,,,,,,,,,,,,17,Determined,rating,2.0,9.08737839999958,,,,,,,,,,,,,,,,,,,,,,,,,,,,,,,,,,,,,,,,,,,,,,,,,,,,,,,,,,,,,,,,,,,,,,,,,,,,,,,,,,,,,,,,,,,,,,,,,,,,,,,,,,,,,,,,,,,43,001,1,21,550,550,2022_Nov_21_1408,Experiment,2021.1.4,360.1994063792055,
,,,,,,,,,,,,,,,,,,,,,,,,,,,,,,,,,,,,,,,,,,,,,18,Attentive,rating,3.0,8.683780499999557,,,,,,,,,,,,,,,,,,,,,,,,,,,,,,,,,,,,,,,,,,,,,,,,,,,,,,,,,,,,,,,,,,,,,,,,,,,,,,,,,,,,,,,,,,,,,,,,,,,,,,,,,,,,,,,,,,,43,001,1,21,550,550,2022_Nov_21_1408,Experiment,2021.1.4,360.1994063792055,
,,,,,,,,,,,,,,,,,,,,,,,,,,,,,,,,,,,,,,,,,,,,,19,Jittery,rating,1.0,16.63469559999976,,,,,,,,,,,,,,,,,,,,,,,,,,,,,,,,,,,,,,,,,,,,,,,,,,,,,,,,,,,,,,,,,,,,,,,,,,,,,,,,,,,,,,,,,,,,,,,,,,,,,,,,,,,,,,,,,,,43,001,1,21,550,550,2022_Nov_21_1408,Experiment,2021.1.4,360.1994063792055,
,,,,,,,,,,,,,,,,,,,,,,,,,,,,,,,,,,,,,,,,,,,,,20,Active,rating,1.0,18.085950700000467,,,,,,,,,,,,,,,,,,,,,,,,,,,,,,,,,,,,,,,,,,,,,,,,,,,,,,,,,,,,,,,,,,,,,,,,,,,,,,,,,,,,,,,,,,,,,,,,,,,,,,,,,,,,,,,,,,,43,001,1,21,550,550,2022_Nov_21_1408,Experiment,2021.1.4,360.1994063792055,
,,,,,,,,,,,,,,,,,,,,,,,,,,,,,,,,,,,,,,,,,,,,,21,Afraid,rating,1.0,17.95717870000044,,,,,,,,,,,,,,,,,,,,,,,,,,,,,,,,,,,,,,,,,,,,,,,,,,,,,,,,,,,,,,,,,,,,,,,,,,,,,,,,,,,,,,,,,,,,,,,,,,,,,,,,,,,,,,,,,,,43,001,1,21,550,550,2022_Nov_21_1408,Experiment,2021.1.4,360.1994063792055,
,,,,,,,,,,,,,,,,,,,,,,,,,,,,,,,,,,,,,,,,,,,,,22,Press the + button to submit your answers,description,,,,,,,,,,,,,,,,,,,,,,,,,,,,,,,,,,,,,,,,,,,,,,,,,,,,,,,,,,,,,,,,,,,,,,,,,,,,,,,,,,,,,,,,,,,,,,,,,,,,,,,,,,,,,,,,,,,,,43,001,1,21,550,550,2022_Nov_21_1408,Experiment,2021.1.4,360.1994063792055,
,,,,,,,,,,,,,,,,,,,,,,,,,,,,,,,,,,,,,,,,,,,,,,,,,,num_add,98.52490749999924,67.7074948999998,None,,,,,,,,,,,,,,,,,,,,,,,,,,,,,,,,,,,,,,,,,,,,,,,,,,,,,,,,,,,,,,,,,,,,,,,,,,,,,,,,,,,,,,,,,,,,,,,,,,,,,,,,,,,,,,,43,001,1,21,550,550,2022_Nov_21_1408,Experiment,2021.1.4,360.1994063792055,
,,,,,,,,,,,,,,,,,,,,,,,,,,,,,,,,,,,,,,,,,,,,,,,,,,,,,,166.252204299999,None,num_add,24.300150200000644,,,,,,,,,,,,,,,,,,,,,,,,,,,,,,,,,,,,,,,,,,,,,,,,,,,,,,,,,,,,,,,,,,,,,,,,,,,,,,,,,,,,,,,,,,,,,,,,,,,,,,,,,,,43,001,1,21,550,550,2022_Nov_21_1408,Experiment,2021.1.4,360.1994063792055,
,,,,,,,,,,,,,,,,,,,,,,,,,,,,,,,,,,,,,,,,,,,,,,,,,,,,,,,,,,190.56419749999986,None,num_add,12.812133999999787,190.56419749999986,None,,,,,,,,,,,,,,,,,,,,,,,,,,,,,,,,,,,,,,,,,,,,,,,,,,,,,,,,,,,,,,,,,,,,,,,,,,,,,,,,,,,,,,,,,,,,,,,,,,,,,43,001,1,21,550,550,2022_Nov_21_1408,Experiment,2021.1.4,360.1994063792055,
,,,,,,,,,,,,,,,,,,,,,,,,,,,,,,,,,,,,,,,,,,,,,,,,,,,,,,,,,,,,,,,,203.40191369999957,None,num_add,11.830563900000925,,,,,,,,,,,,,,,,,,,,,,,,,,,,,,,,,,,,,,,,,,,,,,,,,,,,,,,,,,,,,,,,,,,,,,,,,,,,,,,,,,,,,,,,,,,,,,,,,43,001,1,21,550,550,2022_Nov_21_1408,Experiment,2021.1.4,360.1994063792055,
,,,,,,,,,,,,,,,,,,,,,,,,,,,,,,,,,,,,,,,,,,,,,,,,,,,,,,,,,,,,,,,,,,,,215.23994559999846,None,space,85.45649860000049,,,,,,,,,,,,,,,,,,,,,,,,,,,,,,,,,,,,,,,,,,,,,,,,,,,,,,,,,,,,,,,,,,,,,,,,,,,,,,,,,,,,,,,,,,,,,43,001,1,21,550,550,2022_Nov_21_1408,Experiment,2021.1.4,360.1994063792055,
images\S22_M_H_02.png,images\S22_M_H_02_scrambled.png,22,Happy,-0.2,M,0,0,practice,off,1,0.5,0.75,0.5,0.883,3,,,,,,,,,,,0,0,0,2,,,,,,,,,,,,,,,,,,,,,,,,,,,,,,,,,,,,,,,,,,,300.87744479999856,301.3801543999998,301.3801543999998,302.1328193999998,302.1328193999998,302.63529649999873,302.63529649999873,303.521155299999,303.521155299999,None,num_6,0.41516930000034336,303.521155299999,None,,,,,,,,,,,,,,,,,,,,,,,,,,,,,,,,,,,,,,,,,,,,,,,,,,,,,,,,,,,,,,,,,,,,,,,,,,,,,,,43,001,1,21,550,550,2022_Nov_21_1408,Experiment,2021.1.4,360.1994063792055,
images\S22_M_S_01.png,images\S22_M_S_01_scrambled.png,22,Sad,0.1,M,0,0,practice,on,2,0.5,0.75,0.5,0.867,3,,,,,,,,,,,0,1,1,5,,,,,,,,,,,,,,,,,,,,,,,,,,,,,,,,,,,,,,,,,,,304.0320996999999,304.5347445999996,304.5347445999996,305.29005439999855,305.29005439999855,305.792702499999,305.792702499999,306.66186279999965,306.66186279999965,None,num_6,0.978575400000409,306.66186279999965,None,,,,,,,,,,,,,,,,,,,,,,,,,,,,,,,,,,,,,,,,,,,,,,,,,,,,,,,,,,,,,,,,,,,,,,,,,,,,,,,43,001,1,21,550,550,2022_Nov_21_1408,Experiment,2021.1.4,360.1994063792055,
images\S21_F_H_02.png,images\S21_F_H_02_scrambled.png,21,Happy,-0.2,F,0,0,practice,off,1,0.5,0.75,0.5,0.91,3,,,,,,,,,,,0,2,2,1,,,,,,,,,,,,,,,,,,,,,,,,,,,,,,,,,,,,,,,,,,,307.72818109999935,308.23082369999975,308.23082369999975,308.9835003999997,308.9835003999997,309.48886309999943,309.48886309999943,310.40239549999933,310.40239549999933,None,num_4,0.3019300999985717,310.40239549999933,None,,,,,,,,,,,,,,,,,,,,,,,,,,,,,,,,,,,,,,,,,,,,,,,,,,,,,,,,,,,,,,,,,,,,,,,,,,,,,,,43,001,1,21,550,550,2022_Nov_21_1408,Experiment,2021.1.4,360.1994063792055,
images\S22_M_S_02.png,images\S22_M_S_02_scrambled.png,22,Sad,0.2,M,0,0,practice,on,2,0.5,0.75,0.5,0.783,3,,,,,,,,,,,0,3,3,6,,,,,,,,,,,,,,,,,,,,,,,,,,,,,,,,,,,,,,,,,,,310.7939016,311.29934709999907,311.29934709999907,312.04908519999844,312.04908519999844,312.5545296,312.5545296,313.3403378999992,313.3403378999992,None,num_4,1.0200879000003624,313.3403378999992,None,,,,,,,,,,,,,,,,,,,,,,,,,,,,,,,,,,,,,,,,,,,,,,,,,,,,,,,,,,,,,,,,,,,,,,,,,,,,,,,43,001,1,21,550,550,2022_Nov_21_1408,Experiment,2021.1.4,360.1994063792055,
images\S22_M_S_03.png,images\S22_M_S_03_scrambled.png,22,Sad,0.3,M,0,0,practice,on,2,0.5,0.75,0.5,0.87,3,,,,,,,,,,,0,4,4,4,,,,,,,,,,,,,,,,,,,,,,,,,,,,,,,,,,,,,,,,,,,314.44555129999935,314.94818309999937,314.94818309999937,315.70075279999946,315.70075279999946,316.2061466999985,316.2061466999985,317.07530059999954,317.07530059999954,None,num_6,0.573176700001568,317.07530059999954,None,,,,,,,,,,,,,,,,,,,,,,,,,,,,,,,,,,,,,,,,,,,,,,,,,,,,,,,,,,,,,,,,,,,,,,,,,,,,,,,43,001,1,21,550,550,2022_Nov_21_1408,Experiment,2021.1.4,360.1994063792055,
images\S22_M_S_03.png,images\S22_M_S_03_scrambled.png,22,Sad,0.3,M,0,0,practice,on,2,0.5,0.75,0.5,0.794,3,,,,,,,,,,,0,5,5,7,,,,,,,,,,,,,,,,,,,,,,,,,,,,,,,,,,,,,,,,,,,317.7139953999995,318.21947159999945,318.21947159999945,318.971949499999,318.971949499999,319.47460989999854,319.47460989999854,320.2743301999999,320.2743301999999,None,num_6,1.1019405000006373,320.2743301999999,None,,,,,,,,,,,,,,,,,,,,,,,,,,,,,,,,,,,,,,,,,,,,,,,,,,,,,,,,,,,,,,,,,,,,,,,,,,,,,,,43,001,1,21,550,550,2022_Nov_21_1408,Experiment,2021.1.4,360.1994063792055,
images\S22_M_S_02.png,images\S22_M_S_02_scrambled.png,22,Sad,0.2,M,0,0,practice,off,1,0.5,0.75,0.5,0.751,3,,,,,,,,,,,0,6,6,3,,,,,,,,,,,,,,,,,,,,,,,,,,,,,,,,,,,,,,,,,,,321.4323050999992,321.9349242999997,321.9349242999997,322.68469529999857,322.68469529999857,323.19012979999934,323.19012979999934,323.9454403999989,323.9454403999989,None,num_4,1.166894300000422,323.9454403999989,None,,,,,,,,,,,,,,,,,,,,,,,,,,,,,,,,,,,,,,,,,,,,,,,,,,,,,,,,,,,,,,,,,,,,,,,,,,,,,,,43,001,1,21,550,550,2022_Nov_21_1408,Experiment,2021.1.4,360.1994063792055,
images\S21_F_H_01.png,images\S21_F_H_01_scrambled.png,21,Happy,-0.1,F,0,0,practice,off,1,0.5,0.75,0.5,0.853,3,,,,,,,,,,,0,7,7,0,,,,,,,,,,,,,,,,,,,,,,,,,,,,,,,,,,,,,,,,,,,325.2255486999984,325.72834150000017,325.72834150000017,326.47798449999937,326.47798449999937,326.9806241999995,326.9806241999995,327.84153329999936,327.84153329999936,None,num_4,0.4390285000008589,327.84153329999936,None,,,,,,,,,,,,,,,,,,,,,,,,,,,,,,,,,,,,,,,,,,,,,,,,,,,,,,,,,,,,,,,,,,,,,,,,,,,,,,,43,001,1,21,550,550,2022_Nov_21_1408,Experiment,2021.1.4,360.1994063792055,
,,,,,,,,,,,,,,,,,,,,,,,,,,,,,,,,,,,,,,,,,,,,,,,,,,,,,,,,,,,,,,,,,,,,,,,,,,,,,,,,,,,,,,328.33018169999923,None,space,28.814167099999395,,,,,,,,,,,,,,,,,,,,,,,,,,,,,,,,,,,,,,,,,,,,,,,,,,,,,,,,,,,,,,,,,,,,,,,,,,,43,001,1,21,550,550,2022_Nov_21_1408,Experiment,2021.1.4,360.1994063792055,
images\S8_M_H_02.png,images\S8_M_H_02_scrambled.png,8,happy,20,male,5,,224,on,2,0.5,0.75,0.5,0.765,3,223,1,1,1,2,2,32,128,165,,,,,,0,0,0,0,,,,,,,,,,,,,,,,,,,,,,,,,,,,,,,,,,,,,,,,,,,,,,,,,,,,,,,,,357.65172189999976,358.1543884999992,358.1543884999992,358.9041196999988,358.9041196999988,359.40955459999896,359.40955459999896,360.1815945999988,360.1815945999988,None,num_4,0.5626226999993378,360.1815945999988,None,happy,1,Happy,360.7591407,None,None,360.7591407,None,,,,,,,,,,,,,,,,,,,,,,,,,,,,,,,,,,,,,,,,,,,,,,,,,,,,,43,001,1,21,550,550,2022_Nov_21_1408,Experiment,2021.1.4,360.1994063792055,
images\S10_M_H_03.png,images\S10_M_H_03_scrambled.png,10,happy,30,male,6,,597,on,2,0.5,0.75,0.5,0.855,3,596,2,1,1,2,2,32,128,166,,,,,,0,1,1,1,,,,,,,,,,,,,,,,,,,,,,,,,,,,,,,,,,,,,,,,,,,,,,,,,,,,,,,,,360.8785054,361.38114679999853,361.38114679999853,362.1336983000001,362.1336983000001,362.6391722999997,362.6391722999997,363.4943635999989,363.4943635999989,None,num_4,0.08986740000000282,363.4943635999989,None,happy,1,Happy,363.6110886800005,None,None,363.6110886800005,None,,,,,,,,,,,,,,,,,,,,,,,,,,,,,,,,,,,,,,,,,,,,,,,,,,,,,43,001,1,21,550,550,2022_Nov_21_1408,Experiment,2021.1.4,360.1994063792055,
images\blank.jpg,images\blank.jpg,none,none,none,none,0,,622,on,2,0.5,0.75,0.5,0.763,0,621,3,1,1,3,3,48,192,240,,,,,,0,2,2,2,,,,,,,,,,,,,,,,,,,,,,,,,,,,,,,,,,,,,,,,,,,,,,,,,,,,,,,,,363.77254619999985,364.27475239999876,364.27475239999876,365.03004559999863,365.03004559999863,365.5326734999999,365.5326734999999,366.2964349999984,366.2964349999984,366.2964349999984,num_6,2.7919885000010254,366.2964349999984,None,sad,1,,369.0927231399986,None,None,369.0927231399986,None,,,,,,,,,,,,,,,,,,,,,,,,,,,,,,,,,,,,,,,,,,,,,,,,,,,,,43,001,1,21,550,550,2022_Nov_21_1408,Experiment,2021.1.4,360.1994063792055,
images\S10_M_H_02.png,images\S10_M_H_02_scrambled.png,10,happy,20,male,5,,236,on,2,0.5,0.75,0.5,0.858,3,235,4,1,1,2,2,32,128,165,,,,,,0,3,3,3,,,,,,,,,,,,,,,,,,,,,,,,,,,,,,,,,,,,,,,,,,,,,,,,,,,,,,,,,369.25667879999855,369.7563534000001,369.7563534000001,370.5089332999996,370.5089332999996,371.01434229999904,371.01434229999904,371.87516549999964,371.87516549999964,None,num_4,0.6452855000006821,371.87516549999964,None,happy,1,Happy,372.53886239999883,None,None,372.53886239999883,None,,,,,,,,,,,,,,,,,,,,,,,,,,,,,,,,,,,,,,,,,,,,,,,,,,,,,43,001,1,21,550,550,2022_Nov_21_1408,Experiment,2021.1.4,360.1994063792055,
images\S5_F_S_02.png,images\S5_F_S_02_scrambled.png,5,sad,-20,female,2,,509,off,1,0.5,0.75,0.5,0.841,3,508,1,1,1,0,0,0,0,2,,,,,,0,4,4,4,,,,,,,,,,,,,,,,,,,,,,,,,,,,,,,,,,,,,,,,,,,,,,,,,,,,,,,,,372.6193379999986,373.1247982999994,373.1247982999994,373.87732549999964,373.87732549999964,374.37995839999894,374.37995839999894,375.2241822999986,375.2241822999986,None,num_6,0.5041416000003665,375.2241822999986,None,sad,1,Sad,375.7546036599993,None,None,375.7546036599993,None,,,,,,,,,,,,,,,,,,,,,,,,,,,,,,,,,,,,,,,,,,,,,,,,,,,,,43,001,1,21,550,550,2022_Nov_21_1408,Experiment,2021.1.4,360.1994063792055,
images\S7_F_H_02.png,images\S7_F_H_02_scrambled.png,7,happy,20,female,5,,98,on,2,0.5,0.75,0.5,0.868,3,97,1,1,1,2,2,32,128,165,,,,,,0,5,5,5,,,,,,,,,,,,,,,,,,,,,,,,,,,,,,,,,,,,,,,,,,,,,,,,,,,,,,,,,375.86556459999883,376.3683422999984,376.3683422999984,377.12073449999843,377.12073449999843,377.6233650999984,377.6233650999984,378.4953403999989,378.4953403999989,None,num_4,0.7931154999987484,378.4953403999989,None,happy,1,Happy,379.30343608000004,None,None,379.30343608000004,None,,,,,,,,,,,,,,,,,,,,,,,,,,,,,,,,,,,,,,,,,,,,,,,,,,,,,43,001,1,21,550,550,2022_Nov_21_1408,Experiment,2021.1.4,360.1994063792055,
images\S5_F_S_02.png,images\S5_F_S_02_scrambled.png,5,sad,-20,female,2,,449,on,2,0.5,0.75,0.5,0.785,3,448,2,1,1,2,2,32,128,162,,,,,,0,6,6,6,,,,,,,,,,,,,,,,,,,,,,,,,,,,,,,,,,,,,,,,,,,,,,,,,,,,,,,,,379.3506112999985,379.8533821000001,379.8533821000001,380.60299659999873,380.60299659999873,381.1056204999986,381.1056204999986,381.8943331999999,381.8943331999999,None,num_6,0.4340510000001814,381.8943331999999,None,sad,1,Sad,382.3386183800001,None,None,382.3386183800001,None,,,,,,,,,,,,,,,,,,,,,,,,,,,,,,,,,,,,,,,,,,,,,,,,,,,,,43,001,1,21,550,550,2022_Nov_21_1408,Experiment,2021.1.4,360.1994063792055,
images\S8_M_S_01.png,images\S8_M_S_01_scrambled.png,8,sad,-10,male,3,,46,off,1,0.5,0.75,0.5,0.798,3,45,1,1,1,0,0,0,0,3,,,,,,0,7,7,7,,,,,,,,,,,,,,,,,,,,,,,,,,,,,,,,,,,,,,,,,,,,,,,,,,,,,,,,,382.42188989999886,382.9272940999999,382.9272940999999,383.67983509999976,383.67983509999976,384.1824585999984,384.1824585999984,384.9850235999984,384.9850235999984,None,num_6,0.9674853000014991,384.9850235999984,None,sad,1,Sad,385.96527578000024,None,None,385.96527578000024,None,,,,,,,,,,,,,,,,,,,,,,,,,,,,,,,,,,,,,,,,,,,,,,,,,,,,,43,001,1,21,550,550,2022_Nov_21_1408,Experiment,2021.1.4,360.1994063792055,
images\S5_F_S_03.png,images\S5_F_S_03_scrambled.png,5,sad,-30,female,1,,210,on,2,0.5,0.75,0.5,0.784,3,209,1,1,1,2,2,32,128,161,,,,,,0,8,8,8,,,,,,,,,,,,,,,,,,,,,,,,,,,,,,,,,,,,,,,,,,,,,,,,,,,,,,,,,386.0457676999995,386.54853939999884,386.54853939999884,387.30385709999973,387.30385709999973,387.8092117999986,387.8092117999986,388.59502879999854,388.59502879999854,None,num_6,0.5812666999991052,388.59502879999854,None,sad,1,Sad,389.1892853799989,None,None,389.1892853799989,None,,,,,,,,,,,,,,,,,,,,,,,,,,,,,,,,,,,,,,,,,,,,,,,,,,,,,43,001,1,21,550,550,2022_Nov_21_1408,Experiment,2021.1.4,360.1994063792055,
images\S2_M_S_02.png,images\S2_M_S_02_scrambled.png,2,sad,-20,male,2,,251,off,1,0.5,0.75,0.5,0.839,3,250,1,1,1,0,0,0,0,2,,,,,,0,9,9,9,,,,,,,,,,,,,,,,,,,,,,,,,,,,,,,,,,,,,,,,,,,,,,,,,,,,,,,,,389.28637869999875,389.7891528,389.7891528,390.54444709999916,390.54444709999916,391.0470201999997,391.0470201999997,391.88841969999885,391.88841969999885,None,num_6,0.5360082999995939,391.88841969999885,None,sad,1,Sad,392.44385039999906,None,None,392.44385039999906,None,,,,,,,,,,,,,,,,,,,,,,,,,,,,,,,,,,,,,,,,,,,,,,,,,,,,,43,001,1,21,550,550,2022_Nov_21_1408,Experiment,2021.1.4,360.1994063792055,
images\S9_F_S_02.png,images\S9_F_S_02_scrambled.png,9,sad,-20,female,2,,593,on,2,0.5,0.75,0.5,0.773,3,592,1,1,2,2,2,32,128,162,,,,,,0,10,10,10,,,,,,,,,,,,,,,,,,,,,,,,,,,,,,,,,,,,,,,,,,,,,,,,,,,,,,,,,392.5298937999996,393.0353194999989,393.0353194999989,393.78784730000007,393.78784730000007,394.28768949999903,394.28768949999903,395.0624889999999,395.0624889999999,None,num_6,0.817945899998449,395.0624889999999,None,sad,1,Sad,395.9095162600002,None,None,395.9095162600002,None,,,,,,,,,,,,,,,,,,,,,,,,,,,,,,,,,,,,,,,,,,,,,,,,,,,,,43,001,1,21,550,550,2022_Nov_21_1408,Experiment,2021.1.4,360.1994063792055,
images\S1_F_H_01.png,images\S1_F_H_01_scrambled.png,1,happy,10,female,4,,421,on,2,0.5,0.75,0.5,0.85,3,420,2,1,1,2,2,32,128,164,,,,,,0,11,11,11,,,,,,,,,,,,,,,,,,,,,,,,,,,,,,,,,,,,,,,,,,,,,,,,,,,,,,,,,396.02048920000016,396.5232347000001,396.5232347000001,397.27564679999887,397.27564679999887,397.78107119999913,397.78107119999913,398.6335842999997,398.6335842999997,None,num_4,0.5427156000005198,398.6335842999997,None,happy,1,Happy,399.1889884799992,None,None,399.1889884799992,None,,,,,,,,,,,,,,,,,,,,,,,,,,,,,,,,,,,,,,,,,,,,,,,,,,,,,43,001,1,21,550,550,2022_Nov_21_1408,Experiment,2021.1.4,360.1994063792055,
images\S6_M_H_01.png,images\S6_M_H_01_scrambled.png,6,happy,10,male,4,,511,off,1,0.5,0.75,0.5,0.861,3,510,1,1,2,0,0,0,0,4,,,,,,0,12,12,12,,,,,,,,,,,,,,,,,,,,,,,,,,,,,,,,,,,,,,,,,,,,,,,,,,,,,,,,,399.2750372999999,399.77781849999883,399.77781849999883,400.53304500000013,400.53304500000013,401.0356369000001,401.0356369000001,401.89928729999883,401.89928729999883,None,num_4,0.40499350000027334,401.89928729999883,None,happy,1,Happy,402.31858127999914,None,None,402.31858127999914,None,,,,,,,,,,,,,,,,,,,,,,,,,,,,,,,,,,,,,,,,,,,,,,,,,,,,,43,001,1,21,550,550,2022_Nov_21_1408,Experiment,2021.1.4,360.1994063792055,
images\blank.jpg,images\blank.jpg,none,none,none,none,0,,608,on,2,0.5,0.75,0.5,0.944,0,607,1,1,1,3,3,48,192,240,,,,,,0,13,13,13,,,,,,,,,,,,,,,,,,,,,,,,,,,,,,,,,,,,,,,,,,,,,,,,,,,,,,,,,402.40213699999913,402.90447719999975,402.90447719999975,403.6542449999997,403.6542449999997,404.1569275999991,404.1569275999991,405.10381889999917,405.10381889999917,405.10381889999917,num_4,2.2007061000003887,405.10381889999917,None,happy,1,,407.31154893999917,None,None,407.31154893999917,None,,,,,,,,,,,,,,,,,,,,,,,,,,,,,,,,,,,,,,,,,,,,,,,,,,,,,43,001,1,21,550,550,2022_Nov_21_1408,Experiment,2021.1.4,360.1994063792055,
images\S7_F_H_02.png,images\S7_F_H_02_scrambled.png,7,happy,20,female,5,,458,on,2,0.5,0.75,0.5,0.846,3,457,2,1,1,2,2,32,128,165,,,,,,0,14,14,14,,,,,,,,,,,,,,,,,,,,,,,,,,,,,,,,,,,,,,,,,,,,,,,,,,,,,,,,,407.4367122999993,407.9418311999998,407.9418311999998,408.6944132999997,408.6944132999997,409.1998047999987,409.1998047999987,410.04956539999876,410.04956539999876,None,num_4,0.40681559999939054,410.04956539999876,None,happy,1,Happy,410.4716317800001,None,None,410.4716317800001,None,,,,,,,,,,,,,,,,,,,,,,,,,,,,,,,,,,,,,,,,,,,,,,,,,,,,,43,001,1,21,550,550,2022_Nov_21_1408,Experiment,2021.1.4,360.1994063792055,
images\S3_F_H_01.png,images\S3_F_H_01_scrambled.png,3,happy,10,female,4,,553,on,2,0.5,0.75,0.5,0.78,3,552,3,1,1,2,2,32,128,164,,,,,,0,15,15,15,,,,,,,,,,,,,,,,,,,,,,,,,,,,,,,,,,,,,,,,,,,,,,,,,,,,,,,,,410.5549156999987,411.06033260000004,411.06033260000004,411.81288959999983,411.81288959999983,412.31550629999947,412.31550629999947,413.0987107000001,413.0987107000001,None,num_4,0.30180880000079924,413.0987107000001,None,happy,1,Happy,413.41517387999994,None,None,413.41517387999994,None,,,,,,,,,,,,,,,,,,,,,,,,,,,,,,,,,,,,,,,,,,,,,,,,,,,,,43,001,1,21,550,550,2022_Nov_21_1408,Experiment,2021.1.4,360.1994063792055,
images\S6_M_S_01.png,images\S6_M_S_01_scrambled.png,6,sad,-10,male,3,,274,off,1,0.5,0.75,0.5,0.925,3,273,1,1,1,0,0,0,0,3,,,,,,0,16,16,16,,,,,,,,,,,,,,,,,,,,,,,,,,,,,,,,,,,,,,,,,,,,,,,,,,,,,,,,,413.50122289999854,414.00663429999986,414.00663429999986,414.7592862999991,414.7592862999991,415.2646144999999,415.2646144999999,416.1948758999988,416.1948758999988,None,num_4,0.45346260000042093,416.1948758999988,None,happy,1,Sad,416.6614377599995,None,None,416.6614377599995,None,,,,,,,,,,,,,,,,,,,,,,,,,,,,,,,,,,,,,,,,,,,,,,,,,,,,,43,001,1,21,550,550,2022_Nov_21_1408,Experiment,2021.1.4,360.1994063792055,
images\S2_M_H_01.png,images\S2_M_H_01_scrambled.png,2,happy,10,male,4,,367,off,1,0.5,0.75,0.5,0.882,3,366,2,1,1,0,0,0,0,4,,,,,,0,17,17,17,,,,,,,,,,,,,,,,,,,,,,,,,,,,,,,,,,,,,,,,,,,,,,,,,,,,,,,,,416.7752055000001,417.2750624,417.2750624,418.0276442999984,418.0276442999984,418.53026249999857,418.53026249999857,419.4189465999989,419.4189465999989,None,num_4,0.4133381999999983,419.4189465999989,None,happy,1,Happy,419.84375248,None,None,419.84375248,None,,,,,,,,,,,,,,,,,,,,,,,,,,,,,,,,,,,,,,,,,,,,,,,,,,,,,43,001,1,21,550,550,2022_Nov_21_1408,Experiment,2021.1.4,360.1994063792055,
images\S9_F_H_02.png,images\S9_F_H_02_scrambled.png,9,happy,20,female,5,,290,off,1,0.5,0.75,0.5,0.83,3,289,3,1,1,0,0,0,0,5,,,,,,0,18,18,18,,,,,,,,,,,,,,,,,,,,,,,,,,,,,,,,,,,,,,,,,,,,,,,,,,,,,,,,,419.9270239999987,420.4296459999987,420.4296459999987,421.17941470000005,421.17941470000005,421.6848569999984,421.6848569999984,422.5207037,422.5207037,None,num_4,0.2557078999998339,422.5207037,None,happy,1,Happy,422.7985893400004,None,None,422.7985893400004,None,,,,,,,,,,,,,,,,,,,,,,,,,,,,,,,,,,,,,,,,,,,,,,,,,,,,,43,001,1,21,550,550,2022_Nov_21_1408,Experiment,2021.1.4,360.1994063792055,
images\S2_M_H_03.png,images\S2_M_H_03_scrambled.png,2,happy,30,male,6,,69,on,2,0.5,0.75,0.5,0.846,3,68,1,1,1,2,2,32,128,166,,,,,,0,19,19,19,,,,,,,,,,,,,,,,,,,,,,,,,,,,,,,,,,,,,,,,,,,,,,,,,,,,,,,,,422.90943629999856,423.4092824999989,423.4092824999989,424.1646492999989,424.1646492999989,424.6700482999986,424.6700482999986,425.51975219999986,425.51975219999986,None,num_4,0.3847881999990932,425.51975219999986,None,happy,1,Happy,425.9168868799996,None,None,425.9168868799996,None,,,,,,,,,,,,,,,,,,,,,,,,,,,,,,,,,,,,,,,,,,,,,,,,,,,,,43,001,1,21,550,550,2022_Nov_21_1408,Experiment,2021.1.4,360.1994063792055,
images\S7_F_H_03.png,images\S7_F_H_03_scrambled.png,7,happy,30,female,6,,579,on,2,0.5,0.75,0.5,0.814,3,578,2,1,2,2,2,32,128,166,,,,,,0,20,20,20,,,,,,,,,,,,,,,,,,,,,,,,,,,,,,,,,,,,,,,,,,,,,,,,,,,,,,,,,426.0029362999994,426.5055868999989,426.5055868999989,427.2582545999994,427.2582545999994,427.76074509999853,427.76074509999853,428.57995929999925,428.57995929999925,None,num_4,0.388388200000918,428.57995929999925,None,happy,1,Happy,428.97989597999987,None,None,428.97989597999987,None,,,,,,,,,,,,,,,,,,,,,,,,,,,,,,,,,,,,,,,,,,,,,,,,,,,,,43,001,1,21,550,550,2022_Nov_21_1408,Experiment,2021.1.4,360.1994063792055,
images\S7_F_H_01.png,images\S7_F_H_01_scrambled.png,7,happy,10,female,4,,517,off,1,0.5,0.75,0.5,0.846,3,516,1,2,1,0,0,0,0,4,,,,,,0,21,21,21,,,,,,,,,,,,,,,,,,,,,,,,,,,,,,,,,,,,,,,,,,,,,,,,,,,,,,,,,429.06587020000006,429.5712792999984,429.5712792999984,430.32106190000013,430.32106190000013,430.82089300000007,430.82089300000007,431.6706314999992,431.6706314999992,None,num_6,0.5696879999995872,431.6706314999992,None,sad,1,Happy,432.24556793999943,None,None,432.24556793999943,None,,,,,,,,,,,,,,,,,,,,,,,,,,,,,,,,,,,,,,,,,,,,,,,,,,,,,43,001,1,21,550,550,2022_Nov_21_1408,Experiment,2021.1.4,360.1994063792055,
images\S2_M_S_03.png,images\S2_M_S_03_scrambled.png,2,sad,-30,male,1,,192,on,2,0.5,0.75,0.5,0.843,3,191,1,1,1,2,2,32,128,161,,,,,,0,22,22,22,,,,,,,,,,,,,,,,,,,,,,,,,,,,,,,,,,,,,,,,,,,,,,,,,,,,,,,,,432.3593062,432.8591858,432.8591858,433.61171939999986,433.61171939999986,434.1143740999996,434.1143740999996,434.96415929999966,434.96415929999966,None,num_6,0.4042725999988761,434.96415929999966,None,sad,1,Sad,435.3946076600001,None,None,435.3946076600001,None,,,,,,,,,,,,,,,,,,,,,,,,,,,,,,,,,,,,,,,,,,,,,,,,,,,,,43,001,1,21,550,550,2022_Nov_21_1408,Experiment,2021.1.4,360.1994063792055,
images\S6_M_S_02.png,images\S6_M_S_02_scrambled.png,6,sad,-20,male,2,,35,off,1,0.5,0.75,0.5,0.914,3,34,1,1,1,0,0,0,0,2,,,,,,0,23,23,23,,,,,,,,,,,,,,,,,,,,,,,,,,,,,,,,,,,,,,,,,,,,,,,,,,,,,,,,,435.5000592999986,436.00544549999904,436.00544549999904,436.76075799999853,436.76075799999853,437.2633578999994,437.2633578999994,438.17974329999925,438.17974329999925,None,num_6,0.46052009999948496,438.17974329999925,None,sad,1,Sad,438.66856737999916,None,None,438.66856737999916,None,,,,,,,,,,,,,,,,,,,,,,,,,,,,,,,,,,,,,,,,,,,,,,,,,,,,,43,001,1,21,550,550,2022_Nov_21_1408,Experiment,2021.1.4,360.1994063792055,
images\S9_F_H_03.png,images\S9_F_H_03_scrambled.png,9,happy,30,female,6,,471,on,2,0.5,0.75,0.5,0.923,3,470,1,1,1,2,2,32,128,166,,,,,,0,24,24,24,,,,,,,,,,,,,,,,,,,,,,,,,,,,,,,,,,,,,,,,,,,,,,,,,,,,,,,,,438.77957139999853,439.28498559999935,439.28498559999935,440.0375277999992,440.0375277999992,440.54016859999865,440.54016859999865,441.467666999999,441.467666999999,None,num_4,0.34095109999907436,441.467666999999,None,happy,1,Happy,441.8344224600001,None,None,441.8344224600001,None,,,,,,,,,,,,,,,,,,,,,,,,,,,,,,,,,,,,,,,,,,,,,,,,,,,,,43,001,1,21,550,550,2022_Nov_21_1408,Experiment,2021.1.4,360.1994063792055,
images\S1_F_H_02.png,images\S1_F_H_02_scrambled.png,1,happy,20,female,5,,122,off,1,0.5,0.75,0.5,0.751,3,121,1,1,1,0,0,0,0,5,,,,,,0,25,25,25,,,,,,,,,,,,,,,,,,,,,,,,,,,,,,,,,,,,,,,,,,,,,,,,,,,,,,,,,441.9452473000001,442.4479104999991,442.4479104999991,443.2033348999994,443.2033348999994,443.7058464999991,443.7058464999991,444.4640223999995,444.4640223999995,None,num_4,0.7762738999990688,444.4640223999995,None,happy,1,Happy,445.2553811799997,None,None,445.2553811799997,None,,,,,,,,,,,,,,,,,,,,,,,,,,,,,,,,,,,,,,,,,,,,,,,,,,,,,43,001,1,21,550,550,2022_Nov_21_1408,Experiment,2021.1.4,360.1994063792055,
images\S5_F_S_02.png,images\S5_F_S_02_scrambled.png,5,sad,-20,female,2,,209,on,2,0.5,0.75,0.5,0.779,3,208,1,1,1,2,2,32,128,162,,,,,,0,26,26,26,,,,,,,,,,,,,,,,,,,,,,,,,,,,,,,,,,,,,,,,,,,,,,,,,,,,,,,,,445.3025614999988,445.8051755999986,445.8051755999986,446.56053129999964,446.56053129999964,447.0603794999988,447.0603794999988,447.8435669999999,447.8435669999999,None,num_4,0.036770400000023074,447.8435669999999,None,happy,1,Sad,447.88515183999914,None,None,447.88515183999914,None,,,,,,,,,,,,,,,,,,,,,,,,,,,,,,,,,,,,,,,,,,,,,,,,,,,,,43,001,1,21,550,550,2022_Nov_21_1408,Experiment,2021.1.4,360.1994063792055,
images\S5_F_H_01.png,images\S5_F_H_01_scrambled.png,5,happy,10,female,4,,325,on,2,0.5,0.75,0.5,0.897,3,324,2,2,1,2,2,32,128,164,,,,,,0,27,27,27,,,,,,,,,,,,,,,,,,,,,,,,,,,,,,,,,,,,,,,,,,,,,,,,,,,,,,,,,447.99616669999887,448.49881469999855,448.49881469999855,449.2542197999992,449.2542197999992,449.7595627999999,449.7595627999999,450.6592854999999,450.6592854999999,None,num_4,0.3250003999983164,450.6592854999999,None,happy,1,Happy,451.0008691999992,None,None,451.0008691999992,None,,,,,,,,,,,,,,,,,,,,,,,,,,,,,,,,,,,,,,,,,,,,,,,,,,,,,43,001,1,21,550,550,2022_Nov_21_1408,Experiment,2021.1.4,360.1994063792055,
images\S2_M_S_03.png,images\S2_M_S_03_scrambled.png,2,sad,-30,male,1,,312,on,2,0.5,0.75,0.5,0.95,3,311,3,1,1,2,2,32,128,161,,,,,,0,28,28,28,,,,,,,,,,,,,,,,,,,,,,,,,,,,,,,,,,,,,,,,,,,,,,,,,,,,,,,,,451.0480054999989,451.5506646999984,451.5506646999984,452.3033310999999,452.3033310999999,452.8030596999997,452.8030596999997,453.755513099999,453.755513099999,None,num_6,0.3568799000004219,453.755513099999,None,sad,1,Sad,454.1276499799995,None,None,454.1276499799995,None,,,,,,,,,,,,,,,,,,,,,,,,,,,,,,,,,,,,,,,,,,,,,,,,,,,,,43,001,1,21,550,550,2022_Nov_21_1408,Experiment,2021.1.4,360.1994063792055,
images\S2_M_H_03.png,images\S2_M_H_03_scrambled.png,2,happy,30,male,6,,489,off,1,0.5,0.75,0.5,0.789,3,488,1,2,1,0,0,0,0,6,,,,,,0,29,29,29,,,,,,,,,,,,,,,,,,,,,,,,,,,,,,,,,,,,,,,,,,,,,,,,,,,,,,,,,454.17483879999963,454.6774700999995,454.6774700999995,455.4300384999988,455.4300384999988,455.93542819999857,455.93542819999857,456.72964259999935,456.72964259999935,None,num_4,0.3827971999999136,456.72964259999935,None,happy,1,Happy,457.13800133999973,None,None,457.13800133999973,None,,,,,,,,,,,,,,,,,,,,,,,,,,,,,,,,,,,,,,,,,,,,,,,,,,,,,43,001,1,21,550,550,2022_Nov_21_1408,Experiment,2021.1.4,360.1994063792055,
images\S9_F_H_03.png,images\S9_F_H_03_scrambled.png,9,happy,30,female,6,,531,off,1,0.5,0.75,0.5,0.868,3,530,2,1,2,0,0,0,0,6,,,,,,0,30,30,30,,,,,,,,,,,,,,,,,,,,,,,,,,,,,,,,,,,,,,,,,,,,,,,,,,,,,,,,,457.2016790999987,457.7043423999985,457.7043423999985,458.4596610999997,458.4596610999997,458.96506469999986,458.96506469999986,459.839799899999,459.839799899999,None,num_4,0.4405271999985416,459.839799899999,None,happy,1,Happy,460.3036115200004,None,None,460.3036115200004,None,,,,,,,,,,,,,,,,,,,,,,,,,,,,,,,,,,,,,,,,,,,,,,,,,,,,,43,001,1,21,550,550,2022_Nov_21_1408,Experiment,2021.1.4,360.1994063792055,
images\S3_F_H_03.png,images\S3_F_H_03_scrambled.png,3,happy,30,female,6,,315,on,2,0.5,0.75,0.5,0.752,3,314,1,1,3,2,2,32,128,166,,,,,,0,31,31,31,,,,,,,,,,,,,,,,,,,,,,,,,,,,,,,,,,,,,,,,,,,,,,,,,,,,,,,,,460.41179399999965,460.9172191999987,460.9172191999987,461.66979439999886,461.66979439999886,462.1751912999989,462.1751912999989,462.93046999999933,462.93046999999933,None,num_4,0.35789999999906286,462.93046999999933,None,happy,1,Happy,463.3138415600002,None,None,463.3138415600002,None,,,,,,,,,,,,,,,,,,,,,,,,,,,,,,,,,,,,,,,,,,,,,,,,,,,,,43,001,1,21,550,550,2022_Nov_21_1408,Experiment,2021.1.4,360.1994063792055,
images\S10_M_H_01.png,images\S10_M_H_01_scrambled.png,10,happy,10,male,4,,115,on,2,0.5,0.75,0.5,0.927,3,114,2,1,1,2,2,32,128,164,,,,,,0,32,32,32,,,,,,,,,,,,,,,,,,,,,,,,,,,,,,,,,,,,,,,,,,,,,,,,,,,,,,,,,463.4192110999993,463.9218499999988,463.9218499999988,464.6744205999985,464.6744205999985,465.17981619999955,465.17981619999955,466.11009289999856,466.11009289999856,None,num_4,0.3462634000006801,466.11009289999856,None,happy,1,Happy,466.4795005600004,None,None,466.4795005600004,None,,,,,,,,,,,,,,,,,,,,,,,,,,,,,,,,,,,,,,,,,,,,,,,,,,,,,43,001,1,21,550,550,2022_Nov_21_1408,Experiment,2021.1.4,360.1994063792055,
images\S3_F_H_03.png,images\S3_F_H_03_scrambled.png,3,happy,30,female,6,,15,off,1,0.5,0.75,0.5,0.829,3,14,1,1,1,0,0,0,0,6,,,,,,0,33,33,33,,,,,,,,,,,,,,,,,,,,,,,,,,,,,,,,,,,,,,,,,,,,,,,,,,,,,,,,,466.54324409999936,467.0458819999985,467.0458819999985,467.79841899999883,467.79841899999883,468.30396239999936,468.30396239999936,469.1397161999994,469.1397161999994,None,num_4,0.3406531000000541,469.1397161999994,None,happy,1,Happy,469.50363933999904,None,None,469.50363933999904,None,,,,,,,,,,,,,,,,,,,,,,,,,,,,,,,,,,,,,,,,,,,,,,,,,,,,,43,001,1,21,550,550,2022_Nov_21_1408,Experiment,2021.1.4,360.1994063792055,
images\blank.jpg,images\blank.jpg,none,none,none,none,0,,635,on,2,0.5,0.75,0.5,0.766,0,634,1,1,1,3,3,48,192,240,,,,,,0,34,34,34,,,,,,,,,,,,,,,,,,,,,,,,,,,,,,,,,,,,,,,,,,,,,,,,,,,,,,,,,469.5870181999999,470.0866292999999,470.0866292999999,470.8363713999988,470.8363713999988,471.3390963999991,471.3390963999991,472.1109994999988,472.1109994999988,472.1109994999988,num_4,1.6414067000005161,472.1109994999988,None,happy,1,,473.760558639999,None,None,473.760558639999,None,,,,,,,,,,,,,,,,,,,,,,,,,,,,,,,,,,,,,,,,,,,,,,,,,,,,,43,001,1,21,550,550,2022_Nov_21_1408,Experiment,2021.1.4,360.1994063792055,
images\S2_M_S_02.png,images\S2_M_S_02_scrambled.png,2,sad,-20,male,2,,191,on,2,0.5,0.75,0.5,0.831,3,190,2,1,1,2,2,32,128,162,,,,,,0,35,35,35,,,,,,,,,,,,,,,,,,,,,,,,,,,,,,,,,,,,,,,,,,,,,,,,,,,,,,,,,473.88562009999987,474.38528210000004,474.38528210000004,475.1350547999991,475.1350547999991,475.6377192,475.6377192,476.4736069999999,476.4736069999999,None,num_6,0.5666808999994828,476.4736069999999,None,sad,1,Sad,477.05671587999933,None,None,477.05671587999933,None,,,,,,,,,,,,,,,,,,,,,,,,,,,,,,,,,,,,,,,,,,,,,,,,,,,,,43,001,1,21,550,550,2022_Nov_21_1408,Experiment,2021.1.4,360.1994063792055,
images\S5_F_S_01.png,images\S5_F_S_01_scrambled.png,5,sad,-10,female,3,,88,on,2,0.5,0.75,0.5,0.859,3,87,3,1,1,2,2,32,128,163,,,,,,0,36,36,36,,,,,,,,,,,,,,,,,,,,,,,,,,,,,,,,,,,,,,,,,,,,,,,,,,,,,,,,,477.13999389999844,477.639837499999,477.639837499999,478.3896191999993,478.3896191999993,478.8950479999985,478.8950479999985,479.75876699999935,479.75876699999935,None,num_4,0.7375092000002041,479.75876699999935,None,happy,1,Sad,480.505644539999,None,None,480.505644539999,None,,,,,,,,,,,,,,,,,,,,,,,,,,,,,,,,,,,,,,,,,,,,,,,,,,,,,43,001,1,21,550,550,2022_Nov_21_1408,Experiment,2021.1.4,360.1994063792055,
images\S4_M_H_01.png,images\S4_M_H_01_scrambled.png,4,happy,10,male,4,,319,on,2,0.5,0.75,0.5,0.788,3,318,4,1,1,2,2,32,128,164,,,,,,0,37,37,37,,,,,,,,,,,,,,,,,,,,,,,,,,,,,,,,,,,,,,,,,,,,,,,,,,,,,,,,,480.58893979999993,481.0943890999988,481.0943890999988,481.8441351999991,481.8441351999991,482.3495563999986,482.3495563999986,483.1381498999999,483.1381498999999,None,num_6,0.7901849999998376,483.1381498999999,None,sad,1,Happy,483.9351449399986,None,None,483.9351449399986,None,,,,,,,,,,,,,,,,,,,,,,,,,,,,,,,,,,,,,,,,,,,,,,,,,,,,,43,001,1,21,550,550,2022_Nov_21_1408,Experiment,2021.1.4,360.1994063792055,
images\S9_F_H_01.png,images\S9_F_H_01_scrambled.png,9,happy,10,female,4,,589,on,2,0.5,0.75,0.5,0.833,3,588,5,1,2,2,2,32,128,164,,,,,,0,38,38,38,,,,,,,,,,,,,,,,,,,,,,,,,,,,,,,,,,,,,,,,,,,,,,,,,,,,,,,,,484.0184387999998,484.52108059999955,484.52108059999955,485.2737225000001,485.2737225000001,485.7734806999997,485.7734806999997,486.6093643999993,486.6093643999993,None,num_4,0.6710049000012077,486.6093643999993,None,happy,1,Happy,487.2924621800001,None,None,487.2924621800001,None,,,,,,,,,,,,,,,,,,,,,,,,,,,,,,,,,,,,,,,,,,,,,,,,,,,,,43,001,1,21,550,550,2022_Nov_21_1408,Experiment,2021.1.4,360.1994063792055,
images\S3_F_S_03.png,images\S3_F_S_03_scrambled.png,3,sad,-30,female,1,,498,off,1,0.5,0.75,0.5,0.798,3,497,1,1,1,0,0,0,0,1,,,,,,0,39,39,39,,,,,,,,,,,,,,,,,,,,,,,,,,,,,,,,,,,,,,,,,,,,,,,,,,,,,,,,,487.37573729999895,487.8783545999995,487.8783545999995,488.630924699999,488.630924699999,489.1336515999992,489.1336515999992,489.9389706999991,489.9389706999991,None,num_6,0.4453643999986525,489.9389706999991,None,sad,1,Sad,490.3970857000004,None,None,490.3970857000004,None,,,,,,,,,,,,,,,,,,,,,,,,,,,,,,,,,,,,,,,,,,,,,,,,,,,,,43,001,1,21,550,550,2022_Nov_21_1408,Experiment,2021.1.4,360.1994063792055,
images\blank.jpg,images\blank.jpg,none,none,none,none,0,,648,on,2,0.5,0.75,0.5,0.773,0,647,1,1,1,3,3,48,192,240,,,,,,0,40,40,40,,,,,,,,,,,,,,,,,,,,,,,,,,,,,,,,,,,,,,,,,,,,,,,,,,,,,,,,,490.48059959999955,490.9829596999989,490.9829596999989,491.7355377999993,491.7355377999993,492.2382684999993,492.2382684999993,493.0129218999991,493.0129218999991,493.0129218999991,num_6,2.1396045000001322,493.0129218999991,None,sad,1,,495.1622597399986,None,None,495.1622597399986,None,,,,,,,,,,,,,,,,,,,,,,,,,,,,,,,,,,,,,,,,,,,,,,,,,,,,,43,001,1,21,550,550,2022_Nov_21_1408,Experiment,2021.1.4,360.1994063792055,
images\S7_F_H_01.png,images\S7_F_H_01_scrambled.png,7,happy,10,female,4,,37,off,1,0.5,0.75,0.5,0.851,3,36,1,1,1,0,0,0,0,4,,,,,,0,41,41,41,,,,,,,,,,,,,,,,,,,,,,,,,,,,,,,,,,,,,,,,,,,,,,,,,,,,,,,,,495.2791511999985,495.7843076999998,495.7843076999998,496.534029299999,496.534029299999,497.0394768999995,497.0394768999995,497.89476339999965,497.89476339999965,None,num_6,0.3374402999997983,497.89476339999965,None,sad,1,Happy,498.24186613999916,None,None,498.24186613999916,None,,,,,,,,,,,,,,,,,,,,,,,,,,,,,,,,,,,,,,,,,,,,,,,,,,,,,43,001,1,21,550,550,2022_Nov_21_1408,Experiment,2021.1.4,360.1994063792055,
images\S6_M_S_02.png,images\S6_M_S_02_scrambled.png,6,sad,-20,male,2,,95,on,2,0.5,0.75,0.5,0.765,3,94,1,1,1,2,2,32,128,162,,,,,,0,42,42,42,,,,,,,,,,,,,,,,,,,,,,,,,,,,,,,,,,,,,,,,,,,,,,,,,,,,,,,,,498.2918804000001,498.79450319999887,498.79450319999887,499.54977119999967,499.54977119999967,500.0551981999997,500.0551981999997,500.8244365999999,500.8244365999999,None,num_6,0.4158964999987802,500.8244365999999,None,sad,1,Sad,501.2548491999987,None,None,501.2548491999987,None,,,,,,,,,,,,,,,,,,,,,,,,,,,,,,,,,,,,,,,,,,,,,,,,,,,,,43,001,1,21,550,550,2022_Nov_21_1408,Experiment,2021.1.4,360.1994063792055,
images\S6_M_H_03.png,images\S6_M_H_03_scrambled.png,6,happy,30,male,6,,33,off,1,0.5,0.75,0.5,0.788,3,32,1,2,1,0,0,0,0,6,,,,,,0,43,43,43,,,,,,,,,,,,,,,,,,,,,,,,,,,,,,,,,,,,,,,,,,,,,,,,,,,,,,,,,501.3353408999992,501.84076129999994,501.84076129999994,502.5960839999989,502.5960839999989,503.0987755999995,503.0987755999995,503.89013129999876,503.89013129999876,None,num_4,0.45427489999929094,503.89013129999876,None,happy,1,Happy,504.3594414799998,None,None,504.3594414799998,None,,,,,,,,,,,,,,,,,,,,,,,,,,,,,,,,,,,,,,,,,,,,,,,,,,,,,43,001,1,21,550,550,2022_Nov_21_1408,Experiment,2021.1.4,360.1994063792055,
images\S9_F_S_02.png,images\S9_F_S_02_scrambled.png,9,sad,-20,female,2,,53,off,1,0.5,0.75,0.5,0.871,3,52,2,1,1,0,0,0,0,2,,,,,,0,44,44,44,,,,,,,,,,,,,,,,,,,,,,,,,,,,,,,,,,,,,,,,,,,,,,,,,,,,,,,,,504.406612499999,504.9092434999984,504.9092434999984,505.6590295999995,505.6590295999995,506.1588499999998,506.1588499999998,507.03370059999907,507.03370059999907,None,num_6,0.3987352000003739,507.03370059999907,None,sad,1,Sad,507.44738037999997,None,None,507.44738037999997,None,,,,,,,,,,,,,,,,,,,,,,,,,,,,,,,,,,,,,,,,,,,,,,,,,,,,,43,001,1,21,550,550,2022_Nov_21_1408,Experiment,2021.1.4,360.1994063792055,
images\S7_F_H_02.png,images\S7_F_H_02_scrambled.png,7,happy,20,female,5,,518,off,1,0.5,0.75,0.5,0.906,3,517,3,1,1,0,0,0,0,5,,,,,,0,45,45,45,,,,,,,,,,,,,,,,,,,,,,,,,,,,,,,,,,,,,,,,,,,,,,,,,,,,,,,,,507.4945595999998,507.9971833999989,507.9971833999989,508.7497610999999,508.7497610999999,509.2551628000001,509.2551628000001,510.163284799999,510.163284799999,None,num_4,0.39702110000143875,510.163284799999,None,happy,1,Happy,510.5714632799998,None,None,510.5714632799998,None,,,,,,,,,,,,,,,,,,,,,,,,,,,,,,,,,,,,,,,,,,,,,,,,,,,,,43,001,1,21,550,550,2022_Nov_21_1408,Experiment,2021.1.4,360.1994063792055,
images\S6_M_S_01.png,images\S6_M_S_01_scrambled.png,6,sad,-10,male,3,,514,off,1,0.5,0.75,0.5,0.803,3,513,4,1,1,0,0,0,0,3,,,,,,0,46,46,46,,,,,,,,,,,,,,,,,,,,,,,,,,,,,,,,,,,,,,,,,,,,,,,,,,,,,,,,,510.62137129999974,511.1240027999993,511.1240027999993,511.8793687999987,511.8793687999987,512.381996099999,512.381996099999,513.1900663999986,513.1900663999986,None,num_6,1.250366700000086,513.1900663999986,None,sad,1,Sad,514.4507974799989,None,None,514.4507974799989,None,,,,,,,,,,,,,,,,,,,,,,,,,,,,,,,,,,,,,,,,,,,,,,,,,,,,,43,001,1,21,550,550,2022_Nov_21_1408,Experiment,2021.1.4,360.1994063792055,
images\blank.jpg,images\blank.jpg,none,none,none,none,0,,623,on,2,0.5,0.75,0.5,0.822,0,622,1,1,1,3,3,48,192,240,,,,,,0,47,47,47,,,,,,,,,,,,,,,,,,,,,,,,,,,,,,,,,,,,,,,,,,,,,,,,,,,,,,,,,514.5343006999992,515.0366834999986,515.0366834999986,515.7920063000001,515.7920063000001,516.2946531999987,516.2946531999987,517.116704099999,517.116704099999,517.116704099999,num_6,2.5956733000002714,517.116704099999,None,sad,1,,519.718642639999,None,None,519.718642639999,None,,,,,,,,,,,,,,,,,,,,,,,,,,,,,,,,,,,,,,,,,,,,,,,,,,,,,43,001,1,21,550,550,2022_Nov_21_1408,Experiment,2021.1.4,360.1994063792055,
images\S9_F_S_01.png,images\S9_F_S_01_scrambled.png,9,sad,-10,female,3,,592,on,2,0.5,0.75,0.5,0.804,3,591,2,1,1,2,2,32,128,163,,,,,,0,48,48,48,,,,,,,,,,,,,,,,,,,,,,,,,,,,,,,,,,,,,,,,,,,,,,,,,,,,,,,,,519.882489399999,520.3822682999999,520.3822682999999,521.1348466999989,521.1348466999989,521.6402410999999,521.6402410999999,522.4482860999997,522.4482860999997,None,num_4,0.4962919999998121,522.4482860999997,None,happy,1,Sad,522.9509316400004,None,None,522.9509316400004,None,,,,,,,,,,,,,,,,,,,,,,,,,,,,,,,,,,,,,,,,,,,,,,,,,,,,,43,001,1,21,550,550,2022_Nov_21_1408,Experiment,2021.1.4,360.1994063792055,
images\S7_F_H_02.png,images\S7_F_H_02_scrambled.png,7,happy,20,female,5,,398,off,1,0.5,0.75,0.5,0.826,3,397,1,1,1,0,0,0,0,5,,,,,,0,49,49,49,,,,,,,,,,,,,,,,,,,,,,,,,,,,,,,,,,,,,,,,,,,,,,,,,,,,,,,,,522.9981190999988,523.5007435999996,523.5007435999996,524.2534352999992,524.2534352999992,524.7531343999999,524.7531343999999,525.5862385,525.5862385,None,num_4,0.38223420000031183,525.5862385,None,happy,1,Happy,525.9833499799996,None,None,525.9833499799996,None,,,,,,,,,,,,,,,,,,,,,,,,,,,,,,,,,,,,,,,,,,,,,,,,,,,,,43,001,1,21,550,550,2022_Nov_21_1408,Experiment,2021.1.4,360.1994063792055,
images\S10_M_S_03.png,images\S10_M_S_03_scrambled.png,10,sad,-30,male,1,,120,on,2,0.5,0.75,0.5,0.829,3,119,1,1,1,2,2,32,128,161,,,,,,0,50,50,50,,,,,,,,,,,,,,,,,,,,,,,,,,,,,,,,,,,,,,,,,,,,,,,,,,,,,,,,,526.0638474999996,526.5692920999991,526.5692920999991,527.3246055999989,527.3246055999989,527.8300098999989,527.8300098999989,528.6631758999993,528.6631758999993,None,num_6,0.28917679999904067,528.6631758999993,None,sad,1,Sad,528.9714159200005,None,None,528.9714159200005,None,,,,,,,,,,,,,,,,,,,,,,,,,,,,,,,,,,,,,,,,,,,,,,,,,,,,,43,001,1,21,550,550,2022_Nov_21_1408,Experiment,2021.1.4,360.1994063792055,
images\S5_F_H_03.png,images\S5_F_H_03_scrambled.png,5,happy,30,female,6,,267,off,1,0.5,0.75,0.5,0.908,3,266,1,1,1,0,0,0,0,6,,,,,,0,51,51,51,,,,,,,,,,,,,,,,,,,,,,,,,,,,,,,,,,,,,,,,,,,,,,,,,,,,,,,,,529.0795842999996,529.5849882999992,529.5849882999992,530.3347533999986,530.3347533999986,530.8373740999996,530.8373740999996,531.7483553999991,531.7483553999991,None,num_4,0.33194510000066657,531.7483553999991,None,happy,1,Happy,532.0953636799994,None,None,532.0953636799994,None,,,,,,,,,,,,,,,,,,,,,,,,,,,,,,,,,,,,,,,,,,,,,,,,,,,,,43,001,1,21,550,550,2022_Nov_21_1408,Experiment,2021.1.4,360.1994063792055,
images\S10_M_S_02.png,images\S10_M_S_02_scrambled.png,10,sad,-20,male,2,,359,on,2,0.5,0.75,0.5,0.835,3,358,1,1,1,2,2,32,128,162,,,,,,0,52,52,52,,,,,,,,,,,,,,,,,,,,,,,,,,,,,,,,,,,,,,,,,,,,,,,,,,,,,,,,,532.1814144999989,532.6841358000001,532.6841358000001,533.4337704999998,533.4337704999998,533.9392649000001,533.9392649000001,534.7750562000001,534.7750562000001,None,num_4,0.2653234999997949,534.7750562000001,None,happy,1,Sad,535.0500136399992,None,None,535.0500136399992,None,,,,,,,,,,,,,,,,,,,,,,,,,,,,,,,,,,,,,,,,,,,,,,,,,,,,,43,001,1,21,550,550,2022_Nov_21_1408,Experiment,2021.1.4,360.1994063792055,
images\S2_M_H_03.png,images\S2_M_H_03_scrambled.png,2,happy,30,male,6,,549,on,2,0.5,0.75,0.5,0.795,3,548,2,1,1,2,2,32,128,166,,,,,,0,53,53,53,,,,,,,,,,,,,,,,,,,,,,,,,,,,,,,,,,,,,,,,,,,,,,,,,,,,,,,,,535.0999490999984,535.5997985999984,535.5997985999984,536.3551561999993,536.3551561999993,536.8577850999991,536.8577850999991,537.6547231999994,537.6547231999994,None,num_4,0.18563110000104643,537.6547231999994,None,happy,1,Happy,537.8687057599997,None,None,537.8687057599997,None,,,,,,,,,,,,,,,,,,,,,,,,,,,,,,,,,,,,,,,,,,,,,,,,,,,,,43,001,1,21,550,550,2022_Nov_21_1408,Experiment,2021.1.4,360.1994063792055,
images\S2_M_S_01.png,images\S2_M_S_01_scrambled.png,2,sad,-10,male,3,,70,on,2,0.5,0.75,0.5,0.758,3,69,3,2,1,2,2,32,128,163,,,,,,0,54,54,54,,,,,,,,,,,,,,,,,,,,,,,,,,,,,,,,,,,,,,,,,,,,,,,,,,,,,,,,,537.9740711999984,538.4795329999997,538.4795329999997,539.2320282000001,539.2320282000001,539.7347110999999,539.7347110999999,540.4955472999991,540.4955472999991,None,num_6,0.3288819000008516,540.4955472999991,None,sad,1,Sad,540.8343455799994,None,None,540.8343455799994,None,,,,,,,,,,,,,,,,,,,,,,,,,,,,,,,,,,,,,,,,,,,,,,,,,,,,,43,001,1,21,550,550,2022_Nov_21_1408,Experiment,2021.1.4,360.1994063792055,
images\S2_M_H_02.png,images\S2_M_H_02_scrambled.png,2,happy,20,male,5,,308,on,2,0.5,0.75,0.5,0.847,3,307,4,3,1,2,2,32,128,165,,,,,,0,55,55,55,,,,,,,,,,,,,,,,,,,,,,,,,,,,,,,,,,,,,,,,,,,,,,,,,,,,,,,,,540.9203906999992,541.4258193999995,541.4258193999995,542.1784731999996,542.1784731999996,542.6838775999986,542.6838775999986,543.533471499999,543.533471499999,None,num_4,0.33876689999851806,543.533471499999,None,happy,1,Happy,543.8834253800004,None,None,543.8834253800004,None,,,,,,,,,,,,,,,,,,,,,,,,,,,,,,,,,,,,,,,,,,,,,,,,,,,,,43,001,1,21,550,550,2022_Nov_21_1408,Experiment,2021.1.4,360.1994063792055,
images\S8_M_S_03.png,images\S8_M_S_03_scrambled.png,8,sad,-30,male,1,,168,off,1,0.5,0.75,0.5,0.89,3,167,1,1,1,0,0,0,0,1,,,,,,0,56,56,56,,,,,,,,,,,,,,,,,,,,,,,,,,,,,,,,,,,,,,,,,,,,,,,,,,,,,,,,,543.9666719999987,544.4665461999994,544.4665461999994,545.2191140999985,545.2191140999985,545.7245284,545.7245284,546.618637399999,546.618637399999,None,num_6,0.2376670000012382,546.618637399999,None,sad,1,Sad,546.8741852999992,None,None,546.8741852999992,None,,,,,,,,,,,,,,,,,,,,,,,,,,,,,,,,,,,,,,,,,,,,,,,,,,,,,43,001,1,21,550,550,2022_Nov_21_1408,Experiment,2021.1.4,360.1994063792055,
images\S5_F_S_03.png,images\S5_F_S_03_scrambled.png,5,sad,-30,female,1,,570,on,2,0.5,0.75,0.5,0.8,3,569,1,1,2,2,2,32,128,161,,,,,,0,57,57,57,,,,,,,,,,,,,,,,,,,,,,,,,,,,,,,,,,,,,,,,,,,,,,,,,,,,,,,,,546.9379750999997,547.4406374999999,547.4406374999999,548.1933004999992,548.1933004999992,548.6986780999996,548.6986780999996,549.5011063999991,549.5011063999991,None,num_6,0.41929869999876246,549.5011063999991,None,sad,1,Sad,549.9399056999991,None,None,549.9399056999991,None,,,,,,,,,,,,,,,,,,,,,,,,,,,,,,,,,,,,,,,,,,,,,,,,,,,,,43,001,1,21,550,550,2022_Nov_21_1408,Experiment,2021.1.4,360.1994063792055,
images\S1_F_H_03.png,images\S1_F_H_03_scrambled.png,1,happy,30,female,6,,3,off,1,0.5,0.75,0.5,0.76,3,2,1,1,1,0,0,0,0,6,,,,,,0,58,58,58,,,,,,,,,,,,,,,,,,,,,,,,,,,,,,,,,,,,,,,,,,,,,,,,,,,,,,,,,550.0203496999984,550.5231406999992,550.5231406999992,551.2784672999987,551.2784672999987,551.7781895999997,551.7781895999997,552.5446377999997,552.5446377999997,None,num_4,0.21559909999996307,552.5446377999997,None,happy,1,Happy,552.7751082799995,None,None,552.7751082799995,None,,,,,,,,,,,,,,,,,,,,,,,,,,,,,,,,,,,,,,,,,,,,,,,,,,,,,43,001,1,21,550,550,2022_Nov_21_1408,Experiment,2021.1.4,360.1994063792055,
images\blank.jpg,images\blank.jpg,none,none,none,none,0,,609,on,2,0.5,0.75,0.5,0.786,0,608,1,1,1,3,3,48,192,240,,,,,,0,59,59,59,,,,,,,,,,,,,,,,,,,,,,,,,,,,,,,,,,,,,,,,,,,,,,,,,,,,,,,,,552.8586378,553.3582325999996,553.3582325999996,554.1136579999984,554.1136579999984,554.6161975999985,554.6161975999985,555.4020462999997,555.4020462999997,555.4020462999997,num_4,0.5263703999989957,555.4020462999997,None,happy,1,,555.9353108599986,None,None,555.9353108599986,None,,,,,,,,,,,,,,,,,,,,,,,,,,,,,,,,,,,,,,,,,,,,,,,,,,,,,43,001,1,21,550,550,2022_Nov_21_1408,Experiment,2021.1.4,360.1994063792055,
images\S10_M_S_02.png,images\S10_M_S_02_scrambled.png,10,sad,-20,male,2,,479,on,2,0.5,0.75,0.5,0.799,3,478,2,1,1,2,2,32,128,162,,,,,,0,60,60,60,,,,,,,,,,,,,,,,,,,,,,,,,,,,,,,,,,,,,,,,,,,,,,,,,,,,,,,,,556.0547608999987,556.5572503999992,556.5572503999992,557.309810499999,557.309810499999,557.8124286999991,557.8124286999991,558.6121705999994,558.6121705999994,None,num_6,0.4442125000005035,558.6121705999994,None,sad,1,Sad,559.0704336799998,None,None,559.0704336799998,None,,,,,,,,,,,,,,,,,,,,,,,,,,,,,,,,,,,,,,,,,,,,,,,,,,,,,43,001,1,21,550,550,2022_Nov_21_1408,Experiment,2021.1.4,360.1994063792055,
images\S9_F_S_03.png,images\S9_F_S_03_scrambled.png,9,sad,-30,female,1,,474,on,2,0.5,0.75,0.5,0.809,3,473,3,1,1,2,2,32,128,161,,,,,,0,61,61,61,,,,,,,,,,,,,,,,,,,,,,,,,,,,,,,,,,,,,,,,,,,,,,,,,,,,,,,,,559.178668999999,559.6785351999988,559.6785351999988,560.4310809999988,560.4310809999988,560.9338154999987,560.9338154999987,561.7446005000002,561.7446005000002,None,num_6,0.25589730000137934,561.7446005000002,None,sad,1,Sad,562.0279471600003,None,None,562.0279471600003,None,,,,,,,,,,,,,,,,,,,,,,,,,,,,,,,,,,,,,,,,,,,,,,,,,,,,,43,001,1,21,550,550,2022_Nov_21_1408,Experiment,2021.1.4,360.1994063792055,
images\S1_F_S_02.png,images\S1_F_S_02_scrambled.png,1,sad,-20,female,2,,545,on,2,0.5,0.75,0.5,0.863,3,544,4,1,1,2,2,32,128,162,,,,,,0,62,62,62,,,,,,,,,,,,,,,,,,,,,,,,,,,,,,,,,,,,,,,,,,,,,,,,,,,,,,,,,562.1388616999993,562.6414685999989,562.6414685999989,563.3968262999988,563.3968262999988,563.8994945999984,563.8994945999984,564.7658722999986,564.7658722999986,None,num_6,0.402450300000055,564.7658722999986,None,sad,1,Sad,565.1796368799995,None,None,565.1796368799995,None,,,,,,,,,,,,,,,,,,,,,,,,,,,,,,,,,,,,,,,,,,,,,,,,,,,,,43,001,1,21,550,550,2022_Nov_21_1408,Experiment,2021.1.4,360.1994063792055,
images\S2_M_H_03.png,images\S2_M_H_03_scrambled.png,2,happy,30,male,6,,129,off,1,0.5,0.75,0.5,0.934,3,128,1,1,1,0,0,0,0,6,,,,,,0,63,63,63,,,,,,,,,,,,,,,,,,,,,,,,,,,,,,,,,,,,,,,,,,,,,,,,,,,,,,,,,565.226805799999,565.7294594999985,565.7294594999985,566.4847942999986,566.4847942999986,566.9874341999985,566.9874341999985,567.9233430999993,567.9233430999993,None,num_4,0.5728574000004301,567.9233430999993,None,happy,1,Happy,568.5064014799999,None,None,568.5064014799999,None,,,,,,,,,,,,,,,,,,,,,,,,,,,,,,,,,,,,,,,,,,,,,,,,,,,,,43,001,1,21,550,550,2022_Nov_21_1408,Experiment,2021.1.4,360.1994063792055,
images\S5_F_H_01.png,images\S5_F_H_01_scrambled.png,5,happy,10,female,4,,85,on,2,0.5,0.75,0.5,0.897,3,84,1,1,1,2,2,32,128,164,,,,,,0,64,64,64,,,,,,,,,,,,,,,,,,,,,,,,,,,,,,,,,,,,,,,,,,,,,,,,,,,,,,,,,568.5535576999991,569.0590666999997,569.0590666999997,569.8143437999988,569.8143437999988,570.3197447999992,570.3197447999992,571.2194677999996,571.2194677999996,None,num_4,0.2609001000000717,571.2194677999996,None,happy,1,Happy,571.4943682799993,None,None,571.4943682799993,None,,,,,,,,,,,,,,,,,,,,,,,,,,,,,,,,,,,,,,,,,,,,,,,,,,,,,43,001,1,21,550,550,2022_Nov_21_1408,Experiment,2021.1.4,360.1994063792055,
images\S3_F_S_03.png,images\S3_F_S_03_scrambled.png,3,sad,-30,female,1,,378,off,1,0.5,0.75,0.5,0.876,3,377,1,1,1,0,0,0,0,1,,,,,,0,65,65,65,,,,,,,,,,,,,,,,,,,,,,,,,,,,,,,,,,,,,,,,,,,,,,,,,,,,,,,,,571.5443110999986,572.0469390999988,572.0469390999988,572.7995353999995,572.7995353999995,573.3021616999995,573.3021616999995,574.1824284999984,574.1824284999984,None,num_6,0.16196730000046955,574.1824284999984,None,sad,1,Sad,574.3573906999991,None,None,574.3573906999991,None,,,,,,,,,,,,,,,,,,,,,,,,,,,,,,,,,,,,,,,,,,,,,,,,,,,,,43,001,1,21,550,550,2022_Nov_21_1408,Experiment,2021.1.4,360.1994063792055,
images\S8_M_H_03.png,images\S8_M_H_03_scrambled.png,8,happy,30,male,6,,165,off,1,0.5,0.75,0.5,0.838,3,164,2,1,1,0,0,0,0,6,,,,,,0,66,66,66,,,,,,,,,,,,,,,,,,,,,,,,,,,,,,,,,,,,,,,,,,,,,,,,,,,,,,,,,574.4656286999998,574.9683475000002,574.9683475000002,575.7180310999993,575.7180310999993,576.2206794999984,576.2206794999984,577.0648786000002,577.0648786000002,None,num_4,0.1595231999999669,577.0648786000002,None,happy,1,Happy,577.2455120200004,None,None,577.2455120200004,None,,,,,,,,,,,,,,,,,,,,,,,,,,,,,,,,,,,,,,,,,,,,,,,,,,,,,43,001,1,21,550,550,2022_Nov_21_1408,Experiment,2021.1.4,360.1994063792055,
images\S10_M_H_02.png,images\S10_M_H_02_scrambled.png,10,happy,20,male,5,,356,on,2,0.5,0.75,0.5,0.855,3,355,1,1,1,2,2,32,128,165,,,,,,0,67,67,67,,,,,,,,,,,,,,,,,,,,,,,,,,,,,,,,,,,,,,,,,,,,,,,,,,,,,,,,,577.2980996999995,577.7979465999997,577.7979465999997,578.5477169999995,578.5477169999995,579.0475969999989,579.0475969999989,579.9056571000001,579.9056571000001,None,num_4,0.27875010000025213,579.9056571000001,None,happy,1,Happy,580.1944807799999,None,None,580.1944807799999,None,,,,,,,,,,,,,,,,,,,,,,,,,,,,,,,,,,,,,,,,,,,,,,,,,,,,,43,001,1,21,550,550,2022_Nov_21_1408,Experiment,2021.1.4,360.1994063792055,
images\S1_F_S_01.png,images\S1_F_S_01_scrambled.png,1,sad,-10,female,3,,64,on,2,0.5,0.75,0.5,0.879,3,63,2,1,1,2,2,32,128,163,,,,,,0,68,68,68,,,,,,,,,,,,,,,,,,,,,,,,,,,,,,,,,,,,,,,,,,,,,,,,,,,,,,,,,580.2778263,580.7803907999987,580.7803907999987,581.5329332000001,581.5329332000001,582.0355282,582.0355282,582.918594499999,582.918594499999,None,num_6,0.2737388999994437,582.918594499999,None,sad,1,Sad,583.2159017200004,None,None,583.2159017200004,None,,,,,,,,,,,,,,,,,,,,,,,,,,,,,,,,,,,,,,,,,,,,,,,,,,,,,43,001,1,21,550,550,2022_Nov_21_1408,Experiment,2021.1.4,360.1994063792055,
images\S8_M_S_02.png,images\S8_M_S_02_scrambled.png,8,sad,-20,male,2,,107,on,2,0.5,0.75,0.5,0.934,3,106,3,1,1,2,2,32,128,162,,,,,,0,69,69,69,,,,,,,,,,,,,,,,,,,,,,,,,,,,,,,,,,,,,,,,,,,,,,,,,,,,,,,,,583.3267985999992,583.829422499999,583.829422499999,584.5792034999995,584.5792034999995,585.084648099999,585.084648099999,586.0204569999987,586.0204569999987,None,num_6,0.5078489999996236,586.0204569999987,None,sad,1,Sad,586.5509203199992,None,None,586.5509203199992,None,,,,,,,,,,,,,,,,,,,,,,,,,,,,,,,,,,,,,,,,,,,,,,,,,,,,,43,001,1,21,550,550,2022_Nov_21_1408,Experiment,2021.1.4,360.1994063792055,
images\S5_F_H_03.png,images\S5_F_H_03_scrambled.png,5,happy,30,female,6,,387,off,1,0.5,0.75,0.5,0.925,3,386,1,1,1,0,0,0,0,6,,,,,,0,70,70,70,,,,,,,,,,,,,,,,,,,,,,,,,,,,,,,,,,,,,,,,,,,,,,,,,,,,,,,,,586.6035738999999,587.1090757000002,587.1090757000002,587.8643495999986,587.8643495999986,588.3697385999985,588.3697385999985,589.2971844999993,589.2971844999993,None,num_4,0.3751734999987093,589.2971844999993,None,happy,1,Happy,589.6916619199994,None,None,589.6916619199994,None,,,,,,,,,,,,,,,,,,,,,,,,,,,,,,,,,,,,,,,,,,,,,,,,,,,,,43,001,1,21,550,550,2022_Nov_21_1408,Experiment,2021.1.4,360.1994063792055,
images\S3_F_H_01.png,images\S3_F_H_01_scrambled.png,3,happy,10,female,4,,433,on,2,0.5,0.75,0.5,0.865,3,432,1,1,1,2,2,32,128,164,,,,,,0,71,71,71,,,,,,,,,,,,,,,,,,,,,,,,,,,,,,,,,,,,,,,,,,,,,,,,,,,,,,,,,589.7442718999991,590.2497347999997,590.2497347999997,590.9994491999987,590.9994491999987,591.5048814000002,591.5048814000002,592.3741377999995,592.3741377999995,None,num_4,0.4661410999997315,592.3741377999995,None,happy,1,Happy,592.8544829999992,None,None,592.8544829999992,None,,,,,,,,,,,,,,,,,,,,,,,,,,,,,,,,,,,,,,,,,,,,,,,,,,,,,43,001,1,21,550,550,2022_Nov_21_1408,Experiment,2021.1.4,360.1994063792055,
images\S1_F_S_03.png,images\S1_F_S_03_scrambled.png,1,sad,-30,female,1,,486,off,1,0.5,0.75,0.5,0.875,3,485,1,1,1,0,0,0,0,1,,,,,,0,72,72,72,,,,,,,,,,,,,,,,,,,,,,,,,,,,,,,,,,,,,,,,,,,,,,,,,,,,,,,,,592.9599466999989,593.4625706999996,593.4625706999996,594.2123535999999,594.2123535999999,594.7150033999987,594.7150033999987,595.5952784000001,595.5952784000001,None,num_6,0.26910859999952663,595.5952784000001,None,sad,1,Sad,595.8842444400002,None,None,595.8842444400002,None,,,,,,,,,,,,,,,,,,,,,,,,,,,,,,,,,,,,,,,,,,,,,,,,,,,,,43,001,1,21,550,550,2022_Nov_21_1408,Experiment,2021.1.4,360.1994063792055,
images\S5_F_H_02.png,images\S5_F_H_02_scrambled.png,5,happy,20,female,5,,206,on,2,0.5,0.75,0.5,0.786,3,205,1,1,1,2,2,32,128,165,,,,,,0,73,73,73,,,,,,,,,,,,,,,,,,,,,,,,,,,,,,,,,,,,,,,,,,,,,,,,,,,,,,,,,595.9951213999993,596.5005555999996,596.5005555999996,597.2558823999989,597.2558823999989,597.7585873999997,597.7585873999997,598.5499384999985,598.5499384999985,None,num_4,0.3385392000000138,598.5499384999985,None,happy,1,Happy,598.9026065799998,None,None,598.9026065799998,None,,,,,,,,,,,,,,,,,,,,,,,,,,,,,,,,,,,,,,,,,,,,,,,,,,,,,43,001,1,21,550,550,2022_Nov_21_1408,Experiment,2021.1.4,360.1994063792055,
images\S7_F_H_03.png,images\S7_F_H_03_scrambled.png,7,happy,30,female,6,,39,off,1,0.5,0.75,0.5,0.798,3,38,1,1,1,0,0,0,0,6,,,,,,0,74,74,74,,,,,,,,,,,,,,,,,,,,,,,,,,,,,,,,,,,,,,,,,,,,,,,,,,,,,,,,,598.9525549999998,599.4552016999987,599.4552016999987,600.2077231999992,600.2077231999992,600.7103436999987,600.7103436999987,601.5128785999987,601.5128785999987,None,num_4,0.29540369999995164,601.5128785999987,None,happy,1,Happy,601.8295616600004,None,None,601.8295616600004,None,,,,,,,,,,,,,,,,,,,,,,,,,,,,,,,,,,,,,,,,,,,,,,,,,,,,,43,001,1,21,550,550,2022_Nov_21_1408,Experiment,2021.1.4,360.1994063792055,
images\S3_F_H_03.png,images\S3_F_H_03_scrambled.png,3,happy,30,female,6,,495,off,1,0.5,0.75,0.5,0.792,3,494,2,1,2,0,0,0,0,6,,,,,,0,75,75,75,,,,,,,,,,,,,,,,,,,,,,,,,,,,,,,,,,,,,,,,,,,,,,,,,,,,,,,,,601.8933183999998,602.3931615999991,602.3931615999991,603.1429302999986,603.1429302999986,603.6428230000001,603.6428230000001,604.4369864,604.4369864,None,num_4,0.2994350000008126,604.4369864,None,happy,1,Happy,604.7647693600007,None,None,604.7647693600007,None,,,,,,,,,,,,,,,,,,,,,,,,,,,,,,,,,,,,,,,,,,,,,,,,,,,,,43,001,1,21,550,550,2022_Nov_21_1408,Experiment,2021.1.4,360.1994063792055,
images\S10_M_S_01.png,images\S10_M_S_01_scrambled.png,10,sad,-10,male,3,,58,off,1,0.5,0.75,0.5,0.854,3,57,3,1,1,0,0,0,0,3,,,,,,0,76,76,76,,,,,,,,,,,,,,,,,,,,,,,,,,,,,,,,,,,,,,,,,,,,,,,,,,,,,,,,,604.875724399999,605.3784455999994,605.3784455999994,606.1309237999994,606.1309237999994,606.6336706999991,606.6336706999991,607.4944285000001,607.4944285000001,None,num_4,0.2019345999997313,607.4944285000001,None,happy,1,Sad,607.7055453399994,None,None,607.7055453399994,None,,,,,,,,,,,,,,,,,,,,,,,,,,,,,,,,,,,,,,,,,,,,,,,,,,,,,43,001,1,21,550,550,2022_Nov_21_1408,Experiment,2021.1.4,360.1994063792055,
images\S8_M_H_02.png,images\S8_M_H_02_scrambled.png,8,happy,20,male,5,,404,off,1,0.5,0.75,0.5,0.795,3,403,4,1,1,0,0,0,0,5,,,,,,0,77,77,77,,,,,,,,,,,,,,,,,,,,,,,,,,,,,,,,,,,,,,,,,,,,,,,,,,,,,,,,,607.7609617999988,608.2636954999998,608.2636954999998,609.0190000999992,609.0190000999992,609.5243589999991,609.5243589999991,610.3241695999986,610.3241695999986,None,num_4,0.21214920000056736,610.3241695999986,None,happy,1,Happy,610.5518197999991,None,None,610.5518197999991,None,,,,,,,,,,,,,,,,,,,,,,,,,,,,,,,,,,,,,,,,,,,,,,,,,,,,,43,001,1,21,550,550,2022_Nov_21_1408,Experiment,2021.1.4,360.1994063792055,
images\S8_M_S_01.png,images\S8_M_S_01_scrambled.png,8,sad,-10,male,3,,166,off,1,0.5,0.75,0.5,0.872,3,165,5,2,1,0,0,0,0,3,,,,,,0,78,78,78,,,,,,,,,,,,,,,,,,,,,,,,,,,,,,,,,,,,,,,,,,,,,,,,,,,,,,,,,610.6017735999994,611.101609899999,611.101609899999,611.8542351999986,611.8542351999986,612.3568199000001,612.3568199000001,613.2343313999991,613.2343313999991,None,num_6,0.2702506000005087,613.2343313999991,None,sad,1,Sad,613.5287734399994,None,None,613.5287734399994,None,,,,,,,,,,,,,,,,,,,,,,,,,,,,,,,,,,,,,,,,,,,,,,,,,,,,,43,001,1,21,550,550,2022_Nov_21_1408,Experiment,2021.1.4,360.1994063792055,
images\S2_M_S_03.png,images\S2_M_S_03_scrambled.png,2,sad,-30,male,1,,552,on,2,0.5,0.75,0.5,0.782,3,551,1,1,1,2,2,32,128,161,,,,,,0,79,79,79,,,,,,,,,,,,,,,,,,,,,,,,,,,,,,,,,,,,,,,,,,,,,,,,,,,,,,,,,613.5786074999996,614.0812534999986,614.0812534999986,614.8339191999985,614.8339191999985,615.3364203000001,615.3364203000001,616.1250954999996,616.1250954999996,None,num_6,0.3232358999994176,616.1250954999996,None,sad,1,Sad,616.4611058799991,None,None,616.4611058799991,None,,,,,,,,,,,,,,,,,,,,,,,,,,,,,,,,,,,,,,,,,,,,,,,,,,,,,43,001,1,21,550,550,2022_Nov_21_1408,Experiment,2021.1.4,360.1994063792055,
images\S3_F_S_01.png,images\S3_F_S_01_scrambled.png,3,sad,-10,female,3,,316,on,2,0.5,0.75,0.5,0.941,3,315,2,1,1,2,2,32,128,163,,,,,,0,80,80,80,,,,,,,,,,,,,,,,,,,,,,,,,,,,,,,,,,,,,,,,,,,,,,,,,,,,,,,,,616.5443642999999,617.0498042999989,617.0498042999989,617.8023515999994,617.8023515999994,618.3049827999985,618.3049827999985,619.2491618999993,619.2491618999993,None,num_6,0.34328930000083346,619.2491618999993,None,sad,1,Sad,619.6185955400001,None,None,619.6185955400001,None,,,,,,,,,,,,,,,,,,,,,,,,,,,,,,,,,,,,,,,,,,,,,,,,,,,,,43,001,1,21,550,550,2022_Nov_21_1408,Experiment,2021.1.4,360.1994063792055,
images\S1_F_H_02.png,images\S1_F_H_02_scrambled.png,1,happy,20,female,5,,542,on,2,0.5,0.75,0.5,0.808,3,541,3,1,1,2,2,32,128,165,,,,,,0,81,81,81,,,,,,,,,,,,,,,,,,,,,,,,,,,,,,,,,,,,,,,,,,,,,,,,,,,,,,,,,619.6684035999988,620.1710523000002,620.1710523000002,620.9263685999995,620.9263685999995,621.4290762,621.4290762,622.2398843999999,622.2398843999999,None,num_4,0.29636159999972733,622.2398843999999,None,happy,1,Happy,622.5481232800001,None,None,622.5481232800001,None,,,,,,,,,,,,,,,,,,,,,,,,,,,,,,,,,,,,,,,,,,,,,,,,,,,,,43,001,1,21,550,550,2022_Nov_21_1408,Experiment,2021.1.4,360.1994063792055,
images\S6_M_S_03.png,images\S6_M_S_03_scrambled.png,6,sad,-30,male,1,,276,off,1,0.5,0.75,0.5,0.826,3,275,1,1,1,0,0,0,0,1,,,,,,0,82,82,82,,,,,,,,,,,,,,,,,,,,,,,,,,,,,,,,,,,,,,,,,,,,,,,,,,,,,,,,,622.6313893999995,623.131249,623.131249,623.8837793999992,623.8837793999992,624.3863968999995,624.3863968999995,625.2195346999997,625.2195346999997,None,num_6,0.05277449999994133,625.2195346999997,None,sad,1,Sad,625.2861508800005,None,None,625.2861508800005,None,,,,,,,,,,,,,,,,,,,,,,,,,,,,,,,,,,,,,,,,,,,,,,,,,,,,,43,001,1,21,550,550,2022_Nov_21_1408,Experiment,2021.1.4,360.1994063792055,
images\S8_M_S_02.png,images\S8_M_S_02_scrambled.png,8,sad,-20,male,2,,467,on,2,0.5,0.75,0.5,0.86,3,466,1,1,1,2,2,32,128,162,,,,,,0,83,83,83,,,,,,,,,,,,,,,,,,,,,,,,,,,,,,,,,,,,,,,,,,,,,,,,,,,,,,,,,625.3333352999998,625.8359609999989,625.8359609999989,626.5912862999994,626.5912862999994,627.0939935999995,627.0939935999995,627.9603226999989,627.9603226999989,None,num_6,0.19206069999927422,627.9603226999989,None,sad,1,Sad,628.1714967199998,None,None,628.1714967199998,None,,,,,,,,,,,,,,,,,,,,,,,,,,,,,,,,,,,,,,,,,,,,,,,,,,,,,43,001,1,21,550,550,2022_Nov_21_1408,Experiment,2021.1.4,360.1994063792055,
images\S4_M_S_01.png,images\S4_M_S_01_scrambled.png,4,sad,-10,male,3,,442,on,2,0.5,0.75,0.5,0.898,3,441,2,1,1,2,2,32,128,163,,,,,,0,84,84,84,,,,,,,,,,,,,,,,,,,,,,,,,,,,,,,,,,,,,,,,,,,,,,,,,,,,,,,,,628.2796495999992,628.7850927,628.7850927,629.5404026999986,629.5404026999986,630.0402203999984,630.0402203999984,630.9399924999998,630.9399924999998,None,num_6,0.3644103999995423,630.9399924999998,None,sad,1,Sad,631.31765858,None,None,631.31765858,None,,,,,,,,,,,,,,,,,,,,,,,,,,,,,,,,,,,,,,,,,,,,,,,,,,,,,43,001,1,21,550,550,2022_Nov_21_1408,Experiment,2021.1.4,360.1994063792055,
images\S5_F_H_03.png,images\S5_F_H_03_scrambled.png,5,happy,30,female,6,,447,on,2,0.5,0.75,0.5,0.787,3,446,3,1,1,2,2,32,128,166,,,,,,0,85,85,85,,,,,,,,,,,,,,,,,,,,,,,,,,,,,,,,,,,,,,,,,,,,,,,,,,,,,,,,,631.3675898000001,631.8702410999995,631.8702410999995,632.6227589999999,632.6227589999999,633.1282870999985,633.1282870999985,633.9196319999992,633.9196319999992,None,num_4,0.344680200001676,633.9196319999992,None,happy,1,Happy,634.2890726599995,None,None,634.2890726599995,None,,,,,,,,,,,,,,,,,,,,,,,,,,,,,,,,,,,,,,,,,,,,,,,,,,,,,43,001,1,21,550,550,2022_Nov_21_1408,Experiment,2021.1.4,360.1994063792055,
images\S4_M_H_03.png,images\S4_M_H_03_scrambled.png,4,happy,30,male,6,,501,off,1,0.5,0.75,0.5,0.948,3,500,1,1,2,0,0,0,0,6,,,,,,0,86,86,86,,,,,,,,,,,,,,,,,,,,,,,,,,,,,,,,,,,,,,,,,,,,,,,,,,,,,,,,,634.3944386999992,634.8970770999986,634.8970770999986,635.6496493999985,635.6496493999985,636.1550482999992,636.1550482999992,637.1102943999995,637.1102943999995,None,num_4,0.34608289999960107,637.1102943999995,None,happy,1,Happy,637.47971406,None,None,637.47971406,None,,,,,,,,,,,,,,,,,,,,,,,,,,,,,,,,,,,,,,,,,,,,,,,,,,,,,43,001,1,21,550,550,2022_Nov_21_1408,Experiment,2021.1.4,360.1994063792055,
images\S9_F_S_01.png,images\S9_F_S_01_scrambled.png,9,sad,-10,female,3,,412,off,1,0.5,0.75,0.5,0.876,3,411,2,1,1,0,0,0,0,3,,,,,,0,87,87,87,,,,,,,,,,,,,,,,,,,,,,,,,,,,,,,,,,,,,,,,,,,,,,,,,,,,,,,,,637.5434637999988,638.0461168000002,638.0461168000002,638.7986645000001,638.7986645000001,639.3012896,639.3012896,640.1843738999996,640.1843738999996,None,num_6,0.4000549000011233,640.1843738999996,None,sad,1,Sad,640.6094535799992,None,None,640.6094535799992,None,,,,,,,,,,,,,,,,,,,,,,,,,,,,,,,,,,,,,,,,,,,,,,,,,,,,,43,001,1,21,550,550,2022_Nov_21_1408,Experiment,2021.1.4,360.1994063792055,
images\S6_M_S_03.png,images\S6_M_S_03_scrambled.png,6,sad,-30,male,1,,456,on,2,0.5,0.75,0.5,0.793,3,455,1,1,1,2,2,32,128,161,,,,,,0,88,88,88,,,,,,,,,,,,,,,,,,,,,,,,,,,,,,,,,,,,,,,,,,,,,,,,,,,,,,,,,640.6647294999984,641.1701671999999,641.1701671999999,641.9228126999988,641.9228126999988,642.425342999999,642.425342999999,643.2250964999985,643.2250964999985,None,num_6,0.6233628000009048,643.2250964999985,None,sad,1,Sad,643.8637808800003,None,None,643.8637808800003,None,,,,,,,,,,,,,,,,,,,,,,,,,,,,,,,,,,,,,,,,,,,,,,,,,,,,,43,001,1,21,550,550,2022_Nov_21_1408,Experiment,2021.1.4,360.1994063792055,
images\S8_M_H_03.png,images\S8_M_H_03_scrambled.png,8,happy,30,male,6,,465,on,2,0.5,0.75,0.5,0.876,3,464,2,1,1,2,2,32,128,166,,,,,,0,89,89,89,,,,,,,,,,,,,,,,,,,,,,,,,,,,,,,,,,,,,,,,,,,,,,,,,,,,,,,,,643.9110273999995,644.4163706999989,644.4163706999989,645.1716926999998,645.1716926999998,645.6743614999996,645.6743614999996,646.5545869999987,646.5545869999987,None,num_4,0.19777699999940523,646.5545869999987,None,happy,1,Happy,646.7796336600001,None,None,646.7796336600001,None,,,,,,,,,,,,,,,,,,,,,,,,,,,,,,,,,,,,,,,,,,,,,,,,,,,,,43,001,1,21,550,550,2022_Nov_21_1408,Experiment,2021.1.4,360.1994063792055,
images\S9_F_S_02.png,images\S9_F_S_02_scrambled.png,9,sad,-20,female,2,,353,on,2,0.5,0.75,0.5,0.907,3,352,3,1,1,2,2,32,128,162,,,,,,0,90,90,90,,,,,,,,,,,,,,,,,,,,,,,,,,,,,,,,,,,,,,,,,,,,,,,,,,,,,,,,,646.8433832999999,647.3460345999993,647.3460345999993,648.0987037999985,648.0987037999985,648.5984293000001,648.5984293000001,649.5092308999992,649.5092308999992,None,num_4,0.3070387000007031,649.5092308999992,None,happy,1,Sad,649.8258535399987,None,None,649.8258535399987,None,,,,,,,,,,,,,,,,,,,,,,,,,,,,,,,,,,,,,,,,,,,,,,,,,,,,,43,001,1,21,550,550,2022_Nov_21_1408,Experiment,2021.1.4,360.1994063792055,
images\S3_F_H_02.png,images\S3_F_H_02_scrambled.png,3,happy,20,female,5,,554,on,2,0.5,0.75,0.5,0.826,3,553,4,1,1,2,2,32,128,165,,,,,,0,91,91,91,,,,,,,,,,,,,,,,,,,,,,,,,,,,,,,,,,,,,,,,,,,,,,,,,,,,,,,,,649.9341480999992,650.4395595999995,650.4395595999995,651.1948744999991,651.1948744999991,651.7002584000002,651.7002584000002,652.530528199999,652.530528199999,None,num_4,0.22987350000039442,652.530528199999,None,happy,1,Happy,652.7749440799988,None,None,652.7749440799988,None,,,,,,,,,,,,,,,,,,,,,,,,,,,,,,,,,,,,,,,,,,,,,,,,,,,,,43,001,1,21,550,550,2022_Nov_21_1408,Experiment,2021.1.4,360.1994063792055,
images\S7_F_H_03.png,images\S7_F_H_03_scrambled.png,7,happy,30,female,6,,99,on,2,0.5,0.75,0.5,0.813,3,98,5,1,1,2,2,32,128,166,,,,,,0,92,92,92,,,,,,,,,,,,,,,,,,,,,,,,,,,,,,,,,,,,,,,,,,,,,,,,,,,,,,,,,652.8248887999998,653.3275096999987,653.3275096999987,654.0773131999995,654.0773131999995,654.5799417999988,654.5799417999988,655.3963343999985,655.3963343999985,None,num_4,0.26795689999926253,655.3963343999985,None,happy,1,Happy,655.6796075999991,None,None,655.6796075999991,None,,,,,,,,,,,,,,,,,,,,,,,,,,,,,,,,,,,,,,,,,,,,,,,,,,,,,43,001,1,21,550,550,2022_Nov_21_1408,Experiment,2021.1.4,360.1994063792055,
images\S3_F_H_02.png,images\S3_F_H_02_scrambled.png,3,happy,20,female,5,,434,on,2,0.5,0.75,0.5,0.897,3,433,6,1,1,2,2,32,128,165,,,,,,0,93,93,93,,,,,,,,,,,,,,,,,,,,,,,,,,,,,,,,,,,,,,,,,,,,,,,,,,,,,,,,,655.7350422999989,656.2405192999995,656.2405192999995,656.9930777999998,656.9930777999998,657.4957037999993,657.4957037999993,658.3954260999999,658.3954260999999,None,num_4,0.5568519000007655,658.3954260999999,None,happy,1,Happy,658.9646987799996,None,None,658.9646987799996,None,,,,,,,,,,,,,,,,,,,,,,,,,,,,,,,,,,,,,,,,,,,,,,,,,,,,,43,001,1,21,550,550,2022_Nov_21_1408,Experiment,2021.1.4,360.1994063792055,
images\blank.jpg,images\blank.jpg,none,none,none,none,0,,628,on,2,0.5,0.75,0.5,0.911,0,627,7,1,1,3,3,48,192,240,,,,,,0,94,94,94,,,,,,,,,,,,,,,,,,,,,,,,,,,,,,,,,,,,,,,,,,,,,,,,,,,,,,,,,659.0510301999984,659.5561693999989,659.5561693999989,660.3114820999999,660.3114820999999,660.8141825999992,660.8141825999992,661.7249262999994,661.7249262999994,661.7249262999994,num_4,0.3554859999985638,661.7249262999994,None,happy,1,,662.0944186599987,None,None,662.0944186599987,None,,,,,,,,,,,,,,,,,,,,,,,,,,,,,,,,,,,,,,,,,,,,,,,,,,,,,43,001,1,21,550,550,2022_Nov_21_1408,Experiment,2021.1.4,360.1994063792055,
images\S1_F_S_01.png,images\S1_F_S_01_scrambled.png,1,sad,-10,female,3,,4,off,1,0.5,0.75,0.5,0.853,3,3,1,1,1,0,0,0,0,3,,,,,,0,95,95,95,,,,,,,,,,,,,,,,,,,,,,,,,,,,,,,,,,,,,,,,,,,,,,,,,,,,,,,,,662.2249882999986,662.7302026999987,662.7302026999987,663.4799457999998,663.4799457999998,663.9825695,663.9825695,664.8406651999994,664.8406651999994,None,num_4,0.2475293999996211,664.8406651999994,None,happy,1,Sad,665.0933662399989,None,None,665.0933662399989,None,,,,,,,,,,,,,,,,,,,,,,,,,,,,,,,,,,,,,,,,,,,,,,,,,,,,,43,001,1,21,550,550,2022_Nov_21_1408,Experiment,2021.1.4,360.1994063792055,
images\S2_M_H_01.png,images\S2_M_H_01_scrambled.png,2,happy,10,male,4,,247,off,1,0.5,0.75,0.5,0.79,3,246,2,1,1,0,0,0,0,4,,,,,,0,96,96,96,,,,,,,,,,,,,,,,,,,,,,,,,,,,,,,,,,,,,,,,,,,,,,,,,,,,,,,,,665.1488646999987,665.6515070999994,665.6515070999994,666.4041292999991,666.4041292999991,666.9094998,666.9094998,667.7037884000001,667.7037884000001,None,num_4,0.3045872999991843,667.7037884000001,None,happy,1,Happy,668.0259313199997,None,None,668.0259313199997,None,,,,,,,,,,,,,,,,,,,,,,,,,,,,,,,,,,,,,,,,,,,,,,,,,,,,,43,001,1,21,550,550,2022_Nov_21_1408,Experiment,2021.1.4,360.1994063792055,
images\S1_F_H_02.png,images\S1_F_H_02_scrambled.png,1,happy,20,female,5,,362,off,1,0.5,0.75,0.5,0.888,3,361,3,1,1,0,0,0,0,5,,,,,,0,97,97,97,,,,,,,,,,,,,,,,,,,,,,,,,,,,,,,,,,,,,,,,,,,,,,,,,,,,,,,,,668.0785256999989,668.5839779999988,668.5839779999988,669.3392843999991,669.3392843999991,669.8391271,669.8391271,670.7305286999999,670.7305286999999,None,num_4,0.3659759000001941,670.7305286999999,None,happy,1,Happy,671.1166183199996,None,None,671.1166183199996,None,,,,,,,,,,,,,,,,,,,,,,,,,,,,,,,,,,,,,,,,,,,,,,,,,,,,,43,001,1,21,550,550,2022_Nov_21_1408,Experiment,2021.1.4,360.1994063792055,
images\S4_M_H_01.png,images\S4_M_H_01_scrambled.png,4,happy,10,male,4,,199,on,2,0.5,0.75,0.5,0.893,3,198,1,1,1,2,2,32,128,164,,,,,,0,98,98,98,,,,,,,,,,,,,,,,,,,,,,,,,,,,,,,,,,,,,,,,,,,,,,,,,,,,,,,,,671.1692444,671.6746867000002,671.6746867000002,672.4244260999985,672.4244260999985,672.9298593999993,672.9298593999993,673.8295875999993,673.8295875999993,None,num_6,0.37074939999911294,673.8295875999993,None,sad,1,Happy,674.2072364399996,None,None,674.2072364399996,None,,,,,,,,,,,,,,,,,,,,,,,,,,,,,,,,,,,,,,,,,,,,,,,,,,,,,43,001,1,21,550,550,2022_Nov_21_1408,Experiment,2021.1.4,360.1994063792055,
images\S7_F_H_02.png,images\S7_F_H_02_scrambled.png,7,happy,20,female,5,,338,on,2,0.5,0.75,0.5,0.816,3,337,2,1,1,2,2,32,128,165,,,,,,0,99,99,99,,,,,,,,,,,,,,,,,,,,,,,,,,,,,,,,,,,,,,,,,,,,,,,,,,,,,,,,,674.2599673999994,674.7653923999987,674.7653923999987,675.5207089999985,675.5207089999985,676.0234063999997,676.0234063999997,676.845308599999,676.845308599999,None,num_6,0.40311119999933,676.845308599999,None,sad,1,Happy,677.2563330399994,None,None,677.2563330399994,None,,,,,,,,,,,,,,,,,,,,,,,,,,,,,,,,,,,,,,,,,,,,,,,,,,,,,43,001,1,21,550,550,2022_Nov_21_1408,Experiment,2021.1.4,360.1994063792055,
images\blank.jpg,images\blank.jpg,none,none,none,none,0,,604,on,2,0.5,0.75,0.5,0.878,0,603,3,1,1,3,3,48,192,240,,,,,,0,100,100,100,,,,,,,,,,,,,,,,,,,,,,,,,,,,,,,,,,,,,,,,,,,,,,,,,,,,,,,,,677.3453026999996,677.8505570999987,677.8505570999987,678.6032244999988,678.6032244999988,679.1057205999987,679.1057205999987,679.9860381999988,679.9860381999988,679.9860381999988,num_6,0.4302511999994749,679.9860381999988,None,sad,1,,680.4220092399996,None,None,680.4220092399996,None,,,,,,,,,,,,,,,,,,,,,,,,,,,,,,,,,,,,,,,,,,,,,,,,,,,,,43,001,1,21,550,550,2022_Nov_21_1408,Experiment,2021.1.4,360.1994063792055,
images\S7_F_S_03.png,images\S7_F_S_03_scrambled.png,7,sad,-30,female,1,,342,on,2,0.5,0.75,0.5,0.867,3,341,4,1,1,2,2,32,128,161,,,,,,0,101,101,101,,,,,,,,,,,,,,,,,,,,,,,,,,,,,,,,,,,,,,,,,,,,,,,,,,,,,,,,,680.5720471999994,681.0745773999988,681.0745773999988,681.8243020999998,681.8243020999998,682.3269736999991,682.3269736999991,683.1961290999989,683.1961290999989,None,num_6,0.42812190000040573,683.1961290999989,None,sad,1,Sad,683.6376740799996,None,None,683.6376740799996,None,,,,,,,,,,,,,,,,,,,,,,,,,,,,,,,,,,,,,,,,,,,,,,,,,,,,,43,001,1,21,550,550,2022_Nov_21_1408,Experiment,2021.1.4,360.1994063792055,
images\S5_F_H_01.png,images\S5_F_H_01_scrambled.png,5,happy,10,female,4,,265,off,1,0.5,0.75,0.5,0.803,3,264,1,1,1,0,0,0,0,4,,,,,,0,102,102,102,,,,,,,,,,,,,,,,,,,,,,,,,,,,,,,,,,,,,,,,,,,,,,,,,,,,,,,,,683.687595899999,684.1902458999994,684.1902458999994,684.9428314999986,684.9428314999986,685.4454126,685.4454126,686.2507522999986,686.2507522999986,None,num_4,0.989603600000919,686.2507522999986,None,happy,1,Happy,687.2560386000005,None,None,687.2560386000005,None,,,,,,,,,,,,,,,,,,,,,,,,,,,,,,,,,,,,,,,,,,,,,,,,,,,,,43,001,1,21,550,550,2022_Nov_21_1408,Experiment,2021.1.4,360.1994063792055,
images\S3_F_H_02.png,images\S3_F_H_02_scrambled.png,3,happy,20,female,5,,494,off,1,0.5,0.75,0.5,0.936,3,493,2,1,1,0,0,0,0,5,,,,,,0,103,103,103,,,,,,,,,,,,,,,,,,,,,,,,,,,,,,,,,,,,,,,,,,,,,,,,,,,,,,,,,687.3031801999987,687.8058203,687.8058203,688.558347799999,688.558347799999,689.0581896999993,689.0581896999993,689.9995991999986,689.9995991999986,None,num_4,0.3287942999995721,689.9995991999986,None,happy,1,Happy,690.3383876799988,None,None,690.3383876799988,None,,,,,,,,,,,,,,,,,,,,,,,,,,,,,,,,,,,,,,,,,,,,,,,,,,,,,43,001,1,21,550,550,2022_Nov_21_1408,Experiment,2021.1.4,360.1994063792055,
images\S10_M_S_02.png,images\S10_M_S_02_scrambled.png,10,sad,-20,male,2,,419,off,1,0.5,0.75,0.5,0.885,3,418,3,1,1,0,0,0,0,2,,,,,,0,104,104,104,,,,,,,,,,,,,,,,,,,,,,,,,,,,,,,,,,,,,,,,,,,,,,,,,,,,,,,,,690.3855819,690.8881794999998,690.8881794999998,691.6436457999989,691.6436457999989,692.1433811999996,692.1433811999996,693.0347908999993,693.0347908999993,None,num_4,0.31749479999962205,693.0347908999993,None,happy,1,Sad,693.3568904400004,None,None,693.3568904400004,None,,,,,,,,,,,,,,,,,,,,,,,,,,,,,,,,,,,,,,,,,,,,,,,,,,,,,43,001,1,21,550,550,2022_Nov_21_1408,Experiment,2021.1.4,360.1994063792055,
images\S3_F_S_02.png,images\S3_F_S_02_scrambled.png,3,sad,-20,female,2,,497,off,1,0.5,0.75,0.5,0.803,3,496,4,1,2,0,0,0,0,2,,,,,,0,105,105,105,,,,,,,,,,,,,,,,,,,,,,,,,,,,,,,,,,,,,,,,,,,,,,,,,,,,,,,,,693.4651672,693.9706009000001,693.9706009000001,694.7231173,694.7231173,695.2229623999992,695.2229623999992,696.0254996999993,696.0254996999993,None,num_6,0.2707668000002741,696.0254996999993,None,sad,1,Sad,696.3087829799996,None,None,696.3087829799996,None,,,,,,,,,,,,,,,,,,,,,,,,,,,,,,,,,,,,,,,,,,,,,,,,,,,,,43,001,1,21,550,550,2022_Nov_21_1408,Experiment,2021.1.4,360.1994063792055,
images\S1_F_H_03.png,images\S1_F_H_03_scrambled.png,1,happy,30,female,6,,483,off,1,0.5,0.75,0.5,0.925,3,482,5,1,1,0,0,0,0,6,,,,,,0,106,106,106,,,,,,,,,,,,,,,,,,,,,,,,,,,,,,,,,,,,,,,,,,,,,,,,,,,,,,,,,696.3587212999992,696.8642153000001,696.8642153000001,697.6195093999995,697.6195093999995,698.1248910999984,698.1248910999984,699.0551514999988,699.0551514999988,None,None,,699.0551514999988,None,miss,1,Happy,702.0569899199993,None,None,702.0569899199993,None,,,,,,,,,,,,,,,,,,,,,,,,,,,,,,,,,,,,,,,,,,,,,,,,,,,,,43,001,1,21,550,550,2022_Nov_21_1408,Experiment,2021.1.4,360.1994063792055,
images\blank.jpg,images\blank.jpg,none,none,none,none,0,,617,on,2,0.5,0.75,0.5,0.822,0,616,1,1,1,3,3,48,192,240,,,,,,0,107,107,107,,,,,,,,,,,,,,,,,,,,,,,,,,,,,,,,,,,,,,,,,,,,,,,,,,,,,,,,,702.1405932999987,702.6430458999985,702.6430458999985,703.3954930999989,703.3954930999989,703.9008746,703.9008746,704.7257277999997,704.7257277999997,704.7257277999997,num_6,1.458748099999866,704.7257277999997,702.1405932999987,sad,1,,706.1891221399987,None,None,706.1891221399987,None,,,,,,,,,,,,,,,,,,,,,,,,,,,,,,,,,,,,,,,,,,,,,,,,,,,,,43,001,1,21,550,550,2022_Nov_21_1408,Experiment,2021.1.4,360.1994063792055,
images\S10_M_H_03.png,images\S10_M_H_03_scrambled.png,10,happy,30,male,6,,117,on,2,0.5,0.75,0.5,0.792,3,116,2,1,1,2,2,32,128,166,,,,,,0,108,108,108,,,,,,,,,,,,,,,,,,,,,,,,,,,,,,,,,,,,,,,,,,,,,,,,,,,,,,,,,706.3115162999984,706.8139899999987,706.8139899999987,707.5636445,707.5636445,708.0691173999985,708.0691173999985,708.8633513999994,708.8633513999994,None,num_4,1.2011235000009037,708.8633513999994,None,happy,1,Happy,710.0795481800004,None,None,710.0795481800004,None,,,,,,,,,,,,,,,,,,,,,,,,,,,,,,,,,,,,,,,,,,,,,,,,,,,,,43,001,1,21,550,550,2022_Nov_21_1408,Experiment,2021.1.4,360.1994063792055,
images\blank.jpg,images\blank.jpg,none,none,none,none,0,,627,on,2,0.5,0.75,0.5,0.816,0,626,3,1,1,3,3,48,192,240,,,,,,0,109,109,109,,,,,,,,,,,,,,,,,,,,,,,,,,,,,,,,,,,,,,,,,,,,,,,,,,,,,,,,,710.1631124999985,710.6682256999993,710.6682256999993,711.4179895999987,711.4179895999987,711.920609499999,711.920609499999,712.7370215999999,712.7370215999999,712.7370215999999,num_6,1.7032856000005268,712.7370215999999,None,sad,1,,714.44769804,None,None,714.44769804,None,,,,,,,,,,,,,,,,,,,,,,,,,,,,,,,,,,,,,,,,,,,,,,,,,,,,,43,001,1,21,550,550,2022_Nov_21_1408,Experiment,2021.1.4,360.1994063792055,
images\S2_M_S_01.png,images\S2_M_S_01_scrambled.png,2,sad,-10,male,3,,430,on,2,0.5,0.75,0.5,0.928,3,429,4,1,1,2,2,32,128,163,,,,,,0,110,110,110,,,,,,,,,,,,,,,,,,,,,,,,,,,,,,,,,,,,,,,,,,,,,,,,,,,,,,,,,714.5728130999996,715.0724229999996,715.0724229999996,715.825005499999,715.825005499999,716.3304013999987,716.3304013999987,717.2606558999996,717.2606558999996,None,num_6,0.5156182999999146,717.2606558999996,None,sad,1,Sad,717.7882897799999,None,None,717.7882897799999,None,,,,,,,,,,,,,,,,,,,,,,,,,,,,,,,,,,,,,,,,,,,,,,,,,,,,,43,001,1,21,550,550,2022_Nov_21_1408,Experiment,2021.1.4,360.1994063792055,
images\S10_M_S_02.png,images\S10_M_S_02_scrambled.png,10,sad,-20,male,2,,599,on,2,0.5,0.75,0.5,0.822,3,598,5,1,1,2,2,32,128,162,,,,,,0,111,111,111,,,,,,,,,,,,,,,,,,,,,,,,,,,,,,,,,,,,,,,,,,,,,,,,,,,,,,,,,717.8382363000001,718.3408686999992,718.3408686999992,719.0935331000001,719.0935331000001,719.5989183999991,719.5989183999991,720.4264417999984,720.4264417999984,None,num_6,2.5979991000003793,720.4264417999984,None,sad,1,Sad,723.0394559799996,None,None,723.0394559799996,None,,,,,,,,,,,,,,,,,,,,,,,,,,,,,,,,,,,,,,,,,,,,,,,,,,,,,43,001,1,21,550,550,2022_Nov_21_1408,Experiment,2021.1.4,360.1994063792055,
images\S10_M_S_01.png,images\S10_M_S_01_scrambled.png,10,sad,-10,male,3,,238,on,2,0.5,0.75,0.5,0.811,3,237,6,2,1,2,2,32,128,163,,,,,,0,112,112,112,,,,,,,,,,,,,,,,,,,,,,,,,,,,,,,,,,,,,,,,,,,,,,,,,,,,,,,,,723.0866329,723.5893075999993,723.5893075999993,724.341848,724.341848,724.8444460999999,724.8444460999999,725.6580825000001,725.6580825000001,None,num_4,0.23016439999992144,725.6580825000001,None,happy,1,Sad,725.8941168400002,None,None,725.8941168400002,None,,,,,,,,,,,,,,,,,,,,,,,,,,,,,,,,,,,,,,,,,,,,,,,,,,,,,43,001,1,21,550,550,2022_Nov_21_1408,Experiment,2021.1.4,360.1994063792055,
images\S3_F_S_01.png,images\S3_F_S_01_scrambled.png,3,sad,-10,female,3,,436,on,2,0.5,0.75,0.5,0.845,3,435,7,1,2,2,2,32,128,163,,,,,,0,113,113,113,,,,,,,,,,,,,,,,,,,,,,,,,,,,,,,,,,,,,,,,,,,,,,,,,,,,,,,,,725.941299099999,726.4467267999989,726.4467267999989,727.1992947999988,727.1992947999988,727.6990934999994,727.6990934999994,728.5489538999991,728.5489538999991,None,num_4,1.667576799998642,728.5489538999991,None,happy,1,Sad,730.22333974,None,None,730.22333974,None,,,,,,,,,,,,,,,,,,,,,,,,,,,,,,,,,,,,,,,,,,,,,,,,,,,,,43,001,1,21,550,550,2022_Nov_21_1408,Experiment,2021.1.4,360.1994063792055,
images\S9_F_S_01.png,images\S9_F_S_01_scrambled.png,9,sad,-10,female,3,,292,off,1,0.5,0.75,0.5,0.821,3,291,1,1,3,0,0,0,0,3,,,,,,0,114,114,114,,,,,,,,,,,,,,,,,,,,,,,,,,,,,,,,,,,,,,,,,,,,,,,,,,,,,,,,,730.2705320999994,730.7759498999985,730.7759498999985,731.5285027999998,731.5285027999998,732.0283167999987,732.0283167999987,732.8531955999988,732.8531955999988,None,num_4,0.411110799999733,732.8531955999988,None,happy,1,Sad,733.2724175400003,None,None,733.2724175400003,None,,,,,,,,,,,,,,,,,,,,,,,,,,,,,,,,,,,,,,,,,,,,,,,,,,,,,43,001,1,21,550,550,2022_Nov_21_1408,Experiment,2021.1.4,360.1994063792055,
images\S10_M_H_03.png,images\S10_M_H_03_scrambled.png,10,happy,30,male,6,,297,off,1,0.5,0.75,0.5,0.753,3,296,2,1,1,0,0,0,0,6,,,,,,0,115,115,115,,,,,,,,,,,,,,,,,,,,,,,,,,,,,,,,,,,,,,,,,,,,,,,,,,,,,,,,,733.3195906000001,733.8222202999987,733.8222202999987,734.5720403999985,734.5720403999985,735.0746621999988,735.0746621999988,735.8299713999986,735.8299713999986,None,num_4,0.3143727000006038,735.8299713999986,None,happy,1,Happy,736.1715789800008,None,None,736.1715789800008,None,,,,,,,,,,,,,,,,,,,,,,,,,,,,,,,,,,,,,,,,,,,,,,,,,,,,,43,001,1,21,550,550,2022_Nov_21_1408,Experiment,2021.1.4,360.1994063792055,
images\S7_F_S_02.png,images\S7_F_S_02_scrambled.png,7,sad,-20,female,2,,101,on,2,0.5,0.75,0.5,0.775,3,100,1,1,1,2,2,32,128,162,,,,,,0,116,116,116,,,,,,,,,,,,,,,,,,,,,,,,,,,,,,,,,,,,,,,,,,,,,,,,,,,,,,,,,736.2798273999997,736.7852265999991,736.7852265999991,737.5377782999985,737.5377782999985,738.0403579999984,738.0403579999984,738.8206978999988,738.8206978999988,None,num_4,0.3474833000000217,738.8206978999988,None,happy,1,Sad,739.176146559999,None,None,739.176146559999,None,,,,,,,,,,,,,,,,,,,,,,,,,,,,,,,,,,,,,,,,,,,,,,,,,,,,,43,001,1,21,550,550,2022_Nov_21_1408,Experiment,2021.1.4,360.1994063792055,
images\S9_F_S_01.png,images\S9_F_S_01_scrambled.png,9,sad,-10,female,3,,472,on,2,0.5,0.75,0.5,0.949,3,471,2,1,1,2,2,32,128,163,,,,,,0,117,117,117,,,,,,,,,,,,,,,,,,,,,,,,,,,,,,,,,,,,,,,,,,,,,,,,,,,,,,,,,739.2455406999998,739.7509707999998,739.7509707999998,740.5062865,740.5062865,741.0089971999987,741.0089971999987,741.9642483999996,741.9642483999996,None,num_4,0.2922843999986071,741.9642483999996,None,happy,1,Sad,742.26405604,None,None,742.26405604,None,,,,,,,,,,,,,,,,,,,,,,,,,,,,,,,,,,,,,,,,,,,,,,,,,,,,,43,001,1,21,550,550,2022_Nov_21_1408,Experiment,2021.1.4,360.1994063792055,
images\S1_F_S_03.png,images\S1_F_S_03_scrambled.png,1,sad,-30,female,1,,306,on,2,0.5,0.75,0.5,0.785,3,305,3,1,1,2,2,32,128,161,,,,,,0,118,118,118,,,,,,,,,,,,,,,,,,,,,,,,,,,,,,,,,,,,,,,,,,,,,,,,,,,,,,,,,742.3112700000001,742.8139144999986,742.8139144999986,743.5636924999999,743.5636924999999,744.0635411999992,744.0635411999992,744.8549797999985,744.8549797999985,None,num_6,0.2253880999996909,744.8549797999985,None,sad,1,Sad,745.1077835600005,None,None,745.1077835600005,None,,,,,,,,,,,,,,,,,,,,,,,,,,,,,,,,,,,,,,,,,,,,,,,,,,,,,43,001,1,21,550,550,2022_Nov_21_1408,Experiment,2021.1.4,360.1994063792055,
images\S6_M_S_01.png,images\S6_M_S_01_scrambled.png,6,sad,-10,male,3,,394,off,1,0.5,0.75,0.5,0.767,3,393,1,1,1,0,0,0,0,3,,,,,,0,119,119,119,,,,,,,,,,,,,,,,,,,,,,,,,,,,,,,,,,,,,,,,,,,,,,,,,,,,,,,,,745.1603907999997,745.6602430999992,745.6602430999992,746.4129727,746.4129727,746.9154449999987,746.9154449999987,747.6846686999997,747.6846686999997,None,num_6,0.6037426000002597,747.6846686999997,None,sad,1,Sad,748.2983618799998,None,None,748.2983618799998,None,,,,,,,,,,,,,,,,,,,,,,,,,,,,,,,,,,,,,,,,,,,,,,,,,,,,,43,001,1,21,550,550,2022_Nov_21_1408,Experiment,2021.1.4,360.1994063792055,
images\S1_F_S_03.png,images\S1_F_S_03_scrambled.png,1,sad,-30,female,1,,186,on,2,0.5,0.75,0.5,0.882,3,185,1,1,1,2,2,32,128,161,,,,,,0,120,120,120,,,,,,,,,,,,,,,,,,,,,,,,,,,,,,,,,,,,,,,,,,,,,,,,,,,,,,,,,748.3455259999992,748.8481475999997,748.8481475999997,749.5979284999994,749.5979284999994,750.0977962999987,750.0977962999987,750.9837457999984,750.9837457999984,None,num_6,0.2885364000012487,750.9837457999984,None,sad,1,Sad,751.2835614799995,None,None,751.2835614799995,None,,,,,,,,,,,,,,,,,,,,,,,,,,,,,,,,,,,,,,,,,,,,,,,,,,,,,43,001,1,21,550,550,2022_Nov_21_1408,Experiment,2021.1.4,360.1994063792055,
images\S6_M_H_01.png,images\S6_M_H_01_scrambled.png,6,happy,10,male,4,,391,off,1,0.5,0.75,0.5,0.88,3,390,1,1,1,0,0,0,0,4,,,,,,0,121,121,121,,,,,,,,,,,,,,,,,,,,,,,,,,,,,,,,,,,,,,,,,,,,,,,,,,,,,,,,,751.3363565999989,751.8389959999986,751.8389959999986,752.5942748999987,752.5942748999987,753.0996796999989,753.0996796999989,753.9854904999993,753.9854904999993,None,num_4,0.23071449999952165,753.9854904999993,None,happy,1,Happy,754.2298811000001,None,None,754.2298811000001,None,,,,,,,,,,,,,,,,,,,,,,,,,,,,,,,,,,,,,,,,,,,,,,,,,,,,,43,001,1,21,550,550,2022_Nov_21_1408,Experiment,2021.1.4,360.1994063792055,
images\S5_F_S_01.png,images\S5_F_S_01_scrambled.png,5,sad,-10,female,3,,268,off,1,0.5,0.75,0.5,0.792,3,267,2,1,1,0,0,0,0,3,,,,,,0,122,122,122,,,,,,,,,,,,,,,,,,,,,,,,,,,,,,,,,,,,,,,,,,,,,,,,,,,,,,,,,754.2770297999996,754.7768818999994,754.7768818999994,755.5266672999987,755.5266672999987,756.0293161999998,756.0293161999998,756.8234971000002,756.8234971000002,None,num_4,0.24892589999944903,756.8234971000002,None,happy,1,Sad,757.0817511399987,None,None,757.0817511399987,None,,,,,,,,,,,,,,,,,,,,,,,,,,,,,,,,,,,,,,,,,,,,,,,,,,,,,43,001,1,21,550,550,2022_Nov_21_1408,Experiment,2021.1.4,360.1994063792055,
images\S4_M_H_02.png,images\S4_M_H_02_scrambled.png,4,happy,20,male,5,,200,on,2,0.5,0.75,0.5,0.765,3,199,1,1,1,2,2,32,128,165,,,,,,0,123,123,123,,,,,,,,,,,,,,,,,,,,,,,,,,,,,,,,,,,,,,,,,,,,,,,,,,,,,,,,,757.1650417000001,757.6704685999994,757.6704685999994,758.4231298999985,758.4231298999985,758.9284145000001,758.9284145000001,759.7003925999998,759.7003925999998,None,num_4,0.2359759999999369,759.7003925999998,None,happy,1,Happy,759.9559963200002,None,None,759.9559963200002,None,,,,,,,,,,,,,,,,,,,,,,,,,,,,,,,,,,,,,,,,,,,,,,,,,,,,,43,001,1,21,550,550,2022_Nov_21_1408,Experiment,2021.1.4,360.1994063792055,
images\S9_F_H_01.png,images\S9_F_H_01_scrambled.png,9,happy,10,female,4,,109,on,2,0.5,0.75,0.5,0.916,3,108,2,1,1,2,2,32,128,164,,,,,,0,124,124,124,,,,,,,,,,,,,,,,,,,,,,,,,,,,,,,,,,,,,,,,,,,,,,,,,,,,,,,,,760.0086040999995,760.5112535999997,760.5112535999997,761.2610010999997,761.2610010999997,761.7636495999996,761.7636495999996,762.6855947999993,762.6855947999993,None,num_4,0.19469949999984237,762.6855947999993,None,happy,1,Happy,762.8938870000002,None,None,762.8938870000002,None,,,,,,,,,,,,,,,,,,,,,,,,,,,,,,,,,,,,,,,,,,,,,,,,,,,,,43,001,1,21,550,550,2022_Nov_21_1408,Experiment,2021.1.4,360.1994063792055,
images\S3_F_S_03.png,images\S3_F_S_03_scrambled.png,3,sad,-30,female,1,,438,on,2,0.5,0.75,0.5,0.766,3,437,3,1,1,2,2,32,128,161,,,,,,0,125,125,125,,,,,,,,,,,,,,,,,,,,,,,,,,,,,,,,,,,,,,,,,,,,,,,,,,,,,,,,,762.9438237999984,763.4492765999985,763.4492765999985,764.1989872999984,764.1989872999984,764.7044458,764.7044458,765.4737336999988,765.4737336999988,None,num_6,0.6145070999991731,765.4737336999988,None,sad,1,Sad,766.1040221999992,None,None,766.1040221999992,None,,,,,,,,,,,,,,,,,,,,,,,,,,,,,,,,,,,,,,,,,,,,,,,,,,,,,43,001,1,21,550,550,2022_Nov_21_1408,Experiment,2021.1.4,360.1994063792055,
images\S2_M_H_01.png,images\S2_M_H_01_scrambled.png,2,happy,10,male,4,,547,on,2,0.5,0.75,0.5,0.774,3,546,4,1,1,2,2,32,128,164,,,,,,0,126,126,126,,,,,,,,,,,,,,,,,,,,,,,,,,,,,,,,,,,,,,,,,,,,,,,,,,,,,,,,,766.1539357999991,766.659405299999,766.659405299999,767.4091125999985,767.4091125999985,767.9089580999989,767.9089580999989,768.6864773999987,768.6864773999987,None,num_4,0.8979226000010385,768.6864773999987,None,happy,1,Happy,769.5945930799998,None,None,769.5945930799998,None,,,,,,,,,,,,,,,,,,,,,,,,,,,,,,,,,,,,,,,,,,,,,,,,,,,,,43,001,1,21,550,550,2022_Nov_21_1408,Experiment,2021.1.4,360.1994063792055,
images\S7_F_S_01.png,images\S7_F_S_01_scrambled.png,7,sad,-10,female,3,,520,off,1,0.5,0.75,0.5,0.923,3,519,1,1,1,0,0,0,0,3,,,,,,0,127,127,127,,,,,,,,,,,,,,,,,,,,,,,,,,,,,,,,,,,,,,,,,,,,,,,,,,,,,,,,,769.6778558999995,770.1777157999986,770.1777157999986,770.9330402999985,770.9330402999985,771.4384592999995,771.4384592999995,772.3631569999998,772.3631569999998,None,num_4,0.5492923999991035,772.3631569999998,None,happy,1,Sad,772.9213325400001,None,None,772.9213325400001,None,,,,,,,,,,,,,,,,,,,,,,,,,,,,,,,,,,,,,,,,,,,,,,,,,,,,,43,001,1,21,550,550,2022_Nov_21_1408,Experiment,2021.1.4,360.1994063792055,
images\S5_F_H_01.png,images\S5_F_H_01_scrambled.png,5,happy,10,female,4,,505,off,1,0.5,0.75,0.5,0.815,3,504,2,1,1,0,0,0,0,4,,,,,,0,128,128,128,,,,,,,,,,,,,,,,,,,,,,,,,,,,,,,,,,,,,,,,,,,,,,,,,,,,,,,,,772.9685231999993,773.4740676999991,773.4740676999991,774.2237291999991,774.2237291999991,774.7263064999988,774.7263064999988,775.5455660999996,775.5455660999996,None,num_4,0.3347123000003194,775.5455660999996,None,happy,1,Happy,775.9038763599998,None,None,775.9038763599998,None,,,,,,,,,,,,,,,,,,,,,,,,,,,,,,,,,,,,,,,,,,,,,,,,,,,,,43,001,1,21,550,550,2022_Nov_21_1408,Experiment,2021.1.4,360.1994063792055,
images\S4_M_S_02.png,images\S4_M_S_02_scrambled.png,4,sad,-20,male,2,,563,on,2,0.5,0.75,0.5,0.873,3,562,1,1,1,2,2,32,128,162,,,,,,0,129,129,129,,,,,,,,,,,,,,,,,,,,,,,,,,,,,,,,,,,,,,,,,,,,,,,,,,,,,,,,,776.012018899999,776.5147847999997,776.5147847999997,777.2644479999999,777.2644479999999,777.7699448999992,777.7699448999992,778.6501926000001,778.6501926000001,None,num_6,0.27007360000061453,778.6501926000001,None,sad,1,Sad,778.936181699999,None,None,778.936181699999,None,,,,,,,,,,,,,,,,,,,,,,,,,,,,,,,,,,,,,,,,,,,,,,,,,,,,,43,001,1,21,550,550,2022_Nov_21_1408,Experiment,2021.1.4,360.1994063792055,
images\S7_F_H_03.png,images\S7_F_H_03_scrambled.png,7,happy,30,female,6,,219,on,2,0.5,0.75,0.5,0.931,3,218,2,1,1,2,2,32,128,166,,,,,,0,130,130,130,,,,,,,,,,,,,,,,,,,,,,,,,,,,,,,,,,,,,,,,,,,,,,,,,,,,,,,,,778.999996999999,779.5054533999992,779.5054533999992,780.2607779999998,780.2607779999998,780.7633376999984,780.7633376999984,781.6963939999987,781.6963939999987,None,num_4,0.31209429999944405,781.6963939999987,None,happy,1,Happy,782.0324251999991,None,space,782.0324251999991,None,22.999856599999475,,,,,,,,,,,,,,,,,,,,,,,,,,,,,,,,,,,,,,,,,,,,,,,,,,,,43,001,1,21,550,550,2022_Nov_21_1408,Experiment,2021.1.4,360.1994063792055,
images\S10_M_H_03.png,images\S10_M_H_03_scrambled.png,10,happy,30,male,6,,57,off,1,0.5,0.75,0.5,0.854,3,56,1,1,2,0,0,0,0,6,,,,,,0,131,131,131,,,,,,,,,,,,,,,,,,,,,,,,,,,,,,,,,,,,,,,,,,,,,,,,,,,,,,,,,805.0864017999993,805.5918605999996,805.5918605999996,806.3445250999994,806.3445250999994,806.8499135999991,806.8499135999991,807.7106583999994,807.7106583999994,None,num_4,0.34586449999915203,807.7106583999994,None,happy,1,Happy,808.06888668,None,None,808.06888668,None,,,,,,,,,,,,,,,,,,,,,,,,,,,,,,,,,,,,,,,,,,,,,,,,,,,,,43,001,1,21,550,550,2022_Nov_21_1408,Experiment,2021.1.4,360.1994063792055,
images\S10_M_H_01.png,images\S10_M_H_01_scrambled.png,10,happy,10,male,4,,355,on,2,0.5,0.75,0.5,0.913,3,354,1,2,1,2,2,32,128,164,,,,,,0,132,132,132,,,,,,,,,,,,,,,,,,,,,,,,,,,,,,,,,,,,,,,,,,,,,,,,,,,,,,,,,808.1188253,808.6186684999993,808.6186684999993,809.3741083999994,809.3741083999994,809.8738806000001,809.8738806000001,810.7902991999999,810.7902991999999,None,num_4,0.2980501000001823,810.7902991999999,None,happy,1,Happy,811.1069665200005,None,None,811.1069665200005,None,,,,,,,,,,,,,,,,,,,,,,,,,,,,,,,,,,,,,,,,,,,,,,,,,,,,,43,001,1,21,550,550,2022_Nov_21_1408,Experiment,2021.1.4,360.1994063792055,
images\S3_F_H_03.png,images\S3_F_H_03_scrambled.png,3,happy,30,female,6,,555,on,2,0.5,0.75,0.5,0.923,3,554,2,1,1,2,2,32,128,166,,,,,,0,133,133,133,,,,,,,,,,,,,,,,,,,,,,,,,,,,,,,,,,,,,,,,,,,,,,,,,,,,,,,,,811.1595548999994,811.6621925,811.6621925,812.4148713999984,812.4148713999984,812.9202134999996,812.9202134999996,813.8449584999998,813.8449584999998,None,num_4,0.28336679999847547,813.8449584999998,None,happy,1,Happy,814.1476672199999,None,None,814.1476672199999,None,,,,,,,,,,,,,,,,,,,,,,,,,,,,,,,,,,,,,,,,,,,,,,,,,,,,,43,001,1,21,550,550,2022_Nov_21_1408,Experiment,2021.1.4,360.1994063792055,
images\S2_M_S_01.png,images\S2_M_S_01_scrambled.png,2,sad,-10,male,3,,250,off,1,0.5,0.75,0.5,0.778,3,249,1,1,1,0,0,0,0,3,,,,,,0,134,134,134,,,,,,,,,,,,,,,,,,,,,,,,,,,,,,,,,,,,,,,,,,,,,,,,,,,,,,,,,814.2002948999998,814.7057464999998,814.7057464999998,815.4582952000001,815.4582952000001,815.9608993000002,815.9608993000002,816.7412102999988,816.7412102999988,None,num_4,0.2673144999989745,816.7412102999988,None,happy,1,Sad,817.0133386399998,None,None,817.0133386399998,None,,,,,,,,,,,,,,,,,,,,,,,,,,,,,,,,,,,,,,,,,,,,,,,,,,,,,43,001,1,21,550,550,2022_Nov_21_1408,Experiment,2021.1.4,360.1994063792055,
images\S4_M_S_03.png,images\S4_M_S_03_scrambled.png,4,sad,-30,male,1,,144,off,1,0.5,0.75,0.5,0.931,3,143,2,1,1,0,0,0,0,1,,,,,,0,135,135,135,,,,,,,,,,,,,,,,,,,,,,,,,,,,,,,,,,,,,,,,,,,,,,,,,,,,,,,,,817.0966242999984,817.5993805999988,817.5993805999988,818.3490440999994,818.3490440999994,818.8488601999998,818.8488601999998,819.7791318,819.7791318,None,num_6,0.21329080000032263,819.7791318,None,sad,1,Sad,820.018056039999,None,None,820.018056039999,None,,,,,,,,,,,,,,,,,,,,,,,,,,,,,,,,,,,,,,,,,,,,,,,,,,,,,43,001,1,21,550,550,2022_Nov_21_1408,Experiment,2021.1.4,360.1994063792055,
images\S5_F_H_01.png,images\S5_F_H_01_scrambled.png,5,happy,10,female,4,,205,on,2,0.5,0.75,0.5,0.9,3,204,1,1,1,2,2,32,128,164,,,,,,0,136,136,136,,,,,,,,,,,,,,,,,,,,,,,,,,,,,,,,,,,,,,,,,,,,,,,,,,,,,,,,,820.0845849999987,820.5901005999986,820.5901005999986,821.3397842999984,821.3397842999984,821.8452373,821.8452373,822.7504697999993,822.7504697999993,None,num_4,0.2497854000012012,822.7504697999993,None,happy,1,Happy,823.0254584600003,None,None,823.0254584600003,None,,,,,,,,,,,,,,,,,,,,,,,,,,,,,,,,,,,,,,,,,,,,,,,,,,,,,43,001,1,21,550,550,2022_Nov_21_1408,Experiment,2021.1.4,360.1994063792055,
images\S7_F_S_03.png,images\S7_F_S_03_scrambled.png,7,sad,-30,female,1,,402,off,1,0.5,0.75,0.5,0.918,3,401,1,1,1,0,0,0,0,1,,,,,,0,137,137,137,,,,,,,,,,,,,,,,,,,,,,,,,,,,,,,,,,,,,,,,,,,,,,,,,,,,,,,,,823.0781167999994,823.5807414999999,823.5807414999999,824.3361031999993,824.3361031999993,824.8414900999996,824.8414900999996,825.7634023999999,825.7634023999999,None,num_6,0.05306329999984882,825.7634023999999,None,sad,1,Sad,825.83849074,None,None,825.83849074,None,,,,,,,,,,,,,,,,,,,,,,,,,,,,,,,,,,,,,,,,,,,,,,,,,,,,,43,001,1,21,550,550,2022_Nov_21_1408,Experiment,2021.1.4,360.1994063792055,
images\S6_M_S_02.png,images\S6_M_S_02_scrambled.png,6,sad,-20,male,2,,395,off,1,0.5,0.75,0.5,0.874,3,394,2,1,1,0,0,0,0,2,,,,,,0,138,138,138,,,,,,,,,,,,,,,,,,,,,,,,,,,,,,,,,,,,,,,,,,,,,,,,,,,,,,,,,825.893917899999,826.3965389999994,826.3965389999994,827.1518804999996,827.1518804999996,827.6544849999991,827.6544849999991,828.5320154000001,828.5320154000001,None,num_6,0.3962621999999101,828.5320154000001,None,sad,1,Sad,828.945837199999,None,None,828.945837199999,None,,,,,,,,,,,,,,,,,,,,,,,,,,,,,,,,,,,,,,,,,,,,,,,,,,,,,43,001,1,21,550,550,2022_Nov_21_1408,Experiment,2021.1.4,360.1994063792055,
images\S4_M_S_01.png,images\S4_M_S_01_scrambled.png,4,sad,-10,male,3,,382,off,1,0.5,0.75,0.5,0.809,3,381,3,1,1,0,0,0,0,3,,,,,,0,139,139,139,,,,,,,,,,,,,,,,,,,,,,,,,,,,,,,,,,,,,,,,,,,,,,,,,,,,,,,,,828.9929706999992,829.4956261999996,829.4956261999996,830.2481432999994,830.2481432999994,830.7507709000001,830.7507709000001,831.5616556999994,831.5616556999994,None,num_6,0.2306669999998121,831.5616556999994,None,sad,1,Sad,831.8060544999989,None,None,831.8060544999989,None,,,,,,,,,,,,,,,,,,,,,,,,,,,,,,,,,,,,,,,,,,,,,,,,,,,,,43,001,1,21,550,550,2022_Nov_21_1408,Experiment,2021.1.4,360.1994063792055,
