image_face,image_scram,avatar,emo,emotion,sex,trigeeg,dac,trial_no,NMES,stimtime,baseline,iti,face,scr_face,resp_time,index,count_NMES,count_avatar,count_emotion,dac1,dac2,dac1_output,dac2_output,trigs_out,nmes,practice_trials.thisRepN,practice_trials.thisTrialN,practice_trials.thisN,practice_trials.thisIndex,real_trials.thisRepN,real_trials.thisTrialN,real_trials.thisN,real_trials.thisIndex,trials.thisRepN,trials.thisTrialN,trials.thisN,trials.thisIndex,position,Welcome.started,Welcome.stopped,Welcome_resp.keys,Welcome_resp.rt,text_2.started,text_2.stopped,form_2.index,form_2.itemText,form_2.type,form_2.response,form_2.rt,key_resp_4.keys,key_resp_4.rt,key_resp_4.started,key_resp_4.stopped,instructions.started,instructions.stopped,end_instr.keys,end_instr.rt,instructions_2.started,instructions_2.stopped,end_instr_2.keys,end_instr_2.rt,end_instr_2.started,end_instr_2.stopped,instruct_keypress.started,instruct_keypress.stopped,end_instruct_keypress.keys,end_instruct_keypress.rt,start_practice.started,start_practice.stopped,start_practice_resp.keys,start_practice_resp.rt,prac_baseline.started,prac_baseline.stopped,prac_iti.started,prac_iti.stopped,prac_stimulus.started,prac_stimulus.stopped,prac_scram_stim.started,prac_scram_stim.stopped,prac_stimulus_resp.started,prac_stimulus_resp.stopped,prac_resp.keys,prac_resp.started,prac_resp.stopped,prac_resp.rt,transition_to_real.started,transition_to_real.stopped,end_transition_to_real.keys,end_transition_to_real.rt,fixation_cross.started,fixation_cross.stopped,tr_iti.started,tr_iti.stopped,stimulus.started,stimulus.stopped,scram_stim.started,scram_stim.stopped,response_txt.started,response_txt.stopped,response.keys,response.rt,response.started,response.stopped,participant_Resp,grouping,corAnswer,break_msg.started,break_msg.stopped,end_break.keys,end_break.started,end_break.stopped,end_break.rt,text.started,text.stopped,key_resp_3.keys,key_resp_3.rt,key_resp_3.started,key_resp_3.stopped,fix_cross_comf.started,fix_cross_comf.stopped,stimulation_comf.started,stimulation_comf.stopped,rate_instr.started,rate_instr.stopped,comfort_rating.response,comfort_rating.rt,comfort_rating.started,comfort_rating.stopped,resp_form.keys,resp_form.rt,resp_form.started,resp_form.stopped,survey_instructions.started,survey_instructions.stopped,key_resp_2.keys,key_resp_2.rt,key_resp_2.started,key_resp_2.stopped,form.index,form.itemText,form.type,form.response,form.rt,key_resp.keys,key_resp.rt,key_resp.started,key_resp.stopped,text_3.started,text_3.stopped,rate_smile.response,rate_smile.rt,rate_smile.started,rate_smile.stopped,key_resp_5.keys,key_resp_5.rt,key_resp_5.started,key_resp_5.stopped,end_msg.started,end_msg.stopped,end_resp.keys,end_resp.rt,end_resp.started,end_resp.stopped,participant,session,gender,age,LEFT,RIGHT,date,expName,psychopyVersion,frameRate,
,,,,,,,,,,,,,,,,,,,,,,,,,,,,,,,,,,,,,,S-H,25.28340599999956,None,num_add,5.789190599999529,,,,,,,,,,,,,,,,,,,,,,,,,,,,,,,,,,,,,,,,,,,,,,,,,,,,,,,,,,,,,,,,,,,,,,,,,,,,,,,,,,,,,,,,,,,,,,,,,,,,,,,,,,,,,,,,,,,,,,,,,,44,001,0,23,500,500,2022_Nov_23_1307,Experiment,2021.1.4,360.36165896827026,
,,,,,,,,,,,,,,,,,,,,,,,,,,,,,,,,,,,,,,,,,,,31.087077499999396,33.11977630000001,1,"This scale consistes of a number of words that describe different feelings and emotion. Read each item and then list the number from the scale below each word. Indicate (by clicking) to what extend you feel this way RIGHT NOW, that is, AT THE PRESENT MOMENT.",description,,,,,,,,,,,,,,,,,,,,,,,,,,,,,,,,,,,,,,,,,,,,,,,,,,,,,,,,,,,,,,,,,,,,,,,,,,,,,,,,,,,,,,,,,,,,,,,,,,,,,,,,,,,,,,,,,,,,,44,001,0,23,500,500,2022_Nov_23_1307,Experiment,2021.1.4,360.36165896827026,
,,,,,,,,,,,,,,,,,,,,,,,,,,,,,,,,,,,,,,,,,,,,,2,Interested,rating,4.0,20.272380699999303,,,,,,,,,,,,,,,,,,,,,,,,,,,,,,,,,,,,,,,,,,,,,,,,,,,,,,,,,,,,,,,,,,,,,,,,,,,,,,,,,,,,,,,,,,,,,,,,,,,,,,,,,,,,,,,,,,,44,001,0,23,500,500,2022_Nov_23_1307,Experiment,2021.1.4,360.36165896827026,
,,,,,,,,,,,,,,,,,,,,,,,,,,,,,,,,,,,,,,,,,,,,,3,Distressed,rating,1.0,24.183790000000045,,,,,,,,,,,,,,,,,,,,,,,,,,,,,,,,,,,,,,,,,,,,,,,,,,,,,,,,,,,,,,,,,,,,,,,,,,,,,,,,,,,,,,,,,,,,,,,,,,,,,,,,,,,,,,,,,,,44,001,0,23,500,500,2022_Nov_23_1307,Experiment,2021.1.4,360.36165896827026,
,,,,,,,,,,,,,,,,,,,,,,,,,,,,,,,,,,,,,,,,,,,,,4,Excited,rating,4.0,25.998541299999488,,,,,,,,,,,,,,,,,,,,,,,,,,,,,,,,,,,,,,,,,,,,,,,,,,,,,,,,,,,,,,,,,,,,,,,,,,,,,,,,,,,,,,,,,,,,,,,,,,,,,,,,,,,,,,,,,,,44,001,0,23,500,500,2022_Nov_23_1307,Experiment,2021.1.4,360.36165896827026,
,,,,,,,,,,,,,,,,,,,,,,,,,,,,,,,,,,,,,,,,,,,,,5,Upset,rating,1.0,31.33920599999965,,,,,,,,,,,,,,,,,,,,,,,,,,,,,,,,,,,,,,,,,,,,,,,,,,,,,,,,,,,,,,,,,,,,,,,,,,,,,,,,,,,,,,,,,,,,,,,,,,,,,,,,,,,,,,,,,,,44,001,0,23,500,500,2022_Nov_23_1307,Experiment,2021.1.4,360.36165896827026,
,,,,,,,,,,,,,,,,,,,,,,,,,,,,,,,,,,,,,,,,,,,,,6,Strong,rating,4.0,35.05259910000041,,,,,,,,,,,,,,,,,,,,,,,,,,,,,,,,,,,,,,,,,,,,,,,,,,,,,,,,,,,,,,,,,,,,,,,,,,,,,,,,,,,,,,,,,,,,,,,,,,,,,,,,,,,,,,,,,,,44,001,0,23,500,500,2022_Nov_23_1307,Experiment,2021.1.4,360.36165896827026,
,,,,,,,,,,,,,,,,,,,,,,,,,,,,,,,,,,,,,,,,,,,,,7,Guilty,rating,2.0,11.888271099999656,,,,,,,,,,,,,,,,,,,,,,,,,,,,,,,,,,,,,,,,,,,,,,,,,,,,,,,,,,,,,,,,,,,,,,,,,,,,,,,,,,,,,,,,,,,,,,,,,,,,,,,,,,,,,,,,,,,44,001,0,23,500,500,2022_Nov_23_1307,Experiment,2021.1.4,360.36165896827026,
,,,,,,,,,,,,,,,,,,,,,,,,,,,,,,,,,,,,,,,,,,,,,8,Scared,rating,1.0,13.531826899999942,,,,,,,,,,,,,,,,,,,,,,,,,,,,,,,,,,,,,,,,,,,,,,,,,,,,,,,,,,,,,,,,,,,,,,,,,,,,,,,,,,,,,,,,,,,,,,,,,,,,,,,,,,,,,,,,,,,44,001,0,23,500,500,2022_Nov_23_1307,Experiment,2021.1.4,360.36165896827026,
,,,,,,,,,,,,,,,,,,,,,,,,,,,,,,,,,,,,,,,,,,,,,9,Hostile,rating,1.0,8.116637099999934,,,,,,,,,,,,,,,,,,,,,,,,,,,,,,,,,,,,,,,,,,,,,,,,,,,,,,,,,,,,,,,,,,,,,,,,,,,,,,,,,,,,,,,,,,,,,,,,,,,,,,,,,,,,,,,,,,,44,001,0,23,500,500,2022_Nov_23_1307,Experiment,2021.1.4,360.36165896827026,
,,,,,,,,,,,,,,,,,,,,,,,,,,,,,,,,,,,,,,,,,,,,,10,Enthusiastic,rating,4.0,9.678267700000106,,,,,,,,,,,,,,,,,,,,,,,,,,,,,,,,,,,,,,,,,,,,,,,,,,,,,,,,,,,,,,,,,,,,,,,,,,,,,,,,,,,,,,,,,,,,,,,,,,,,,,,,,,,,,,,,,,,44,001,0,23,500,500,2022_Nov_23_1307,Experiment,2021.1.4,360.36165896827026,
,,,,,,,,,,,,,,,,,,,,,,,,,,,,,,,,,,,,,,,,,,,,,11,Proud,rating,3.0,5.469813400000021,,,,,,,,,,,,,,,,,,,,,,,,,,,,,,,,,,,,,,,,,,,,,,,,,,,,,,,,,,,,,,,,,,,,,,,,,,,,,,,,,,,,,,,,,,,,,,,,,,,,,,,,,,,,,,,,,,,44,001,0,23,500,500,2022_Nov_23_1307,Experiment,2021.1.4,360.36165896827026,
,,,,,,,,,,,,,,,,,,,,,,,,,,,,,,,,,,,,,,,,,,,,,12,Irritable,rating,1.0,7.496246400000018,,,,,,,,,,,,,,,,,,,,,,,,,,,,,,,,,,,,,,,,,,,,,,,,,,,,,,,,,,,,,,,,,,,,,,,,,,,,,,,,,,,,,,,,,,,,,,,,,,,,,,,,,,,,,,,,,,,44,001,0,23,500,500,2022_Nov_23_1307,Experiment,2021.1.4,360.36165896827026,
,,,,,,,,,,,,,,,,,,,,,,,,,,,,,,,,,,,,,,,,,,,,,13,Alert,rating,4.0,7.911006599999382,,,,,,,,,,,,,,,,,,,,,,,,,,,,,,,,,,,,,,,,,,,,,,,,,,,,,,,,,,,,,,,,,,,,,,,,,,,,,,,,,,,,,,,,,,,,,,,,,,,,,,,,,,,,,,,,,,,44,001,0,23,500,500,2022_Nov_23_1307,Experiment,2021.1.4,360.36165896827026,
,,,,,,,,,,,,,,,,,,,,,,,,,,,,,,,,,,,,,,,,,,,,,14,Ashamed,rating,1.0,9.542465499999707,,,,,,,,,,,,,,,,,,,,,,,,,,,,,,,,,,,,,,,,,,,,,,,,,,,,,,,,,,,,,,,,,,,,,,,,,,,,,,,,,,,,,,,,,,,,,,,,,,,,,,,,,,,,,,,,,,,44,001,0,23,500,500,2022_Nov_23_1307,Experiment,2021.1.4,360.36165896827026,
,,,,,,,,,,,,,,,,,,,,,,,,,,,,,,,,,,,,,,,,,,,,,15,Inspired,rating,4.0,14.466732100000627,,,,,,,,,,,,,,,,,,,,,,,,,,,,,,,,,,,,,,,,,,,,,,,,,,,,,,,,,,,,,,,,,,,,,,,,,,,,,,,,,,,,,,,,,,,,,,,,,,,,,,,,,,,,,,,,,,,44,001,0,23,500,500,2022_Nov_23_1307,Experiment,2021.1.4,360.36165896827026,
,,,,,,,,,,,,,,,,,,,,,,,,,,,,,,,,,,,,,,,,,,,,,16,Nervous,rating,1.0,11.703929999999673,,,,,,,,,,,,,,,,,,,,,,,,,,,,,,,,,,,,,,,,,,,,,,,,,,,,,,,,,,,,,,,,,,,,,,,,,,,,,,,,,,,,,,,,,,,,,,,,,,,,,,,,,,,,,,,,,,,44,001,0,23,500,500,2022_Nov_23_1307,Experiment,2021.1.4,360.36165896827026,
,,,,,,,,,,,,,,,,,,,,,,,,,,,,,,,,,,,,,,,,,,,,,17,Determined,rating,3.0,17.56400289999965,,,,,,,,,,,,,,,,,,,,,,,,,,,,,,,,,,,,,,,,,,,,,,,,,,,,,,,,,,,,,,,,,,,,,,,,,,,,,,,,,,,,,,,,,,,,,,,,,,,,,,,,,,,,,,,,,,,44,001,0,23,500,500,2022_Nov_23_1307,Experiment,2021.1.4,360.36165896827026,
,,,,,,,,,,,,,,,,,,,,,,,,,,,,,,,,,,,,,,,,,,,,,18,Attentive,rating,4.0,16.534358200000497,,,,,,,,,,,,,,,,,,,,,,,,,,,,,,,,,,,,,,,,,,,,,,,,,,,,,,,,,,,,,,,,,,,,,,,,,,,,,,,,,,,,,,,,,,,,,,,,,,,,,,,,,,,,,,,,,,,44,001,0,23,500,500,2022_Nov_23_1307,Experiment,2021.1.4,360.36165896827026,
,,,,,,,,,,,,,,,,,,,,,,,,,,,,,,,,,,,,,,,,,,,,,19,Jittery,rating,1.0,13.029962099999466,,,,,,,,,,,,,,,,,,,,,,,,,,,,,,,,,,,,,,,,,,,,,,,,,,,,,,,,,,,,,,,,,,,,,,,,,,,,,,,,,,,,,,,,,,,,,,,,,,,,,,,,,,,,,,,,,,,44,001,0,23,500,500,2022_Nov_23_1307,Experiment,2021.1.4,360.36165896827026,
,,,,,,,,,,,,,,,,,,,,,,,,,,,,,,,,,,,,,,,,,,,,,20,Active,rating,5.0,9.131608199999391,,,,,,,,,,,,,,,,,,,,,,,,,,,,,,,,,,,,,,,,,,,,,,,,,,,,,,,,,,,,,,,,,,,,,,,,,,,,,,,,,,,,,,,,,,,,,,,,,,,,,,,,,,,,,,,,,,,44,001,0,23,500,500,2022_Nov_23_1307,Experiment,2021.1.4,360.36165896827026,
,,,,,,,,,,,,,,,,,,,,,,,,,,,,,,,,,,,,,,,,,,,,,21,Afraid,rating,1.0,5.474365400000352,,,,,,,,,,,,,,,,,,,,,,,,,,,,,,,,,,,,,,,,,,,,,,,,,,,,,,,,,,,,,,,,,,,,,,,,,,,,,,,,,,,,,,,,,,,,,,,,,,,,,,,,,,,,,,,,,,,44,001,0,23,500,500,2022_Nov_23_1307,Experiment,2021.1.4,360.36165896827026,
,,,,,,,,,,,,,,,,,,,,,,,,,,,,,,,,,,,,,,,,,,,,,22,Press the + button to submit your answers,description,,,,,,,,,,,,,,,,,,,,,,,,,,,,,,,,,,,,,,,,,,,,,,,,,,,,,,,,,,,,,,,,,,,,,,,,,,,,,,,,,,,,,,,,,,,,,,,,,,,,,,,,,,,,,,,,,,,,,44,001,0,23,500,500,2022_Nov_23_1307,Experiment,2021.1.4,360.36165896827026,
,,,,,,,,,,,,,,,,,,,,,,,,,,,,,,,,,,,,,,,,,,,,,,,,,,num_add,75.45879239999977,41.133965299999545,None,,,,,,,,,,,,,,,,,,,,,,,,,,,,,,,,,,,,,,,,,,,,,,,,,,,,,,,,,,,,,,,,,,,,,,,,,,,,,,,,,,,,,,,,,,,,,,,,,,,,,,,,,,,,,,,44,001,0,23,500,500,2022_Nov_23_1307,Experiment,2021.1.4,360.36165896827026,
,,,,,,,,,,,,,,,,,,,,,,,,,,,,,,,,,,,,,,,,,,,,,,,,,,,,,,116.62482339999951,None,num_add,19.159878399999798,,,,,,,,,,,,,,,,,,,,,,,,,,,,,,,,,,,,,,,,,,,,,,,,,,,,,,,,,,,,,,,,,,,,,,,,,,,,,,,,,,,,,,,,,,,,,,,,,,,,,,,,,,,44,001,0,23,500,500,2022_Nov_23_1307,Experiment,2021.1.4,360.36165896827026,
,,,,,,,,,,,,,,,,,,,,,,,,,,,,,,,,,,,,,,,,,,,,,,,,,,,,,,,,,,135.7966235999993,None,num_add,15.716116399999919,135.7966235999993,None,,,,,,,,,,,,,,,,,,,,,,,,,,,,,,,,,,,,,,,,,,,,,,,,,,,,,,,,,,,,,,,,,,,,,,,,,,,,,,,,,,,,,,,,,,,,,,,,,,,,,44,001,0,23,500,500,2022_Nov_23_1307,Experiment,2021.1.4,360.36165896827026,
,,,,,,,,,,,,,,,,,,,,,,,,,,,,,,,,,,,,,,,,,,,,,,,,,,,,,,,,,,,,,,,,151.53624459999992,None,num_add,15.944509899999503,,,,,,,,,,,,,,,,,,,,,,,,,,,,,,,,,,,,,,,,,,,,,,,,,,,,,,,,,,,,,,,,,,,,,,,,,,,,,,,,,,,,,,,,,,,,,,,,,44,001,0,23,500,500,2022_Nov_23_1307,Experiment,2021.1.4,360.36165896827026,
,,,,,,,,,,,,,,,,,,,,,,,,,,,,,,,,,,,,,,,,,,,,,,,,,,,,,,,,,,,,,,,,,,,,167.48969749999924,None,space,101.26322540000001,,,,,,,,,,,,,,,,,,,,,,,,,,,,,,,,,,,,,,,,,,,,,,,,,,,,,,,,,,,,,,,,,,,,,,,,,,,,,,,,,,,,,,,,,,,,,44,001,0,23,500,500,2022_Nov_23_1307,Experiment,2021.1.4,360.36165896827026,
images\S22_M_S_03.png,images\S22_M_S_03_scrambled.png,22,Sad,0.3,M,0,0,practice,on,2,0.5,0.75,0.5,0.87,3,,,,,,,,,,,0,0,0,4,,,,,,,,,,,,,,,,,,,,,,,,,,,,,,,,,,,,,,,,,,,268.9363014999999,269.43899389999933,269.43899389999933,270.19434119999914,270.19434119999914,270.69975089999934,270.69975089999934,271.5716745999998,271.5716745999998,None,None,271.5716745999998,None,,,,,,,,,,,,,,,,,,,,,,,,,,,,,,,,,,,,,,,,,,,,,,,,,,,,,,,,,,,,,,,,,,,,,,,,,,,,,,,,44,001,0,23,500,500,2022_Nov_23_1307,Experiment,2021.1.4,360.36165896827026,
images\S22_M_H_02.png,images\S22_M_H_02_scrambled.png,22,Happy,-0.2,M,0,0,practice,off,1,0.5,0.75,0.5,0.883,3,,,,,,,,,,,0,1,1,2,,,,,,,,,,,,,,,,,,,,,,,,,,,,,,,,,,,,,,,,,,,274.6568376999994,275.1622467999996,275.1622467999996,275.91201589999946,275.91201589999946,276.41184879999946,276.41184879999946,277.3005095999997,277.3005095999997,274.6568376999994,num_6,277.3005095999997,274.6568376999994,2.3408560999996553,,,,,,,,,,,,,,,,,,,,,,,,,,,,,,,,,,,,,,,,,,,,,,,,,,,,,,,,,,,,,,,,,,,,,,,,,,,,,,,44,001,0,23,500,500,2022_Nov_23_1307,Experiment,2021.1.4,360.36165896827026,
images\S21_F_H_02.png,images\S21_F_H_02_scrambled.png,21,Happy,-0.2,F,0,0,practice,off,1,0.5,0.75,0.5,0.91,3,,,,,,,,,,,0,2,2,1,,,,,,,,,,,,,,,,,,,,,,,,,,,,,,,,,,,,,,,,,,,279.72750929999984,280.23024609999993,280.23024609999993,280.98269699999946,280.98269699999946,281.4880991,281.4880991,282.4017643999996,282.4017643999996,None,num_6,282.4017643999996,None,0.5115285000001677,,,,,,,,,,,,,,,,,,,,,,,,,,,,,,,,,,,,,,,,,,,,,,,,,,,,,,,,,,,,,,,,,,,,,,,,,,,,,,,44,001,0,23,500,500,2022_Nov_23_1307,Experiment,2021.1.4,360.36165896827026,
images\S22_M_S_02.png,images\S22_M_S_02_scrambled.png,22,Sad,0.2,M,0,0,practice,on,2,0.5,0.75,0.5,0.783,3,,,,,,,,,,,0,3,3,6,,,,,,,,,,,,,,,,,,,,,,,,,,,,,,,,,,,,,,,,,,,283.02926109999953,283.53188559999944,283.53188559999944,284.28165569999965,284.28165569999965,284.7871202999995,284.7871202999995,285.57292659999985,285.57292659999985,None,num_4,285.57292659999985,None,0.28449410000030184,,,,,,,,,,,,,,,,,,,,,,,,,,,,,,,,,,,,,,,,,,,,,,,,,,,,,,,,,,,,,,,,,,,,,,,,,,,,,,,44,001,0,23,500,500,2022_Nov_23_1307,Experiment,2021.1.4,360.36165896827026,
images\S22_M_S_02.png,images\S22_M_S_02_scrambled.png,22,Sad,0.2,M,0,0,practice,off,1,0.5,0.75,0.5,0.751,3,,,,,,,,,,,0,4,4,3,,,,,,,,,,,,,,,,,,,,,,,,,,,,,,,,,,,,,,,,,,,285.90893909999977,286.40878429999975,286.40878429999975,287.16145400000005,287.16145400000005,287.6668194999993,287.6668194999993,288.4221162999993,288.4221162999993,None,num_4,288.4221162999993,None,2.9152878999993845,,,,,,,,,,,,,,,,,,,,,,,,,,,,,,,,,,,,,,,,,,,,,,,,,,,,,,,,,,,,,,,,,,,,,,,,,,,,,,,44,001,0,23,500,500,2022_Nov_23_1307,Experiment,2021.1.4,360.36165896827026,
images\S22_M_S_01.png,images\S22_M_S_01_scrambled.png,22,Sad,0.1,M,0,0,practice,on,2,0.5,0.75,0.5,0.867,3,,,,,,,,,,,0,5,5,5,,,,,,,,,,,,,,,,,,,,,,,,,,,,,,,,,,,,,,,,,,,291.4239166999996,291.9293590999996,291.9293590999996,292.6790945999992,292.6790945999992,293.1845239999993,293.1845239999993,294.0537411999994,294.0537411999994,None,num_6,294.0537411999994,None,0.6197794999998223,,,,,,,,,,,,,,,,,,,,,,,,,,,,,,,,,,,,,,,,,,,,,,,,,,,,,,,,,,,,,,,,,,,,,,,,,,,,,,,44,001,0,23,500,500,2022_Nov_23_1307,Experiment,2021.1.4,360.36165896827026,
images\S22_M_S_03.png,images\S22_M_S_03_scrambled.png,22,Sad,0.3,M,0,0,practice,on,2,0.5,0.75,0.5,0.794,3,,,,,,,,,,,0,6,6,7,,,,,,,,,,,,,,,,,,,,,,,,,,,,,,,,,,,,,,,,,,,294.72845789999974,295.2338970999999,295.2338970999999,295.9864087999995,295.9864087999995,296.4890370999992,296.4890370999992,297.28884279999966,297.28884279999966,None,None,297.28884279999966,None,,,,,,,,,,,,,,,,,,,,,,,,,,,,,,,,,,,,,,,,,,,,,,,,,,,,,,,,,,,,,,,,,,,,,,,,,,,,,,,,44,001,0,23,500,500,2022_Nov_23_1307,Experiment,2021.1.4,360.36165896827026,
images\S21_F_H_01.png,images\S21_F_H_01_scrambled.png,21,Happy,-0.1,F,0,0,practice,off,1,0.5,0.75,0.5,0.853,3,,,,,,,,,,,0,7,7,0,,,,,,,,,,,,,,,,,,,,,,,,,,,,,,,,,,,,,,,,,,,300.3739495,300.8765909999993,300.8765909999993,301.6263636999993,301.6263636999993,302.13180829999965,302.13180829999965,302.98703229999956,302.98703229999956,300.3739495,num_6,302.98703229999956,300.3739495,0.7021425000002637,,,,,,,,,,,,,,,,,,,,,,,,,,,,,,,,,,,,,,,,,,,,,,,,,,,,,,,,,,,,,,,,,,,,,,,,,,,,,,,44,001,0,23,500,500,2022_Nov_23_1307,Experiment,2021.1.4,360.36165896827026,
,,,,,,,,,,,,,,,,,,,,,,,,,,,,,,,,,,,,,,,,,,,,,,,,,,,,,,,,,,,,,,,,,,,,,,,,,,,,,,,,,,,,,,303.7229099999995,None,space,67.70195390000026,,,,,,,,,,,,,,,,,,,,,,,,,,,,,,,,,,,,,,,,,,,,,,,,,,,,,,,,,,,,,,,,,,,,,,,,,,,44,001,0,23,500,500,2022_Nov_23_1307,Experiment,2021.1.4,360.36165896827026,
images\S3_F_S_01.png,images\S3_F_S_01_scrambled.png,3,sad,-10,female,3,,556,on,2,0.5,0.75,0.5,0.909,3,555,1,1,1,2,2,32,128,163,,,,,,0,0,0,0,,,,,,,,,,,,,,,,,,,,,,,,,,,,,,,,,,,,,,,,,,,,,,,,,,,,,,,,,371.9325728999993,372.4380134999992,372.4380134999992,373.1933231999992,373.1933231999992,373.69872099999975,373.69872099999975,374.6067465999995,374.6067465999995,None,num_4,0.7627092000002449,374.6067465999995,None,sad,0,Sad,375.4010525599995,None,None,375.4010525599995,None,,,,,,,,,,,,,,,,,,,,,,,,,,,,,,,,,,,,,,,,,,,,,,,,,,,,,44,001,0,23,500,500,2022_Nov_23_1307,Experiment,2021.1.4,360.36165896827026,
images\S4_M_H_02.png,images\S4_M_H_02_scrambled.png,4,happy,20,male,5,,320,on,2,0.5,0.75,0.5,0.811,3,319,2,1,1,2,2,32,128,165,,,,,,0,1,1,1,,,,,,,,,,,,,,,,,,,,,,,,,,,,,,,,,,,,,,,,,,,,,,,,,,,,,,,,,375.5092412999993,376.01201459999993,376.01201459999993,376.7673135999994,376.7673135999994,377.2698395999996,377.2698395999996,378.0834952999994,378.0834952999994,None,num_6,0.42996949999997014,378.0834952999994,None,happy,0,Happy,378.52779745999925,None,None,378.52779745999925,None,,,,,,,,,,,,,,,,,,,,,,,,,,,,,,,,,,,,,,,,,,,,,,,,,,,,,44,001,0,23,500,500,2022_Nov_23_1307,Experiment,2021.1.4,360.36165896827026,
images\blank.jpg,images\blank.jpg,none,none,none,none,0,,632,on,2,0.5,0.75,0.5,0.781,0,631,3,1,1,3,3,48,192,240,,,,,,0,2,2,2,,,,,,,,,,,,,,,,,,,,,,,,,,,,,,,,,,,,,,,,,,,,,,,,,,,,,,,,,378.66704329999993,379.16926429999967,379.16926429999967,379.9218166999999,379.9218166999999,380.42731809999987,380.42731809999987,381.2130961999992,381.2130961999992,381.2130961999992,None,,381.2130961999992,None,miss,0,,384.2177614799997,None,None,384.2177614799997,None,,,,,,,,,,,,,,,,,,,,,,,,,,,,,,,,,,,,,,,,,,,,,,,,,,,,,44,001,0,23,500,500,2022_Nov_23_1307,Experiment,2021.1.4,360.36165896827026,
images\blank.jpg,images\blank.jpg,none,none,none,none,0,,650,on,2,0.5,0.75,0.5,0.941,0,649,4,2,2,3,3,48,192,240,,,,,,0,3,3,3,,,,,,,,,,,,,,,,,,,,,,,,,,,,,,,,,,,,,,,,,,,,,,,,,,,,,,,,,384.2454665999994,384.7453014999992,384.7453014999992,385.49506870000005,385.49506870000005,386.0005582999993,386.0005582999993,386.9447682,386.9447682,386.9447682,None,,386.9447682,384.2454665999994,miss,0,,389.94934947999934,None,None,389.94934947999934,None,,,,,,,,,,,,,,,,,,,,,,,,,,,,,,,,,,,,,,,,,,,,,,,,,,,,,44,001,0,23,500,500,2022_Nov_23_1307,Experiment,2021.1.4,360.36165896827026,
images\S10_M_H_03.png,images\S10_M_H_03_scrambled.png,10,happy,30,male,6,,57,off,1,0.5,0.75,0.5,0.854,3,56,1,1,1,0,0,0,0,6,,,,,,0,4,4,4,,,,,,,,,,,,,,,,,,,,,,,,,,,,,,,,,,,,,,,,,,,,,,,,,,,,,,,,,390.11333599999944,390.6129596999999,390.6129596999999,391.36828869999954,391.36828869999954,391.87376479999966,391.87376479999966,392.7345585999992,392.7345585999992,None,num_6,0.6429707999996026,392.7345585999992,390.11333599999944,happy,0,Happy,393.4037782199999,None,None,393.4037782199999,None,,,,,,,,,,,,,,,,,,,,,,,,,,,,,,,,,,,,,,,,,,,,,,,,,,,,,44,001,0,23,500,500,2022_Nov_23_1307,Experiment,2021.1.4,360.36165896827026,
images\S3_F_S_01.png,images\S3_F_S_01_scrambled.png,3,sad,-10,female,3,,256,off,1,0.5,0.75,0.5,0.909,3,255,2,1,1,0,0,0,0,3,,,,,,0,5,5,5,,,,,,,,,,,,,,,,,,,,,,,,,,,,,,,,,,,,,,,,,,,,,,,,,,,,,,,,,393.47040859999925,393.97580429999925,393.97580429999925,394.7285046999996,394.7285046999996,395.2338557999992,395.2338557999992,396.1446313999995,396.1446313999995,None,num_4,0.5450147999999899,396.1446313999995,None,sad,0,Sad,396.70556965999987,None,None,396.70556965999987,None,,,,,,,,,,,,,,,,,,,,,,,,,,,,,,,,,,,,,,,,,,,,,,,,,,,,,44,001,0,23,500,500,2022_Nov_23_1307,Experiment,2021.1.4,360.36165896827026,
images\S9_F_H_01.png,images\S9_F_H_01_scrambled.png,9,happy,10,female,4,,589,on,2,0.5,0.75,0.5,0.833,3,588,1,1,1,2,2,32,128,164,,,,,,0,6,6,6,,,,,,,,,,,,,,,,,,,,,,,,,,,,,,,,,,,,,,,,,,,,,,,,,,,,,,,,,396.7916239999995,397.29427289999967,397.29427289999967,398.0440188999992,398.0440188999992,398.5466864,398.5466864,399.38528719999977,399.38528719999977,None,num_6,1.168309799999406,399.38528719999977,None,happy,0,Happy,400.56826015999997,None,None,400.56826015999997,None,,,,,,,,,,,,,,,,,,,,,,,,,,,,,,,,,,,,,,,,,,,,,,,,,,,,,44,001,0,23,500,500,2022_Nov_23_1307,Experiment,2021.1.4,360.36165896827026,
images\S2_M_S_03.png,images\S2_M_S_03_scrambled.png,2,sad,-30,male,1,,132,off,1,0.5,0.75,0.5,0.817,3,131,1,1,1,0,0,0,0,1,,,,,,0,7,7,7,,,,,,,,,,,,,,,,,,,,,,,,,,,,,,,,,,,,,,,,,,,,,,,,,,,,,,,,,400.6543202999992,401.1541718999997,401.1541718999997,401.90676599999915,401.90676599999915,402.40937329999997,402.40937329999997,403.22863079999934,403.22863079999934,None,num_4,0.556994499999746,403.22863079999934,None,sad,0,Sad,403.8006049599997,None,None,403.8006049599997,None,,,,,,,,,,,,,,,,,,,,,,,,,,,,,,,,,,,,,,,,,,,,,,,,,,,,,44,001,0,23,500,500,2022_Nov_23_1307,Experiment,2021.1.4,360.36165896827026,
images\S4_M_S_02.png,images\S4_M_S_02_scrambled.png,4,sad,-20,male,2,,203,on,2,0.5,0.75,0.5,0.935,3,202,1,1,1,2,2,32,128,162,,,,,,0,8,8,8,,,,,,,,,,,,,,,,,,,,,,,,,,,,,,,,,,,,,,,,,,,,,,,,,,,,,,,,,403.88666079999985,404.3893260999994,404.3893260999994,405.1418943999997,405.1418943999997,405.64449219999915,405.64449219999915,406.58585389999917,406.58585389999917,None,num_4,0.5754616000003807,406.58585389999917,None,sad,0,Sad,407.1718058599998,None,None,407.1718058599998,None,,,,,,,,,,,,,,,,,,,,,,,,,,,,,,,,,,,,,,,,,,,,,,,,,,,,,44,001,0,23,500,500,2022_Nov_23_1307,Experiment,2021.1.4,360.36165896827026,
images\S1_F_S_02.png,images\S1_F_S_02_scrambled.png,1,sad,-20,female,2,,425,on,2,0.5,0.75,0.5,0.752,3,424,2,1,2,2,2,32,128,162,,,,,,0,9,9,9,,,,,,,,,,,,,,,,,,,,,,,,,,,,,,,,,,,,,,,,,,,,,,,,,,,,,,,,,407.25506889999997,407.7605029999995,407.7605029999995,408.51304749999963,408.51304749999963,409.01566319999984,409.01566319999984,409.7738380999999,409.7738380999999,None,num_4,1.4599980000002688,409.7738380999999,None,sad,0,Sad,411.25397723999976,None,None,411.25397723999976,None,,,,,,,,,,,,,,,,,,,,,,,,,,,,,,,,,,,,,,,,,,,,,,,,,,,,,44,001,0,23,500,500,2022_Nov_23_1307,Experiment,2021.1.4,360.36165896827026,
images\S5_F_H_02.png,images\S5_F_H_02_scrambled.png,5,happy,20,female,5,,326,on,2,0.5,0.75,0.5,0.894,3,325,3,1,1,2,2,32,128,165,,,,,,0,10,10,10,,,,,,,,,,,,,,,,,,,,,,,,,,,,,,,,,,,,,,,,,,,,,,,,,,,,,,,,,411.3565904999996,411.8592777999993,411.8592777999993,412.61453899999924,412.61453899999924,413.11719189999985,413.11719189999985,414.0141679999997,414.0141679999997,None,num_6,0.6112444000000323,414.0141679999997,None,happy,0,Happy,414.63896339999974,None,None,414.63896339999974,None,,,,,,,,,,,,,,,,,,,,,,,,,,,,,,,,,,,,,,,,,,,,,,,,,,,,,44,001,0,23,500,500,2022_Nov_23_1307,Experiment,2021.1.4,360.36165896827026,
images\S3_F_H_02.png,images\S3_F_H_02_scrambled.png,3,happy,20,female,5,,134,off,1,0.5,0.75,0.5,0.947,3,133,1,1,2,0,0,0,0,5,,,,,,0,11,11,11,,,,,,,,,,,,,,,,,,,,,,,,,,,,,,,,,,,,,,,,,,,,,,,,,,,,,,,,,414.72223009999925,415.22763719999966,415.22763719999966,415.97741059999953,415.97741059999953,416.48007789999974,416.48007789999974,417.42973170000005,417.42973170000005,None,num_6,0.48376569999982166,417.42973170000005,None,happy,0,Happy,417.9296026599994,None,None,417.9296026599994,None,,,,,,,,,,,,,,,,,,,,,,,,,,,,,,,,,,,,,,,,,,,,,,,,,,,,,44,001,0,23,500,500,2022_Nov_23_1307,Experiment,2021.1.4,360.36165896827026,
images\blank.jpg,images\blank.jpg,none,none,none,none,0,,612,on,2,0.5,0.75,0.5,0.766,0,611,1,1,1,3,3,48,192,240,,,,,,0,12,12,12,,,,,,,,,,,,,,,,,,,,,,,,,,,,,,,,,,,,,,,,,,,,,,,,,,,,,,,,,418.0130997999995,418.5155473999994,418.5155473999994,419.26805279999917,419.26805279999917,419.77072039999985,419.77072039999985,420.5372097999998,420.5372097999998,420.5372097999998,None,,420.5372097999998,None,miss,0,,423.53621323999977,None,None,423.53621323999977,None,,,,,,,,,,,,,,,,,,,,,,,,,,,,,,,,,,,,,,,,,,,,,,,,,,,,,44,001,0,23,500,500,2022_Nov_23_1307,Experiment,2021.1.4,360.36165896827026,
images\S4_M_S_03.png,images\S4_M_S_03_scrambled.png,4,sad,-30,male,1,,444,on,2,0.5,0.75,0.5,0.848,3,443,2,1,1,2,2,32,128,161,,,,,,0,13,13,13,,,,,,,,,,,,,,,,,,,,,,,,,,,,,,,,,,,,,,,,,,,,,,,,,,,,,,,,,423.68635259999974,424.18598779999957,424.18598779999957,424.9385407999998,424.9385407999998,425.4384336999992,425.4384336999992,426.29381749999993,426.29381749999993,None,num_4,0.45186959999955434,426.29381749999993,423.68635259999974,sad,0,Sad,426.76865991999927,None,None,426.76865991999927,None,,,,,,,,,,,,,,,,,,,,,,,,,,,,,,,,,,,,,,,,,,,,,,,,,,,,,44,001,0,23,500,500,2022_Nov_23_1307,Experiment,2021.1.4,360.36165896827026,
images\S5_F_H_03.png,images\S5_F_H_03_scrambled.png,5,happy,30,female,6,,87,on,2,0.5,0.75,0.5,0.887,3,86,3,1,1,2,2,32,128,166,,,,,,0,14,14,14,,,,,,,,,,,,,,,,,,,,,,,,,,,,,,,,,,,,,,,,,,,,,,,,,,,,,,,,,426.88238119999914,427.3850180999998,427.3850180999998,428.14037219999955,428.14037219999955,428.64296679999916,428.64296679999916,429.53449550000005,429.53449550000005,None,num_6,0.5630264999999781,429.53449550000005,None,happy,0,Happy,430.12032051999955,None,None,430.12032051999955,None,,,,,,,,,,,,,,,,,,,,,,,,,,,,,,,,,,,,,,,,,,,,,,,,,,,,,44,001,0,23,500,500,2022_Nov_23_1307,Experiment,2021.1.4,360.36165896827026,
images\S3_F_H_03.png,images\S3_F_H_03_scrambled.png,3,happy,30,female,6,,255,off,1,0.5,0.75,0.5,0.846,3,254,1,1,2,0,0,0,0,6,,,,,,0,15,15,15,,,,,,,,,,,,,,,,,,,,,,,,,,,,,,,,,,,,,,,,,,,,,,,,,,,,,,,,,430.23407619999944,430.7367807999999,430.7367807999999,431.4894310999998,431.4894310999998,431.99193079999986,431.99193079999986,432.8445849,432.8445849,None,num_6,0.5651772999999594,432.8445849,None,happy,0,Happy,433.42485175999974,None,None,433.42485175999974,None,,,,,,,,,,,,,,,,,,,,,,,,,,,,,,,,,,,,,,,,,,,,,,,,,,,,,44,001,0,23,500,500,2022_Nov_23_1307,Experiment,2021.1.4,360.36165896827026,
images\S5_F_H_02.png,images\S5_F_H_02_scrambled.png,5,happy,20,female,5,,506,off,1,0.5,0.75,0.5,0.899,3,505,2,1,1,0,0,0,0,5,,,,,,0,16,16,16,,,,,,,,,,,,,,,,,,,,,,,,,,,,,,,,,,,,,,,,,,,,,,,,,,,,,,,,,433.4720389999993,433.97476069999993,433.97476069999993,434.7300437999993,434.7300437999993,435.2354243,435.2354243,436.14070059999995,436.14070059999995,None,num_6,0.7810385000002498,436.14070059999995,None,happy,0,Happy,436.93489735999975,None,None,436.93489735999975,None,,,,,,,,,,,,,,,,,,,,,,,,,,,,,,,,,,,,,,,,,,,,,,,,,,,,,44,001,0,23,500,500,2022_Nov_23_1307,Experiment,2021.1.4,360.36165896827026,
images\S5_F_S_03.png,images\S5_F_S_03_scrambled.png,5,sad,-30,female,1,,450,on,2,0.5,0.75,0.5,0.779,3,449,1,2,1,2,2,32,128,161,,,,,,0,17,17,17,,,,,,,,,,,,,,,,,,,,,,,,,,,,,,,,,,,,,,,,,,,,,,,,,,,,,,,,,437.01817389999997,437.51803199999995,437.51803199999995,438.2707002999996,438.2707002999996,438.77601949999917,438.77601949999917,439.5618636999998,439.5618636999998,None,num_4,0.5752822999993441,439.5618636999998,None,sad,0,Sad,440.14780365999997,None,None,440.14780365999997,None,,,,,,,,,,,,,,,,,,,,,,,,,,,,,,,,,,,,,,,,,,,,,,,,,,,,,44,001,0,23,500,500,2022_Nov_23_1307,Experiment,2021.1.4,360.36165896827026,
images\S10_M_H_02.png,images\S10_M_H_02_scrambled.png,10,happy,20,male,5,,596,on,2,0.5,0.75,0.5,0.94,3,595,2,1,1,2,2,32,128,165,,,,,,0,18,18,18,,,,,,,,,,,,,,,,,,,,,,,,,,,,,,,,,,,,,,,,,,,,,,,,,,,,,,,,,440.23384389999956,440.7336923999992,440.7336923999992,441.4890177999996,441.4890177999996,441.9945461999996,441.9945461999996,442.94141219999983,442.94141219999983,None,num_6,0.5080391000001327,442.94141219999983,None,happy,0,Happy,443.4662298599995,None,None,443.4662298599995,None,,,,,,,,,,,,,,,,,,,,,,,,,,,,,,,,,,,,,,,,,,,,,,,,,,,,,44,001,0,23,500,500,2022_Nov_23_1307,Experiment,2021.1.4,360.36165896827026,
images\S7_F_S_01.png,images\S7_F_S_01_scrambled.png,7,sad,-10,female,3,,520,off,1,0.5,0.75,0.5,0.923,3,519,1,1,1,0,0,0,0,3,,,,,,0,19,19,19,,,,,,,,,,,,,,,,,,,,,,,,,,,,,,,,,,,,,,,,,,,,,,,,,,,,,,,,,443.5467251,444.0493472999997,444.0493472999997,444.8019018999994,444.8019018999994,445.30735639999966,445.30735639999966,446.2320667999993,446.2320667999993,None,num_4,0.4492169000004651,446.2320667999993,None,sad,0,Sad,446.6929933599993,None,None,446.6929933599993,None,,,,,,,,,,,,,,,,,,,,,,,,,,,,,,,,,,,,,,,,,,,,,,,,,,,,,44,001,0,23,500,500,2022_Nov_23_1307,Experiment,2021.1.4,360.36165896827026,
images\S2_M_H_02.png,images\S2_M_H_02_scrambled.png,2,happy,20,male,5,,128,off,1,0.5,0.75,0.5,0.928,3,127,2,1,1,0,0,0,0,5,,,,,,0,20,20,20,,,,,,,,,,,,,,,,,,,,,,,,,,,,,,,,,,,,,,,,,,,,,,,,,,,,,,,,,446.8068399999993,447.3094717999993,447.3094717999993,448.0620470999993,448.0620470999993,448.56744789999993,448.56744789999993,449.49772029999986,449.49772029999986,None,num_6,0.39196110000011686,449.49772029999986,None,happy,0,Happy,449.91157141999935,None,None,449.91157141999935,None,,,,,,,,,,,,,,,,,,,,,,,,,,,,,,,,,,,,,,,,,,,,,,,,,,,,,44,001,0,23,500,500,2022_Nov_23_1307,Experiment,2021.1.4,360.36165896827026,
images\S6_M_H_01.png,images\S6_M_H_01_scrambled.png,6,happy,10,male,4,,571,on,2,0.5,0.75,0.5,0.849,3,570,1,1,1,2,2,32,128,164,,,,,,0,21,21,21,,,,,,,,,,,,,,,,,,,,,,,,,,,,,,,,,,,,,,,,,,,,,,,,,,,,,,,,,450.02251799999976,450.52516599999944,450.52516599999944,451.27772559999994,451.27772559999994,451.7803400999992,451.7803400999992,452.6328694999993,452.6328694999993,None,num_6,0.9924911999996766,452.6328694999993,None,happy,0,Happy,453.6380798599992,None,None,453.6380798599992,None,,,,,,,,,,,,,,,,,,,,,,,,,,,,,,,,,,,,,,,,,,,,,,,,,,,,,44,001,0,23,500,500,2022_Nov_23_1307,Experiment,2021.1.4,360.36165896827026,
images\blank.jpg,images\blank.jpg,none,none,none,none,0,,613,on,2,0.5,0.75,0.5,0.916,0,612,2,1,1,3,3,48,192,240,,,,,,0,22,22,22,,,,,,,,,,,,,,,,,,,,,,,,,,,,,,,,,,,,,,,,,,,,,,,,,,,,,,,,,453.7216720999995,454.22120089999953,454.22120089999953,454.97100539999974,454.97100539999974,455.47090239999943,455.47090239999943,456.39002919999984,456.39002919999984,456.39002919999984,None,,456.39002919999984,None,miss,0,,459.3891440399995,None,None,459.3891440399995,None,,,,,,,,,,,,,,,,,,,,,,,,,,,,,,,,,,,,,,,,,,,,,,,,,,,,,44,001,0,23,500,500,2022_Nov_23_1307,Experiment,2021.1.4,360.36165896827026,
images\S9_F_S_03.png,images\S9_F_S_03_scrambled.png,9,sad,-30,female,1,,594,on,2,0.5,0.75,0.5,0.814,3,593,3,1,1,2,2,32,128,161,,,,,,0,23,23,23,,,,,,,,,,,,,,,,,,,,,,,,,,,,,,,,,,,,,,,,,,,,,,,,,,,,,,,,,459.5559386999994,460.0583422999998,460.0583422999998,460.8109465999996,460.8109465999996,461.3163156999999,461.3163156999999,462.1327173999998,462.1327173999998,None,num_4,0.4687093000002278,462.1327173999998,459.5559386999994,sad,0,Sad,462.61591435999964,None,None,462.61591435999964,None,,,,,,,,,,,,,,,,,,,,,,,,,,,,,,,,,,,,,,,,,,,,,,,,,,,,,44,001,0,23,500,500,2022_Nov_23_1307,Experiment,2021.1.4,360.36165896827026,
images\S5_F_H_03.png,images\S5_F_H_03_scrambled.png,5,happy,30,female,6,,147,off,1,0.5,0.75,0.5,0.861,3,146,1,1,1,0,0,0,0,6,,,,,,0,24,24,24,,,,,,,,,,,,,,,,,,,,,,,,,,,,,,,,,,,,,,,,,,,,,,,,,,,,,,,,,462.6630932999997,463.1685002999993,463.1685002999993,463.92103789999965,463.92103789999965,464.4208767,464.4208767,465.2873088999995,465.2873088999995,None,num_6,0.42627079999965645,465.2873088999995,None,happy,0,Happy,465.72883725999947,None,None,465.72883725999947,None,,,,,,,,,,,,,,,,,,,,,,,,,,,,,,,,,,,,,,,,,,,,,,,,,,,,,44,001,0,23,500,500,2022_Nov_23_1307,Experiment,2021.1.4,360.36165896827026,
images\S9_F_S_02.png,images\S9_F_S_02_scrambled.png,9,sad,-20,female,2,,473,on,2,0.5,0.75,0.5,0.932,3,472,1,1,1,2,2,32,128,162,,,,,,0,25,25,25,,,,,,,,,,,,,,,,,,,,,,,,,,,,,,,,,,,,,,,,,,,,,,,,,,,,,,,,,465.8093450999995,466.30919919999997,466.30919919999997,467.0646494999992,467.0646494999992,467.5671634999999,467.5671634999999,468.5058233999998,468.5058233999998,None,num_4,0.5754911999993055,468.5058233999998,None,sad,0,Sad,469.0917220599993,None,None,469.0917220599993,None,,,,,,,,,,,,,,,,,,,,,,,,,,,,,,,,,,,,,,,,,,,,,,,,,,,,,44,001,0,23,500,500,2022_Nov_23_1307,Experiment,2021.1.4,360.36165896827026,
images\S6_M_H_03.png,images\S6_M_H_03_scrambled.png,6,happy,30,male,6,,573,on,2,0.5,0.75,0.5,0.868,3,572,2,1,1,2,2,32,128,166,,,,,,0,26,26,26,,,,,,,,,,,,,,,,,,,,,,,,,,,,,,,,,,,,,,,,,,,,,,,,,,,,,,,,,469.1749794999996,469.6748576,469.6748576,470.42740219999996,470.42740219999996,470.9327932999995,470.9327932999995,471.80752399999983,471.80752399999983,None,num_6,0.8101565999995728,471.80752399999983,None,happy,0,Happy,472.64346737999983,None,None,472.64346737999983,None,,,,,,,,,,,,,,,,,,,,,,,,,,,,,,,,,,,,,,,,,,,,,,,,,,,,,44,001,0,23,500,500,2022_Nov_23_1307,Experiment,2021.1.4,360.36165896827026,
images\S10_M_H_01.png,images\S10_M_H_01_scrambled.png,10,happy,10,male,4,,355,on,2,0.5,0.75,0.5,0.913,3,354,3,1,1,2,2,32,128,164,,,,,,0,27,27,27,,,,,,,,,,,,,,,,,,,,,,,,,,,,,,,,,,,,,,,,,,,,,,,,,,,,,,,,,472.7516599999999,473.2542851999997,473.2542851999997,474.00406509999993,474.00406509999993,474.5067294999999,474.5067294999999,475.4230754,475.4230754,None,num_6,0.9630529000005481,475.4230754,None,happy,0,Happy,476.4034651399999,None,None,476.4034651399999,None,,,,,,,,,,,,,,,,,,,,,,,,,,,,,,,,,,,,,,,,,,,,,,,,,,,,,44,001,0,23,500,500,2022_Nov_23_1307,Experiment,2021.1.4,360.36165896827026,
images\S4_M_H_02.png,images\S4_M_H_02_scrambled.png,4,happy,20,male,5,,380,off,1,0.5,0.75,0.5,0.862,3,379,1,1,1,0,0,0,0,5,,,,,,0,28,28,28,,,,,,,,,,,,,,,,,,,,,,,,,,,,,,,,,,,,,,,,,,,,,,,,,,,,,,,,,476.4560800999998,476.9559240999997,476.9559240999997,477.7057154999993,477.7057154999993,478.21115499999996,478.21115499999996,479.08041609999964,479.08041609999964,None,num_4,0.32966359999954875,479.08041609999964,None,sad,0,Happy,479.4163623799999,None,None,479.4163623799999,None,,,,,,,,,,,,,,,,,,,,,,,,,,,,,,,,,,,,,,,,,,,,,,,,,,,,,44,001,0,23,500,500,2022_Nov_23_1307,Experiment,2021.1.4,360.36165896827026,
images\S7_F_H_03.png,images\S7_F_H_03_scrambled.png,7,happy,30,female,6,,99,on,2,0.5,0.75,0.5,0.813,3,98,1,1,1,2,2,32,128,166,,,,,,0,29,29,29,,,,,,,,,,,,,,,,,,,,,,,,,,,,,,,,,,,,,,,,,,,,,,,,,,,,,,,,,479.5273578999995,480.0301058999994,480.0301058999994,480.7797806999997,480.7797806999997,481.28240579999965,481.28240579999965,482.10160929999984,482.10160929999984,None,num_6,0.6361369000005652,482.10160929999984,None,happy,0,Happy,482.76809929999945,None,None,482.76809929999945,None,,,,,,,,,,,,,,,,,,,,,,,,,,,,,,,,,,,,,,,,,,,,,,,,,,,,,44,001,0,23,500,500,2022_Nov_23_1307,Experiment,2021.1.4,360.36165896827026,
images\S7_F_S_03.png,images\S7_F_S_03_scrambled.png,7,sad,-30,female,1,,102,on,2,0.5,0.75,0.5,0.813,3,101,2,2,1,2,2,32,128,161,,,,,,0,30,30,30,,,,,,,,,,,,,,,,,,,,,,,,,,,,,,,,,,,,,,,,,,,,,,,,,,,,,,,,,482.85134859999926,483.35678389999975,483.35678389999975,484.1120895999993,484.1120895999993,484.6119076999994,484.6119076999994,485.43116159999954,485.43116159999954,None,num_4,0.35429349999958504,485.43116159999954,None,sad,0,Sad,485.81713799999943,None,None,485.81713799999943,None,,,,,,,,,,,,,,,,,,,,,,,,,,,,,,,,,,,,,,,,,,,,,,,,,,,,,44,001,0,23,500,500,2022_Nov_23_1307,Experiment,2021.1.4,360.36165896827026,
images\S5_F_S_01.png,images\S5_F_S_01_scrambled.png,5,sad,-10,female,3,,268,off,1,0.5,0.75,0.5,0.792,3,267,1,1,1,0,0,0,0,3,,,,,,0,31,31,31,,,,,,,,,,,,,,,,,,,,,,,,,,,,,,,,,,,,,,,,,,,,,,,,,,,,,,,,,485.92818719999923,486.43359409999994,486.43359409999994,487.18615919999957,487.18615919999957,487.6915640999996,487.6915640999996,488.4858200999997,488.4858200999997,None,num_6,0.49171539999952074,488.4858200999997,None,happy,0,Sad,488.9827948799997,None,None,488.9827948799997,None,,,,,,,,,,,,,,,,,,,,,,,,,,,,,,,,,,,,,,,,,,,,,,,,,,,,,44,001,0,23,500,500,2022_Nov_23_1307,Experiment,2021.1.4,360.36165896827026,
images\S1_F_S_03.png,images\S1_F_S_03_scrambled.png,1,sad,-30,female,1,,66,on,2,0.5,0.75,0.5,0.802,3,65,1,1,1,2,2,32,128,161,,,,,,0,32,32,32,,,,,,,,,,,,,,,,,,,,,,,,,,,,,,,,,,,,,,,,,,,,,,,,,,,,,,,,,489.0688811,489.57154159999936,489.57154159999936,490.3240556999999,490.3240556999999,490.8267135999995,490.8267135999995,491.6320132999999,491.6320132999999,None,num_4,0.40967970000019704,491.6320132999999,None,sad,0,Sad,492.05133905999975,None,None,492.05133905999975,None,,,,,,,,,,,,,,,,,,,,,,,,,,,,,,,,,,,,,,,,,,,,,,,,,,,,,44,001,0,23,500,500,2022_Nov_23_1307,Experiment,2021.1.4,360.36165896827026,
images\blank.jpg,images\blank.jpg,none,none,none,none,0,,617,on,2,0.5,0.75,0.5,0.822,0,616,2,1,1,3,3,48,192,240,,,,,,0,33,33,33,,,,,,,,,,,,,,,,,,,,,,,,,,,,,,,,,,,,,,,,,,,,,,,,,,,,,,,,,492.1348186999994,492.63445409999986,492.63445409999986,493.384223,493.384223,493.8868765999996,493.8868765999996,494.7088787999992,494.7088787999992,494.7088787999992,None,,494.7088787999992,None,miss,0,,497.70792013999943,None,None,497.70792013999943,None,,,,,,,,,,,,,,,,,,,,,,,,,,,,,,,,,,,,,,,,,,,,,,,,,,,,,44,001,0,23,500,500,2022_Nov_23_1307,Experiment,2021.1.4,360.36165896827026,
images\S6_M_S_01.png,images\S6_M_S_01_scrambled.png,6,sad,-10,male,3,,394,off,1,0.5,0.75,0.5,0.767,3,393,1,1,1,0,0,0,0,3,,,,,,0,34,34,34,,,,,,,,,,,,,,,,,,,,,,,,,,,,,,,,,,,,,,,,,,,,,,,,,,,,,,,,,497.85819489999994,498.36051489999954,498.36051489999954,499.11584029999995,499.11584029999995,499.6184661999996,499.6184661999996,500.39046340000004,500.39046340000004,None,num_4,0.43500849999963975,500.39046340000004,497.85819489999994,sad,0,Sad,500.85419076,None,None,500.85419076,None,,,,,,,,,,,,,,,,,,,,,,,,,,,,,,,,,,,,,,,,,,,,,,,,,,,,,44,001,0,23,500,500,2022_Nov_23_1307,Experiment,2021.1.4,360.36165896827026,
images\S10_M_S_03.png,images\S10_M_S_03_scrambled.png,10,sad,-30,male,1,,120,on,2,0.5,0.75,0.5,0.829,3,119,1,1,1,2,2,32,128,161,,,,,,0,35,35,35,,,,,,,,,,,,,,,,,,,,,,,,,,,,,,,,,,,,,,,,,,,,,,,,,,,,,,,,,500.9430190999992,501.4456791999992,501.4456791999992,502.19820009999967,502.19820009999967,502.70361989999947,502.70361989999947,503.53388670000004,503.53388670000004,None,num_4,0.5475470999999743,503.53388670000004,None,sad,0,Sad,504.09206746,None,None,504.09206746,None,,,,,,,,,,,,,,,,,,,,,,,,,,,,,,,,,,,,,,,,,,,,,,,,,,,,,44,001,0,23,500,500,2022_Nov_23_1307,Experiment,2021.1.4,360.36165896827026,
images\S7_F_S_02.png,images\S7_F_S_02_scrambled.png,7,sad,-20,female,2,,521,off,1,0.5,0.75,0.5,0.814,3,520,1,1,1,0,0,0,0,2,,,,,,0,36,36,36,,,,,,,,,,,,,,,,,,,,,,,,,,,,,,,,,,,,,,,,,,,,,,,,,,,,,,,,,504.17814069999986,504.68366569999944,504.68366569999944,505.4361138999993,505.4361138999993,505.94151299999976,505.94151299999976,506.75789669999995,506.75789669999995,None,num_4,0.4756580999992366,506.75789669999995,None,sad,0,Sad,507.25232947999973,None,None,507.25232947999973,None,,,,,,,,,,,,,,,,,,,,,,,,,,,,,,,,,,,,,,,,,,,,,,,,,,,,,44,001,0,23,500,500,2022_Nov_23_1307,Experiment,2021.1.4,360.36165896827026,
images\S1_F_S_01.png,images\S1_F_S_01_scrambled.png,1,sad,-10,female,3,,64,on,2,0.5,0.75,0.5,0.879,3,63,1,1,1,2,2,32,128,163,,,,,,0,37,37,37,,,,,,,,,,,,,,,,,,,,,,,,,,,,,,,,,,,,,,,,,,,,,,,,,,,,,,,,,507.36604799999986,507.8714796999993,507.8714796999993,508.6241100999996,508.6241100999996,509.12664159999986,509.12664159999986,510.0097728999999,510.0097728999999,None,num_6,0.4715691000001243,510.0097728999999,None,happy,0,Sad,510.4901258799995,None,None,510.4901258799995,None,,,,,,,,,,,,,,,,,,,,,,,,,,,,,,,,,,,,,,,,,,,,,,,,,,,,,44,001,0,23,500,500,2022_Nov_23_1307,Experiment,2021.1.4,360.36165896827026,
images\S4_M_H_03.png,images\S4_M_H_03_scrambled.png,4,happy,30,male,6,,21,off,1,0.5,0.75,0.5,0.832,3,20,1,1,1,0,0,0,0,6,,,,,,0,38,38,38,,,,,,,,,,,,,,,,,,,,,,,,,,,,,,,,,,,,,,,,,,,,,,,,,,,,,,,,,510.58450339999945,511.0871453,511.0871453,511.8397834999996,511.8397834999996,512.3451343999996,512.3451343999996,513.1837355999996,513.1837355999996,None,num_6,0.5458563000001959,513.1837355999996,None,happy,0,Happy,513.7391322599996,None,None,513.7391322599996,None,,,,,,,,,,,,,,,,,,,,,,,,,,,,,,,,,,,,,,,,,,,,,,,,,,,,,44,001,0,23,500,500,2022_Nov_23_1307,Experiment,2021.1.4,360.36165896827026,
images\S9_F_H_02.png,images\S9_F_H_02_scrambled.png,9,happy,20,female,5,,50,off,1,0.5,0.75,0.5,0.945,3,49,2,1,1,0,0,0,0,5,,,,,,0,39,39,39,,,,,,,,,,,,,,,,,,,,,,,,,,,,,,,,,,,,,,,,,,,,,,,,,,,,,,,,,513.8251809999992,514.3307058999999,514.3307058999999,515.0831473999997,515.0831473999997,515.5858539999999,515.5858539999999,516.5355864999992,516.5355864999992,None,num_6,0.3624861000007513,516.5355864999992,None,happy,0,Happy,516.9299618999994,None,None,516.9299618999994,None,,,,,,,,,,,,,,,,,,,,,,,,,,,,,,,,,,,,,,,,,,,,,,,,,,,,,44,001,0,23,500,500,2022_Nov_23_1307,Experiment,2021.1.4,360.36165896827026,
images\blank.jpg,images\blank.jpg,none,none,none,none,0,,640,on,2,0.5,0.75,0.5,0.841,0,639,1,1,1,3,3,48,192,240,,,,,,0,40,40,40,,,,,,,,,,,,,,,,,,,,,,,,,,,,,,,,,,,,,,,,,,,,,,,,,,,,,,,,,517.0160934999994,517.5185062999999,517.5185062999999,518.2710471,518.2710471,518.7764770999993,518.7764770999993,519.6178454999999,519.6178454999999,519.6178454999999,None,,519.6178454999999,None,miss,0,,522.6197909799998,None,None,522.6197909799998,None,,,,,,,,,,,,,,,,,,,,,,,,,,,,,,,,,,,,,,,,,,,,,,,,,,,,,44,001,0,23,500,500,2022_Nov_23_1307,Experiment,2021.1.4,360.36165896827026,
images\S3_F_S_01.png,images\S3_F_S_01_scrambled.png,3,sad,-10,female,3,,316,on,2,0.5,0.75,0.5,0.941,3,315,2,1,1,2,2,32,128,163,,,,,,0,41,41,41,,,,,,,,,,,,,,,,,,,,,,,,,,,,,,,,,,,,,,,,,,,,,,,,,,,,,,,,,522.7392556999994,523.2418347999992,523.2418347999992,523.9970974999997,523.9970974999997,524.5025044999993,524.5025044999993,525.4466223,525.4466223,None,num_4,0.41883789999974397,525.4466223,522.7392556999994,sad,0,Sad,525.8770657599997,None,None,525.8770657599997,None,,,,,,,,,,,,,,,,,,,,,,,,,,,,,,,,,,,,,,,,,,,,,,,,,,,,,44,001,0,23,500,500,2022_Nov_23_1307,Experiment,2021.1.4,360.36165896827026,
images\S6_M_H_02.png,images\S6_M_H_02_scrambled.png,6,happy,20,male,5,,512,off,1,0.5,0.75,0.5,0.938,3,511,1,1,1,0,0,0,0,5,,,,,,0,42,42,42,,,,,,,,,,,,,,,,,,,,,,,,,,,,,,,,,,,,,,,,,,,,,,,,,,,,,,,,,525.9547966999999,526.4574564999994,526.4574564999994,527.2071905999992,527.2071905999992,527.7126279999993,527.7126279999993,528.6568271999995,528.6568271999995,None,num_6,0.5046819999997751,528.6568271999995,None,happy,0,Happy,529.1899356599996,None,None,529.1899356599996,None,,,,,,,,,,,,,,,,,,,,,,,,,,,,,,,,,,,,,,,,,,,,,,,,,,,,,44,001,0,23,500,500,2022_Nov_23_1307,Experiment,2021.1.4,360.36165896827026,
images\S4_M_S_03.png,images\S4_M_S_03_scrambled.png,4,sad,-30,male,1,,504,off,1,0.5,0.75,0.5,0.906,3,503,2,1,1,0,0,0,0,1,,,,,,0,43,43,43,,,,,,,,,,,,,,,,,,,,,,,,,,,,,,,,,,,,,,,,,,,,,,,,,,,,,,,,,529.2426739999992,529.7480997999992,529.7480997999992,530.5007658999994,530.5007658999994,531.0061516999995,531.0061516999995,531.9169464999995,531.9169464999995,None,num_4,0.4287530000001425,531.9169464999995,None,sad,0,Sad,532.3723828199996,None,None,532.3723828199996,None,,,,,,,,,,,,,,,,,,,,,,,,,,,,,,,,,,,,,,,,,,,,,,,,,,,,,44,001,0,23,500,500,2022_Nov_23_1307,Experiment,2021.1.4,360.36165896827026,
images\S4_M_H_01.png,images\S4_M_H_01_scrambled.png,4,happy,10,male,4,,199,on,2,0.5,0.75,0.5,0.893,3,198,1,2,1,2,2,32,128,164,,,,,,0,44,44,44,,,,,,,,,,,,,,,,,,,,,,,,,,,,,,,,,,,,,,,,,,,,,,,,,,,,,,,,,532.4833566999996,532.9887684999994,532.9887684999994,533.7414246999997,533.7414246999997,534.2468402999993,534.2468402999993,535.1465576999999,535.1465576999999,None,num_4,0.43078160000004573,535.1465576999999,None,sad,0,Happy,535.5824582800001,None,None,535.5824582800001,None,,,,,,,,,,,,,,,,,,,,,,,,,,,,,,,,,,,,,,,,,,,,,,,,,,,,,44,001,0,23,500,500,2022_Nov_23_1307,Experiment,2021.1.4,360.36165896827026,
images\S4_M_H_01.png,images\S4_M_H_01_scrambled.png,4,happy,10,male,4,,439,on,2,0.5,0.75,0.5,0.913,3,438,2,3,2,2,2,32,128,164,,,,,,0,45,45,45,,,,,,,,,,,,,,,,,,,,,,,,,,,,,,,,,,,,,,,,,,,,,,,,,,,,,,,,,535.6296096999995,536.1322690999996,536.1322690999996,536.8819971999992,536.8819971999992,537.3874455999994,537.3874455999994,538.3066943999993,538.3066943999993,None,num_4,0.4233768999993117,538.3066943999993,None,sad,0,Happy,538.7426750199999,None,None,538.7426750199999,None,,,,,,,,,,,,,,,,,,,,,,,,,,,,,,,,,,,,,,,,,,,,,,,,,,,,,44,001,0,23,500,500,2022_Nov_23_1307,Experiment,2021.1.4,360.36165896827026,
images\S10_M_H_02.png,images\S10_M_H_02_scrambled.png,10,happy,20,male,5,,116,on,2,0.5,0.75,0.5,0.778,3,115,3,1,1,2,2,32,128,165,,,,,,0,46,46,46,,,,,,,,,,,,,,,,,,,,,,,,,,,,,,,,,,,,,,,,,,,,,,,,,,,,,,,,,538.8064114999997,539.3062858999992,539.3062858999992,540.0560587,540.0560587,540.5558704999994,540.5558704999994,541.3363202,541.3363202,None,num_6,0.5210422999998627,541.3363202,None,happy,0,Happy,541.8693703600001,None,None,541.8693703600001,None,,,,,,,,,,,,,,,,,,,,,,,,,,,,,,,,,,,,,,,,,,,,,,,,,,,,,44,001,0,23,500,500,2022_Nov_23_1307,Experiment,2021.1.4,360.36165896827026,
images\S7_F_S_01.png,images\S7_F_S_01_scrambled.png,7,sad,-10,female,3,,40,off,1,0.5,0.75,0.5,0.802,3,39,1,1,1,0,0,0,0,3,,,,,,0,47,47,47,,,,,,,,,,,,,,,,,,,,,,,,,,,,,,,,,,,,,,,,,,,,,,,,,,,,,,,,,541.9165694999992,542.4192030999993,542.4192030999993,543.1717829999998,543.1717829999998,543.6771845999992,543.6771845999992,544.4824770999994,544.4824770999994,None,num_4,0.43921709999995073,544.4824770999994,None,sad,0,Sad,544.9323085599998,None,None,544.9323085599998,None,,,,,,,,,,,,,,,,,,,,,,,,,,,,,,,,,,,,,,,,,,,,,,,,,,,,,44,001,0,23,500,500,2022_Nov_23_1307,Experiment,2021.1.4,360.36165896827026,
images\S1_F_S_01.png,images\S1_F_S_01_scrambled.png,1,sad,-10,female,3,,184,on,2,0.5,0.75,0.5,0.826,3,183,1,1,2,2,2,32,128,163,,,,,,0,48,48,48,,,,,,,,,,,,,,,,,,,,,,,,,,,,,,,,,,,,,,,,,,,,,,,,,,,,,,,,,544.9822993999996,545.4849334,545.4849334,546.2375087,546.2375087,546.7429067999992,546.7429067999992,547.5731725999995,547.5731725999995,None,num_6,0.4610118999999031,547.5731725999995,None,happy,0,Sad,548.04260828,None,None,548.04260828,None,,,,,,,,,,,,,,,,,,,,,,,,,,,,,,,,,,,,,,,,,,,,,,,,,,,,,44,001,0,23,500,500,2022_Nov_23_1307,Experiment,2021.1.4,360.36165896827026,
images\S2_M_H_02.png,images\S2_M_H_02_scrambled.png,2,happy,20,male,5,,188,on,2,0.5,0.75,0.5,0.925,3,187,2,1,1,2,2,32,128,165,,,,,,0,49,49,49,,,,,,,,,,,,,,,,,,,,,,,,,,,,,,,,,,,,,,,,,,,,,,,,,,,,,,,,,548.1036630999997,548.6089819999997,548.6089819999997,549.3616486999999,549.3616486999999,549.8669703999994,549.8669703999994,550.7972405999999,550.7972405999999,None,num_6,0.42071860000032757,550.7972405999999,None,happy,0,Happy,551.2415411199996,None,None,551.2415411199996,None,,,,,,,,,,,,,,,,,,,,,,,,,,,,,,,,,,,,,,,,,,,,,,,,,,,,,44,001,0,23,500,500,2022_Nov_23_1307,Experiment,2021.1.4,360.36165896827026,
images\S10_M_H_01.png,images\S10_M_H_01_scrambled.png,10,happy,10,male,4,,115,on,2,0.5,0.75,0.5,0.927,3,114,3,1,1,2,2,32,128,164,,,,,,0,50,50,50,,,,,,,,,,,,,,,,,,,,,,,,,,,,,,,,,,,,,,,,,,,,,,,,,,,,,,,,,551.2942518,551.7996561999998,551.7996561999998,552.5522241999997,552.5522241999997,553.0548784999992,553.0548784999992,553.9850981999998,553.9850981999998,None,num_6,0.32046059999993304,553.9850981999998,None,happy,0,Happy,554.3155983599999,None,None,554.3155983599999,None,,,,,,,,,,,,,,,,,,,,,,,,,,,,,,,,,,,,,,,,,,,,,,,,,,,,,44,001,0,23,500,500,2022_Nov_23_1307,Experiment,2021.1.4,360.36165896827026,
images\S5_F_S_02.png,images\S5_F_S_02_scrambled.png,5,sad,-20,female,2,,149,off,1,0.5,0.75,0.5,0.924,3,148,1,1,1,0,0,0,0,2,,,,,,0,51,51,51,,,,,,,,,,,,,,,,,,,,,,,,,,,,,,,,,,,,,,,,,,,,,,,,,,,,,,,,,554.3988580999994,554.9016152999993,554.9016152999993,555.6540257999995,555.6540257999995,556.1567808,556.1567808,557.0841363999998,557.0841363999998,None,num_6,0.33332509999945614,557.0841363999998,None,happy,0,Sad,557.4257234799993,None,None,557.4257234799993,None,,,,,,,,,,,,,,,,,,,,,,,,,,,,,,,,,,,,,,,,,,,,,,,,,,,,,44,001,0,23,500,500,2022_Nov_23_1307,Experiment,2021.1.4,360.36165896827026,
images\S8_M_S_01.png,images\S8_M_S_01_scrambled.png,8,sad,-10,male,3,,526,off,1,0.5,0.75,0.5,0.844,3,525,2,1,1,0,0,0,0,3,,,,,,0,52,52,52,,,,,,,,,,,,,,,,,,,,,,,,,,,,,,,,,,,,,,,,,,,,,,,,,,,,,,,,,557.5145644999993,558.0172430999992,558.0172430999992,558.7697896,558.7697896,559.2724177,559.2724177,560.1221585999992,560.1221585999992,None,num_4,0.3597233000000415,560.1221585999992,None,sad,0,Sad,560.5053611799999,None,None,560.5053611799999,None,,,,,,,,,,,,,,,,,,,,,,,,,,,,,,,,,,,,,,,,,,,,,,,,,,,,,44,001,0,23,500,500,2022_Nov_23_1307,Experiment,2021.1.4,360.36165896827026,
images\S8_M_H_02.png,images\S8_M_H_02_scrambled.png,8,happy,20,male,5,,584,on,2,0.5,0.75,0.5,0.803,3,583,1,2,1,2,2,32,128,165,,,,,,0,53,53,53,,,,,,,,,,,,,,,,,,,,,,,,,,,,,,,,,,,,,,,,,,,,,,,,,,,,,,,,,560.6136107999992,561.1163880999993,561.1163880999993,561.8660063999996,561.8660063999996,562.3715065999995,562.3715065999995,563.1768175999996,563.1768175999996,None,num_6,0.496911999999611,563.1768175999996,None,happy,0,Happy,563.6849146599997,None,None,563.6849146599997,None,,,,,,,,,,,,,,,,,,,,,,,,,,,,,,,,,,,,,,,,,,,,,,,,,,,,,44,001,0,23,500,500,2022_Nov_23_1307,Experiment,2021.1.4,360.36165896827026,
images\S9_F_S_03.png,images\S9_F_S_03_scrambled.png,9,sad,-30,female,1,,354,on,2,0.5,0.75,0.5,0.853,3,353,2,1,1,2,2,32,128,161,,,,,,0,54,54,54,,,,,,,,,,,,,,,,,,,,,,,,,,,,,,,,,,,,,,,,,,,,,,,,,,,,,,,,,563.7348829999992,564.2375462,564.2375462,564.9872833999998,564.9872833999998,565.4927134999998,565.4927134999998,566.3480174999995,566.3480174999995,None,num_4,0.37364090000028227,566.3480174999995,None,sad,0,Sad,566.7368434399998,None,None,566.7368434399998,None,,,,,,,,,,,,,,,,,,,,,,,,,,,,,,,,,,,,,,,,,,,,,,,,,,,,,44,001,0,23,500,500,2022_Nov_23_1307,Experiment,2021.1.4,360.36165896827026,
images\S9_F_H_01.png,images\S9_F_H_01_scrambled.png,9,happy,10,female,4,,349,on,2,0.5,0.75,0.5,0.836,3,348,3,2,1,2,2,32,128,164,,,,,,0,55,55,55,,,,,,,,,,,,,,,,,,,,,,,,,,,,,,,,,,,,,,,,,,,,,,,,,,,,,,,,,566.7868767999998,567.2921795999991,567.2921795999991,568.0447310999998,568.0447310999998,568.5472973999995,568.5472973999995,569.3859226999994,569.3859226999994,None,num_4,0.3595900000000256,569.3859226999994,None,sad,0,Happy,569.7497297799996,None,None,569.7497297799996,None,,,,,,,,,,,,,,,,,,,,,,,,,,,,,,,,,,,,,,,,,,,,,,,,,,,,,44,001,0,23,500,500,2022_Nov_23_1307,Experiment,2021.1.4,360.36165896827026,
images\S1_F_S_01.png,images\S1_F_S_01_scrambled.png,1,sad,-10,female,3,,244,off,1,0.5,0.75,0.5,0.818,3,243,1,1,1,0,0,0,0,3,,,,,,0,56,56,56,,,,,,,,,,,,,,,,,,,,,,,,,,,,,,,,,,,,,,,,,,,,,,,,,,,,,,,,,569.7996917999999,570.3023757999999,570.3023757999999,571.054854,571.054854,571.5602888999993,571.5602888999993,572.3822276999999,572.3822276999999,None,num_4,0.347211199999947,572.3822276999999,None,sad,0,Sad,572.7460539999993,None,None,572.7460539999993,None,,,,,,,,,,,,,,,,,,,,,,,,,,,,,,,,,,,,,,,,,,,,,,,,,,,,,44,001,0,23,500,500,2022_Nov_23_1307,Experiment,2021.1.4,360.36165896827026,
images\S7_F_S_01.png,images\S7_F_S_01_scrambled.png,7,sad,-10,female,3,,160,off,1,0.5,0.75,0.5,0.81,3,159,2,1,2,0,0,0,0,3,,,,,,0,57,57,57,,,,,,,,,,,,,,,,,,,,,,,,,,,,,,,,,,,,,,,,,,,,,,,,,,,,,,,,,572.7932172999999,573.2986422999993,573.2986422999993,574.0511954999993,574.0511954999993,574.5567009999995,574.5567009999995,575.3730099999993,575.3730099999993,None,num_4,0.46065030000045226,575.3730099999993,None,sad,0,Sad,575.8478535599996,None,None,575.8478535599996,None,,,,,,,,,,,,,,,,,,,,,,,,,,,,,,,,,,,,,,,,,,,,,,,,,,,,,44,001,0,23,500,500,2022_Nov_23_1307,Experiment,2021.1.4,360.36165896827026,
images\S7_F_H_03.png,images\S7_F_H_03_scrambled.png,7,happy,30,female,6,,279,off,1,0.5,0.75,0.5,0.945,3,278,3,2,1,0,0,0,0,6,,,,,,0,58,58,58,,,,,,,,,,,,,,,,,,,,,,,,,,,,,,,,,,,,,,,,,,,,,,,,,,,,,,,,,575.8950418999993,576.3948913999993,576.3948913999993,577.1446718999996,577.1446718999996,577.6473424999995,577.6473424999995,578.5970670999995,578.5970670999995,None,num_6,0.2843374000003678,578.5970670999995,None,happy,0,Happy,578.8941272599994,None,None,578.8941272599994,None,,,,,,,,,,,,,,,,,,,,,,,,,,,,,,,,,,,,,,,,,,,,,,,,,,,,,44,001,0,23,500,500,2022_Nov_23_1307,Experiment,2021.1.4,360.36165896827026,
images\S6_M_S_03.png,images\S6_M_S_03_scrambled.png,6,sad,-30,male,1,,36,off,1,0.5,0.75,0.5,0.775,3,35,4,1,1,0,0,0,0,1,,,,,,0,59,59,59,,,,,,,,,,,,,,,,,,,,,,,,,,,,,,,,,,,,,,,,,,,,,,,,,,,,,,,,,579.0024225999996,579.5078637999995,579.5078637999995,580.2631821999994,580.2631821999994,580.7657710999993,580.7657710999993,581.5433417999993,581.5433417999993,None,num_4,0.30621140000039304,581.5433417999993,None,sad,0,Sad,581.8626766599999,None,None,581.8626766599999,None,,,,,,,,,,,,,,,,,,,,,,,,,,,,,,,,,,,,,,,,,,,,,,,,,,,,,44,001,0,23,500,500,2022_Nov_23_1307,Experiment,2021.1.4,360.36165896827026,
images\S6_M_S_03.png,images\S6_M_S_03_scrambled.png,6,sad,-30,male,1,,576,on,2,0.5,0.75,0.5,0.783,3,575,1,2,2,2,2,32,128,161,,,,,,0,60,60,60,,,,,,,,,,,,,,,,,,,,,,,,,,,,,,,,,,,,,,,,,,,,,,,,,,,,,,,,,581.9126389999992,582.4180895,582.4180895,583.1733603999992,583.1733603999992,583.6761360999999,583.6761360999999,584.4619579999999,584.4619579999999,None,num_4,0.491689999999835,584.4619579999999,None,sad,0,Sad,584.96727266,None,None,584.96727266,None,,,,,,,,,,,,,,,,,,,,,,,,,,,,,,,,,,,,,,,,,,,,,,,,,,,,,44,001,0,23,500,500,2022_Nov_23_1307,Experiment,2021.1.4,360.36165896827026,
images\blank.jpg,images\blank.jpg,none,none,none,none,0,,607,on,2,0.5,0.75,0.5,0.925,0,606,2,1,1,3,3,48,192,240,,,,,,0,61,61,61,,,,,,,,,,,,,,,,,,,,,,,,,,,,,,,,,,,,,,,,,,,,,,,,,,,,,,,,,585.0507556999992,585.5504137999997,585.5504137999997,586.3029892999994,586.3029892999994,586.8056256999998,586.8056256999998,587.7359816999997,587.7359816999997,587.7359816999997,None,,587.7359816999997,None,miss,0,,590.7377622399993,None,None,590.7377622399993,None,,,,,,,,,,,,,,,,,,,,,,,,,,,,,,,,,,,,,,,,,,,,,,,,,,,,,44,001,0,23,500,500,2022_Nov_23_1307,Experiment,2021.1.4,360.36165896827026,
images\S3_F_S_02.png,images\S3_F_S_02_scrambled.png,3,sad,-20,female,2,,317,on,2,0.5,0.75,0.5,0.927,3,316,3,1,1,2,2,32,128,162,,,,,,0,62,62,62,,,,,,,,,,,,,,,,,,,,,,,,,,,,,,,,,,,,,,,,,,,,,,,,,,,,,,,,,590.8988509999999,591.4042235999996,591.4042235999996,592.1567353999999,592.1567353999999,592.6593538999996,592.6593538999996,593.5896494999997,593.5896494999997,None,num_4,0.4597090000006574,593.5896494999997,590.8988509999999,sad,0,Sad,594.0589453599995,None,None,594.0589453599995,None,,,,,,,,,,,,,,,,,,,,,,,,,,,,,,,,,,,,,,,,,,,,,,,,,,,,,44,001,0,23,500,500,2022_Nov_23_1307,Experiment,2021.1.4,360.36165896827026,
images\S2_M_S_03.png,images\S2_M_S_03_scrambled.png,2,sad,-30,male,1,,552,on,2,0.5,0.75,0.5,0.782,3,551,4,1,1,2,2,32,128,161,,,,,,0,63,63,63,,,,,,,,,,,,,,,,,,,,,,,,,,,,,,,,,,,,,,,,,,,,,,,,,,,,,,,,,594.1061276,594.6087730999998,594.6087730999998,595.3585404999994,595.3585404999994,595.8583953999996,595.8583953999996,596.6442978999994,596.6442978999994,None,num_4,0.445440100000269,596.6442978999994,None,sad,0,Sad,597.1191469999994,None,None,597.1191469999994,None,,,,,,,,,,,,,,,,,,,,,,,,,,,,,,,,,,,,,,,,,,,,,,,,,,,,,44,001,0,23,500,500,2022_Nov_23_1307,Experiment,2021.1.4,360.36165896827026,
images\S4_M_S_01.png,images\S4_M_S_01_scrambled.png,4,sad,-10,male,3,,262,off,1,0.5,0.75,0.5,0.908,3,261,1,1,1,0,0,0,0,3,,,,,,0,64,64,64,,,,,,,,,,,,,,,,,,,,,,,,,,,,,,,,,,,,,,,,,,,,,,,,,,,,,,,,,597.2079623999998,597.7078305999994,597.7078305999994,598.4575711999996,598.4575711999996,598.9630944999999,598.9630944999999,599.8739046999999,599.8739046999999,None,num_4,1.0396192999996856,599.8739046999999,None,sad,0,Sad,600.9290607599995,None,None,600.9290607599995,None,,,,,,,,,,,,,,,,,,,,,,,,,,,,,,,,,,,,,,,,,,,,,,,,,,,,,44,001,0,23,500,500,2022_Nov_23_1307,Experiment,2021.1.4,360.36165896827026,
images\blank.jpg,images\blank.jpg,none,none,none,none,0,,643,on,2,0.5,0.75,0.5,0.929,0,642,1,1,1,3,3,48,192,240,,,,,,0,65,65,65,,,,,,,,,,,,,,,,,,,,,,,,,,,,,,,,,,,,,,,,,,,,,,,,,,,,,,,,,601.0125896999998,601.5149978999998,601.5149978999998,602.2647346999993,602.2647346999993,602.7645917999998,602.7645917999998,603.6976699999996,603.6976699999996,603.6976699999996,None,,603.6976699999996,None,miss,0,,606.6995785799995,None,None,606.6995785799995,None,,,,,,,,,,,,,,,,,,,,,,,,,,,,,,,,,,,,,,,,,,,,,,,,,,,,,44,001,0,23,500,500,2022_Nov_23_1307,Experiment,2021.1.4,360.36165896827026,
images\S7_F_S_01.png,images\S7_F_S_01_scrambled.png,7,sad,-10,female,3,,580,on,2,0.5,0.75,0.5,0.827,3,579,2,1,1,2,2,32,128,163,,,,,,0,66,66,66,,,,,,,,,,,,,,,,,,,,,,,,,,,,,,,,,,,,,,,,,,,,,,,,,,,,,,,,,606.8247117999999,607.3270889999994,607.3270889999994,608.0796430999999,608.0796430999999,608.5850803999992,608.5850803999992,609.4153834999997,609.4153834999997,None,num_4,0.4662803000001077,609.4153834999997,606.8247117999999,sad,0,Sad,609.89576716,None,None,609.89576716,None,,,,,,,,,,,,,,,,,,,,,,,,,,,,,,,,,,,,,,,,,,,,,,,,,,,,,44,001,0,23,500,500,2022_Nov_23_1307,Experiment,2021.1.4,360.36165896827026,
images\S10_M_H_02.png,images\S10_M_H_02_scrambled.png,10,happy,20,male,5,,416,off,1,0.5,0.75,0.5,0.827,3,415,1,1,1,0,0,0,0,5,,,,,,0,67,67,67,,,,,,,,,,,,,,,,,,,,,,,,,,,,,,,,,,,,,,,,,,,,,,,,,,,,,,,,,609.9429445999995,610.4455855999995,610.4455855999995,611.1953487999999,611.1953487999999,611.7007705999995,611.7007705999995,612.5310648999994,612.5310648999994,None,num_6,0.5425169999998616,612.5310648999994,None,happy,0,Happy,613.0864467599994,None,None,613.0864467599994,None,,,,,,,,,,,,,,,,,,,,,,,,,,,,,,,,,,,,,,,,,,,,,,,,,,,,,44,001,0,23,500,500,2022_Nov_23_1307,Experiment,2021.1.4,360.36165896827026,
images\S5_F_H_02.png,images\S5_F_H_02_scrambled.png,5,happy,20,female,5,,26,off,1,0.5,0.75,0.5,0.765,3,25,2,1,2,0,0,0,0,5,,,,,,0,68,68,68,,,,,,,,,,,,,,,,,,,,,,,,,,,,,,,,,,,,,,,,,,,,,,,,,,,,,,,,,613.1336316999996,613.6362870999992,613.6362870999992,614.3888256999999,614.3888256999999,614.8914185999993,614.8914185999993,615.6606603,615.6606603,None,num_6,0.789031100000102,615.6606603,None,happy,0,Happy,616.4688194999999,None,None,616.4688194999999,None,,,,,,,,,,,,,,,,,,,,,,,,,,,,,,,,,,,,,,,,,,,,,,,,,,,,,44,001,0,23,500,500,2022_Nov_23_1307,Experiment,2021.1.4,360.36165896827026,
images\S9_F_S_01.png,images\S9_F_S_01_scrambled.png,9,sad,-10,female,3,,112,on,2,0.5,0.75,0.5,0.906,3,111,1,1,1,2,2,32,128,163,,,,,,0,69,69,69,,,,,,,,,,,,,,,,,,,,,,,,,,,,,,,,,,,,,,,,,,,,,,,,,,,,,,,,,616.5770212999996,617.0797614999992,617.0797614999992,617.8294368999996,617.8294368999996,618.3348928999994,618.3348928999994,619.2456698999995,619.2456698999995,None,num_6,0.4359760000006645,619.2456698999995,None,happy,0,Sad,619.6899909199998,None,None,619.6899909199998,None,,,,,,,,,,,,,,,,,,,,,,,,,,,,,,,,,,,,,,,,,,,,,,,,,,,,,44,001,0,23,500,500,2022_Nov_23_1307,Experiment,2021.1.4,360.36165896827026,
images\S4_M_H_03.png,images\S4_M_H_03_scrambled.png,4,happy,30,male,6,,261,off,1,0.5,0.75,0.5,0.819,3,260,1,1,1,0,0,0,0,6,,,,,,0,70,70,70,,,,,,,,,,,,,,,,,,,,,,,,,,,,,,,,,,,,,,,,,,,,,,,,,,,,,,,,,619.7399376999992,620.2425714999999,620.2425714999999,620.9951351999998,620.9951351999998,621.4977773,621.4977773,622.3197909999999,622.3197909999999,None,num_6,0.5058085000000574,622.3197909999999,None,happy,0,Happy,622.8362275600001,None,None,622.8362275600001,None,,,,,,,,,,,,,,,,,,,,,,,,,,,,,,,,,,,,,,,,,,,,,,,,,,,,,44,001,0,23,500,500,2022_Nov_23_1307,Experiment,2021.1.4,360.36165896827026,
images\S5_F_H_01.png,images\S5_F_H_01_scrambled.png,5,happy,10,female,4,,565,on,2,0.5,0.75,0.5,0.773,3,564,1,1,1,2,2,32,128,164,,,,,,0,71,71,71,,,,,,,,,,,,,,,,,,,,,,,,,,,,,,,,,,,,,,,,,,,,,,,,,,,,,,,,,622.9195169999994,623.4193886999992,623.4193886999992,624.1719266999999,624.1719266999999,624.6746561999998,624.6746561999998,625.4549653999993,625.4549653999993,None,num_6,0.4830526000005193,625.4549653999993,None,happy,0,Happy,625.9603585199999,None,None,625.9603585199999,None,,,,,,,,,,,,,,,,,,,,,,,,,,,,,,,,,,,,,,,,,,,,,,,,,,,,,44,001,0,23,500,500,2022_Nov_23_1307,Experiment,2021.1.4,360.36165896827026,
images\S1_F_S_01.png,images\S1_F_S_01_scrambled.png,1,sad,-10,female,3,,484,off,1,0.5,0.75,0.5,0.846,3,483,1,1,1,0,0,0,0,3,,,,,,0,72,72,72,,,,,,,,,,,,,,,,,,,,,,,,,,,,,,,,,,,,,,,,,,,,,,,,,,,,,,,,,626.0130128999999,626.5156735999999,626.5156735999999,627.2710066999998,627.2710066999998,627.7708374999993,627.7708374999993,628.6205861999997,628.6205861999997,None,num_6,0.7490864999999758,628.6205861999997,None,happy,0,Sad,629.37590968,None,None,629.37590968,None,,,,,,,,,,,,,,,,,,,,,,,,,,,,,,,,,,,,,,,,,,,,,,,,,,,,,44,001,0,23,500,500,2022_Nov_23_1307,Experiment,2021.1.4,360.36165896827026,
images\S7_F_S_03.png,images\S7_F_S_03_scrambled.png,7,sad,-30,female,1,,222,on,2,0.5,0.75,0.5,0.813,3,221,1,1,1,2,2,32,128,161,,,,,,0,73,73,73,,,,,,,,,,,,,,,,,,,,,,,,,,,,,,,,,,,,,,,,,,,,,,,,,,,,,,,,,629.4230787999995,629.9257318,629.9257318,630.6782784999996,630.6782784999996,631.1809008,631.1809008,631.9973099999997,631.9973099999997,None,num_4,0.5405182999993485,631.9973099999997,None,sad,0,Sad,632.5526719600001,None,None,632.5526719600001,None,,,,,,,,,,,,,,,,,,,,,,,,,,,,,,,,,,,,,,,,,,,,,,,,,,,,,44,001,0,23,500,500,2022_Nov_23_1307,Experiment,2021.1.4,360.36165896827026,
images\S1_F_H_02.png,images\S1_F_H_02_scrambled.png,1,happy,20,female,5,,482,off,1,0.5,0.75,0.5,0.886,3,481,1,1,1,0,0,0,0,5,,,,,,0,74,74,74,,,,,,,,,,,,,,,,,,,,,,,,,,,,,,,,,,,,,,,,,,,,,,,,,,,,,,,,,632.6359886999999,633.1414133999997,633.1414133999997,633.8940347999996,633.8940347999996,634.3965860999997,634.3965860999997,635.2852172999992,635.2852172999992,None,num_6,0.34047800000007555,635.2852172999992,None,happy,0,Happy,635.6405786599997,None,None,635.6405786599997,None,,,,,,,,,,,,,,,,,,,,,,,,,,,,,,,,,,,,,,,,,,,,,,,,,,,,,44,001,0,23,500,500,2022_Nov_23_1307,Experiment,2021.1.4,360.36165896827026,
images\S5_F_S_01.png,images\S5_F_S_01_scrambled.png,5,sad,-10,female,3,,508,off,1,0.5,0.75,0.5,0.818,3,507,2,1,1,0,0,0,0,3,,,,,,0,75,75,75,,,,,,,,,,,,,,,,,,,,,,,,,,,,,,,,,,,,,,,,,,,,,,,,,,,,,,,,,635.6878264999996,636.1932232999998,636.1932232999998,636.9458160999993,636.9458160999993,637.4484327,637.4484327,638.2704062999992,638.2704062999992,None,num_4,0.36322090000066964,638.2704062999992,None,sad,0,Sad,638.6480231599998,None,None,638.6480231599998,None,,,,,,,,,,,,,,,,,,,,,,,,,,,,,,,,,,,,,,,,,,,,,,,,,,,,,44,001,0,23,500,500,2022_Nov_23_1307,Experiment,2021.1.4,360.36165896827026,
images\S7_F_H_02.png,images\S7_F_H_02_scrambled.png,7,happy,20,female,5,,518,off,1,0.5,0.75,0.5,0.906,3,517,3,1,1,0,0,0,0,5,,,,,,0,76,76,76,,,,,,,,,,,,,,,,,,,,,,,,,,,,,,,,,,,,,,,,,,,,,,,,,,,,,,,,,638.7313414,639.2367576999995,639.2367576999995,639.9894125999999,639.9894125999999,640.4948256999996,640.4948256999996,641.4055746999993,641.4055746999993,None,num_6,0.35610970000016096,641.4055746999993,None,happy,0,Happy,641.7748882599998,None,None,641.7748882599998,None,,,,,,,,,,,,,,,,,,,,,,,,,,,,,,,,,,,,,,,,,,,,,,,,,,,,,44,001,0,23,500,500,2022_Nov_23_1307,Experiment,2021.1.4,360.36165896827026,
images\blank.jpg,images\blank.jpg,none,none,none,none,0,,611,on,2,0.5,0.75,0.5,0.847,0,610,1,1,1,3,3,48,192,240,,,,,,0,77,77,77,,,,,,,,,,,,,,,,,,,,,,,,,,,,,,,,,,,,,,,,,,,,,,,,,,,,,,,,,641.8584203,642.3579978999996,642.3579978999996,643.1105989999996,643.1105989999996,643.6132308999995,643.6132308999995,644.4601434999995,644.4601434999995,644.4601434999995,None,,644.4601434999995,None,miss,0,,647.4620136399992,None,None,647.4620136399992,None,,,,,,,,,,,,,,,,,,,,,,,,,,,,,,,,,,,,,,,,,,,,,,,,,,,,,44,001,0,23,500,500,2022_Nov_23_1307,Experiment,2021.1.4,360.36165896827026,
images\blank.jpg,images\blank.jpg,none,none,none,none,0,,622,on,2,0.5,0.75,0.5,0.763,0,621,2,2,2,3,3,48,192,240,,,,,,0,78,78,78,,,,,,,,,,,,,,,,,,,,,,,,,,,,,,,,,,,,,,,,,,,,,,,,,,,,,,,,,647.4842257999999,647.9869165,647.9869165,648.7422002999992,648.7422002999992,649.2448233999994,649.2448233999994,650.0113449999999,650.0113449999999,650.0113449999999,None,,650.0113449999999,647.4842257999999,miss,0,,653.0131608799998,None,None,653.0131608799998,None,,,,,,,,,,,,,,,,,,,,,,,,,,,,,,,,,,,,,,,,,,,,,,,,,,,,,44,001,0,23,500,500,2022_Nov_23_1307,Experiment,2021.1.4,360.36165896827026,
images\S7_F_H_03.png,images\S7_F_H_03_scrambled.png,7,happy,30,female,6,,339,on,2,0.5,0.75,0.5,0.942,3,338,3,1,1,2,2,32,128,166,,,,,,0,79,79,79,,,,,,,,,,,,,,,,,,,,,,,,,,,,,,,,,,,,,,,,,,,,,,,,,,,,,,,,,653.1354394,653.6378860999994,653.6378860999994,654.3904569999995,654.3904569999995,654.8958653999998,654.8958653999998,655.8400750999999,655.8400750999999,None,num_6,0.4016553000001295,655.8400750999999,653.1354394,happy,0,Happy,656.2565236599993,None,None,656.2565236599993,None,,,,,,,,,,,,,,,,,,,,,,,,,,,,,,,,,,,,,,,,,,,,,,,,,,,,,44,001,0,23,500,500,2022_Nov_23_1307,Experiment,2021.1.4,360.36165896827026,
images\S10_M_S_02.png,images\S10_M_S_02_scrambled.png,10,sad,-20,male,2,,239,on,2,0.5,0.75,0.5,0.931,3,238,4,1,1,2,2,32,128,162,,,,,,0,80,80,80,,,,,,,,,,,,,,,,,,,,,,,,,,,,,,,,,,,,,,,,,,,,,,,,,,,,,,,,,656.3398336,656.8396946999992,656.8396946999992,657.5950951999994,657.5950951999994,658.1004593999996,658.1004593999996,659.0362534999995,659.0362534999995,None,num_4,0.398002699999779,659.0362534999995,None,sad,0,Sad,659.4584617799997,None,None,659.4584617799997,None,,,,,,,,,,,,,,,,,,,,,,,,,,,,,,,,,,,,,,,,,,,,,,,,,,,,,44,001,0,23,500,500,2022_Nov_23_1307,Experiment,2021.1.4,360.36165896827026,
images\S5_F_H_01.png,images\S5_F_H_01_scrambled.png,5,happy,10,female,4,,265,off,1,0.5,0.75,0.5,0.803,3,264,1,1,1,0,0,0,0,4,,,,,,0,81,81,81,,,,,,,,,,,,,,,,,,,,,,,,,,,,,,,,,,,,,,,,,,,,,,,,,,,,,,,,,659.5249647999999,660.0275886,660.0275886,660.7801347999994,660.7801347999994,661.2828129,661.2828129,662.0852986999998,662.0852986999998,None,num_6,0.6845261999997092,662.0852986999998,None,happy,0,Happy,662.7935092799994,None,None,662.7935092799994,None,,,,,,,,,,,,,,,,,,,,,,,,,,,,,,,,,,,,,,,,,,,,,,,,,,,,,44,001,0,23,500,500,2022_Nov_23_1307,Experiment,2021.1.4,360.36165896827026,
images\S2_M_S_02.png,images\S2_M_S_02_scrambled.png,2,sad,-20,male,2,,251,off,1,0.5,0.75,0.5,0.839,3,250,2,1,1,0,0,0,0,2,,,,,,0,82,82,82,,,,,,,,,,,,,,,,,,,,,,,,,,,,,,,,,,,,,,,,,,,,,,,,,,,,,,,,,662.9016981999994,663.4044329999997,663.4044329999997,664.1568981999999,664.1568981999999,664.6596322999994,664.6596322999994,665.5009494999995,665.5009494999995,None,num_4,0.5804346999993868,665.5009494999995,None,sad,0,Sad,666.0923968599999,None,None,666.0923968599999,None,,,,,,,,,,,,,,,,,,,,,,,,,,,,,,,,,,,,,,,,,,,,,,,,,,,,,44,001,0,23,500,500,2022_Nov_23_1307,Experiment,2021.1.4,360.36165896827026,
images\S4_M_H_02.png,images\S4_M_H_02_scrambled.png,4,happy,20,male,5,,140,off,1,0.5,0.75,0.5,0.887,3,139,3,1,1,0,0,0,0,5,,,,,,0,83,83,83,,,,,,,,,,,,,,,,,,,,,,,,,,,,,,,,,,,,,,,,,,,,,,,,,,,,,,,,,666.1423787999993,666.6422450999999,666.6422450999999,667.3975704999993,667.3975704999993,667.9002420999996,667.9002420999996,668.7915875999997,668.7915875999997,None,num_4,0.45817299999998795,668.7915875999997,None,sad,0,Happy,669.2580919799998,None,None,669.2580919799998,None,,,,,,,,,,,,,,,,,,,,,,,,,,,,,,,,,,,,,,,,,,,,,,,,,,,,,44,001,0,23,500,500,2022_Nov_23_1307,Experiment,2021.1.4,360.36165896827026,
images\S2_M_H_01.png,images\S2_M_H_01_scrambled.png,2,happy,10,male,4,,187,on,2,0.5,0.75,0.5,0.927,3,186,1,1,1,2,2,32,128,164,,,,,,0,84,84,84,,,,,,,,,,,,,,,,,,,,,,,,,,,,,,,,,,,,,,,,,,,,,,,,,,,,,,,,,669.3414023999994,669.8440157999994,669.8440157999994,670.5938171999996,670.5938171999996,671.0964439999998,671.0964439999998,672.0267043999993,672.0267043999993,None,num_4,0.9592853000003743,672.0267043999993,None,sad,0,Happy,672.9958503199992,None,None,672.9958503199992,None,,,,,,,,,,,,,,,,,,,,,,,,,,,,,,,,,,,,,,,,,,,,,,,,,,,,,44,001,0,23,500,500,2022_Nov_23_1307,Experiment,2021.1.4,360.36165896827026,
images\S5_F_H_01.png,images\S5_F_H_01_scrambled.png,5,happy,10,female,4,,25,off,1,0.5,0.75,0.5,0.755,3,24,1,1,2,0,0,0,0,4,,,,,,0,85,85,85,,,,,,,,,,,,,,,,,,,,,,,,,,,,,,,,,,,,,,,,,,,,,,,,,,,,,,,,,673.0597007999995,673.559569,673.559569,674.3093472,674.3093472,674.8148475999997,674.8148475999997,675.5756377999996,675.5756377999996,None,num_6,0.4980208000006314,675.5756377999996,None,happy,0,Happy,676.0865509599997,None,None,676.0865509599997,None,,,,,,,,,,,,,,,,,,,,,,,,,,,,,,,,,,,,,,,,,,,,,,,,,,,,,44,001,0,23,500,500,2022_Nov_23_1307,Experiment,2021.1.4,360.36165896827026,
images\S8_M_H_01.png,images\S8_M_H_01_scrambled.png,8,happy,10,male,4,,43,off,1,0.5,0.75,0.5,0.837,3,42,2,1,3,0,0,0,0,4,,,,,,0,86,86,86,,,,,,,,,,,,,,,,,,,,,,,,,,,,,,,,,,,,,,,,,,,,,,,,,,,,,,,,,676.1698678999992,676.6725125999992,676.6725125999992,677.4278320999993,677.4278320999993,677.9305574999998,677.9305574999998,678.7718801999999,678.7718801999999,None,num_6,0.49376910000046337,678.7718801999999,None,happy,0,Happy,679.28005836,None,None,679.28005836,None,,,,,,,,,,,,,,,,,,,,,,,,,,,,,,,,,,,,,,,,,,,,,,,,,,,,,44,001,0,23,500,500,2022_Nov_23_1307,Experiment,2021.1.4,360.36165896827026,
images\S7_F_S_03.png,images\S7_F_S_03_scrambled.png,7,sad,-30,female,1,,402,off,1,0.5,0.75,0.5,0.918,3,401,3,1,1,0,0,0,0,1,,,,,,0,87,87,87,,,,,,,,,,,,,,,,,,,,,,,,,,,,,,,,,,,,,,,,,,,,,,,,,,,,,,,,,679.3300227,679.8326509999997,679.8326509999997,680.5853141999996,680.5853141999996,681.0906848999994,681.0906848999994,682.0125460999998,682.0125460999998,None,num_4,0.44542379999984405,682.0125460999998,None,sad,0,Sad,682.4875656599996,None,None,682.4875656599996,None,,,,,,,,,,,,,,,,,,,,,,,,,,,,,,,,,,,,,,,,,,,,,,,,,,,,,44,001,0,23,500,500,2022_Nov_23_1307,Experiment,2021.1.4,360.36165896827026,
images\S5_F_S_02.png,images\S5_F_S_02_scrambled.png,5,sad,-20,female,2,,29,off,1,0.5,0.75,0.5,0.904,3,28,4,1,1,0,0,0,0,2,,,,,,0,88,88,88,,,,,,,,,,,,,,,,,,,,,,,,,,,,,,,,,,,,,,,,,,,,,,,,,,,,,,,,,682.5401371999997,683.0456554999992,683.0456554999992,683.7953293999999,683.7953293999999,684.3008205999995,684.3008205999995,685.2115879999992,685.2115879999992,None,num_6,0.45421209999949497,685.2115879999992,None,happy,0,Sad,685.67807288,None,None,685.67807288,None,,,,,,,,,,,,,,,,,,,,,,,,,,,,,,,,,,,,,,,,,,,,,,,,,,,,,44,001,0,23,500,500,2022_Nov_23_1307,Experiment,2021.1.4,360.36165896827026,
images\S1_F_H_02.png,images\S1_F_H_02_scrambled.png,1,happy,20,female,5,,2,off,1,0.5,0.75,0.5,0.805,3,1,5,1,1,0,0,0,0,5,,,,,,0,89,89,89,,,,,,,,,,,,,,,,,,,,,,,,,,,,,,,,,,,,,,,,,,,,,,,,,,,,,,,,,685.7252718999998,686.2279117999997,686.2279117999997,686.9804559999993,686.9804559999993,687.4803126999996,687.4803126999996,688.2883809999994,688.2883809999994,None,num_6,0.3615264999998544,688.2883809999994,None,happy,0,Happy,688.67168602,None,None,688.67168602,None,,,,,,,,,,,,,,,,,,,,,,,,,,,,,,,,,,,,,,,,,,,,,,,,,,,,,44,001,0,23,500,500,2022_Nov_23_1307,Experiment,2021.1.4,360.36165896827026,
images\S4_M_S_03.png,images\S4_M_S_03_scrambled.png,4,sad,-30,male,1,,384,off,1,0.5,0.75,0.5,0.844,3,383,6,1,1,0,0,0,0,1,,,,,,0,90,90,90,,,,,,,,,,,,,,,,,,,,,,,,,,,,,,,,,,,,,,,,,,,,,,,,,,,,,,,,,688.7243448999998,689.2269719999995,689.2269719999995,689.9767448999992,689.9767448999992,690.4793603999997,690.4793603999997,691.3263842999995,691.3263842999995,None,num_4,0.3072468000000299,691.3263842999995,None,sad,0,Sad,691.6484471599996,None,None,691.6484471599996,None,,,,,,,,,,,,,,,,,,,,,,,,,,,,,,,,,,,,,,,,,,,,,,,,,,,,,44,001,0,23,500,500,2022_Nov_23_1307,Experiment,2021.1.4,360.36165896827026,
images\S5_F_H_03.png,images\S5_F_H_03_scrambled.png,5,happy,30,female,6,,207,on,2,0.5,0.75,0.5,0.801,3,206,1,1,1,2,2,32,128,166,,,,,,0,91,91,91,,,,,,,,,,,,,,,,,,,,,,,,,,,,,,,,,,,,,,,,,,,,,,,,,,,,,,,,,691.6956582999992,692.1982949999992,692.1982949999992,692.9508794999992,692.9508794999992,693.4562872999995,693.4562872999995,694.2615670999994,694.2615670999994,None,num_6,0.3004676999998992,694.2615670999994,None,happy,0,Happy,694.5726058599993,None,None,694.5726058599993,None,,,,,,,,,,,,,,,,,,,,,,,,,,,,,,,,,,,,,,,,,,,,,,,,,,,,,44,001,0,23,500,500,2022_Nov_23_1307,Experiment,2021.1.4,360.36165896827026,
images\S7_F_S_03.png,images\S7_F_S_03_scrambled.png,7,sad,-30,female,1,,462,on,2,0.5,0.75,0.5,0.853,3,461,2,1,1,2,2,32,128,161,,,,,,0,92,92,92,,,,,,,,,,,,,,,,,,,,,,,,,,,,,,,,,,,,,,,,,,,,,,,,,,,,,,,,,694.6197616999998,695.1224182999995,695.1224182999995,695.8777289999998,695.8777289999998,696.3803518999994,696.3803518999994,697.2384165999993,697.2384165999993,None,num_4,0.46728930000062974,697.2384165999993,None,sad,0,Sad,697.7216946399997,None,None,697.7216946399997,None,,,,,,,,,,,,,,,,,,,,,,,,,,,,,,,,,,,,,,,,,,,,,,,,,,,,,44,001,0,23,500,500,2022_Nov_23_1307,Experiment,2021.1.4,360.36165896827026,
images\S1_F_H_03.png,images\S1_F_H_03_scrambled.png,1,happy,30,female,6,,3,off,1,0.5,0.75,0.5,0.76,3,2,1,1,1,0,0,0,0,6,,,,,,0,93,93,93,,,,,,,,,,,,,,,,,,,,,,,,,,,,,,,,,,,,,,,,,,,,,,,,,,,,,,,,,697.8326631,698.3354277999997,698.3354277999997,699.0850584,699.0850584,699.5905605999997,699.5905605999997,700.3569353999992,700.3569353999992,None,num_6,1.196768200000406,700.3569353999992,None,happy,0,Happy,701.5648891599993,None,None,701.5648891599993,None,,,,,,,,,,,,,,,,,,,,,,,,,,,,,,,,,,,,,,,,,,,,,,,,,,,,,44,001,0,23,500,500,2022_Nov_23_1307,Experiment,2021.1.4,360.36165896827026,
images\S10_M_S_03.png,images\S10_M_S_03_scrambled.png,10,sad,-30,male,1,,600,on,2,0.5,0.75,0.5,0.911,3,599,1,1,1,2,2,32,128,161,,,,,,0,94,94,94,,,,,,,,,,,,,,,,,,,,,,,,,,,,,,,,,,,,,,,,,,,,,,,,,,,,,,,,,701.6120635999996,702.1175164999995,702.1175164999995,702.8672407999993,702.8672407999993,703.3726706999996,703.3726706999996,704.2862384,704.2862384,None,num_4,0.5153565000000526,704.2862384,None,sad,0,Sad,704.8166353599999,None,None,704.8166353599999,None,,,,,,,,,,,,,,,,,,,,,,,,,,,,,,,,,,,,,,,,,,,,,,,,,,,,,44,001,0,23,500,500,2022_Nov_23_1307,Experiment,2021.1.4,360.36165896827026,
images\S4_M_S_03.png,images\S4_M_S_03_scrambled.png,4,sad,-30,male,1,,264,off,1,0.5,0.75,0.5,0.844,3,263,1,1,2,0,0,0,0,1,,,,,,0,95,95,95,,,,,,,,,,,,,,,,,,,,,,,,,,,,,,,,,,,,,,,,,,,,,,,,,,,,,,,,,704.8666254999998,705.3692652,705.3692652,706.1245823999998,706.1245823999998,706.6272500999994,706.6272500999994,707.4770130999996,707.4770130999996,None,num_4,0.8364037999999709,707.4770130999996,None,sad,0,Sad,708.3239361599998,None,None,708.3239361599998,None,,,,,,,,,,,,,,,,,,,,,,,,,,,,,,,,,,,,,,,,,,,,,,,,,,,,,44,001,0,23,500,500,2022_Nov_23_1307,Experiment,2021.1.4,360.36165896827026,
images\S10_M_S_01.png,images\S10_M_S_01_scrambled.png,10,sad,-10,male,3,,238,on,2,0.5,0.75,0.5,0.811,3,237,1,1,1,2,2,32,128,163,,,,,,0,96,96,96,,,,,,,,,,,,,,,,,,,,,,,,,,,,,,,,,,,,,,,,,,,,,,,,,,,,,,,,,708.4072074999995,708.912628,708.912628,709.6651441999993,709.6651441999993,710.1678110999992,710.1678110999992,710.9842113999994,710.9842113999994,None,num_6,0.5614824000003864,710.9842113999994,None,happy,0,Sad,711.5534449799993,None,None,711.5534449799993,None,,,,,,,,,,,,,,,,,,,,,,,,,,,,,,,,,,,,,,,,,,,,,,,,,,,,,44,001,0,23,500,500,2022_Nov_23_1307,Experiment,2021.1.4,360.36165896827026,
images\S2_M_S_03.png,images\S2_M_S_03_scrambled.png,2,sad,-30,male,1,,192,on,2,0.5,0.75,0.5,0.843,3,191,2,1,1,2,2,32,128,161,,,,,,0,97,97,97,,,,,,,,,,,,,,,,,,,,,,,,,,,,,,,,,,,,,,,,,,,,,,,,,,,,,,,,,711.6006724999997,712.1005249,712.1005249,712.8502885999997,712.8502885999997,713.3529470999993,713.3529470999993,714.1998779999994,714.1998779999994,None,num_4,0.4179801000000225,714.1998779999994,None,sad,0,Sad,714.6443744199993,None,None,714.6443744199993,None,,,,,,,,,,,,,,,,,,,,,,,,,,,,,,,,,,,,,,,,,,,,,,,,,,,,,44,001,0,23,500,500,2022_Nov_23_1307,Experiment,2021.1.4,360.36165896827026,
images\S5_F_S_02.png,images\S5_F_S_02_scrambled.png,5,sad,-20,female,2,,509,off,1,0.5,0.75,0.5,0.841,3,508,1,1,1,0,0,0,0,2,,,,,,0,98,98,98,,,,,,,,,,,,,,,,,,,,,,,,,,,,,,,,,,,,,,,,,,,,,,,,,,,,,,,,,714.6969409999992,715.1967846999996,715.1967846999996,715.9465541999998,715.9465541999998,716.4492028999994,716.4492028999994,717.2933622999999,717.2933622999999,None,num_4,0.49236610000025394,717.2933622999999,None,sad,0,Sad,717.7987659599993,None,None,717.7987659599993,None,,,,,,,,,,,,,,,,,,,,,,,,,,,,,,,,,,,,,,,,,,,,,,,,,,,,,44,001,0,23,500,500,2022_Nov_23_1307,Experiment,2021.1.4,360.36165896827026,
images\S6_M_S_01.png,images\S6_M_S_01_scrambled.png,6,sad,-10,male,3,,274,off,1,0.5,0.75,0.5,0.925,3,273,2,1,1,0,0,0,0,3,,,,,,0,99,99,99,,,,,,,,,,,,,,,,,,,,,,,,,,,,,,,,,,,,,,,,,,,,,,,,,,,,,,,,,717.845977,718.3486304999997,718.3486304999997,719.1011427999993,719.1011427999993,719.6066655999994,719.6066655999994,720.5312602999993,720.5312602999993,None,num_4,0.6865017999998599,720.5312602999993,None,sad,0,Sad,721.2310852599993,None,None,721.2310852599993,None,,,,,,,,,,,,,,,,,,,,,,,,,,,,,,,,,,,,,,,,,,,,,,,,,,,,,44,001,0,23,500,500,2022_Nov_23_1307,Experiment,2021.1.4,360.36165896827026,
images\S9_F_S_02.png,images\S9_F_S_02_scrambled.png,9,sad,-20,female,2,,53,off,1,0.5,0.75,0.5,0.871,3,52,3,1,1,0,0,0,0,2,,,,,,0,100,100,100,,,,,,,,,,,,,,,,,,,,,,,,,,,,,,,,,,,,,,,,,,,,,,,,,,,,,,,,,721.2810385999992,721.7836460999997,721.7836460999997,722.5390002999993,722.5390002999993,723.0417448999997,723.0417448999997,723.9164729999993,723.9164729999993,None,num_4,0.5491154999999708,723.9164729999993,None,sad,0,Sad,724.47729376,None,None,724.47729376,None,,,,,,,,,,,,,,,,,,,,,,,,,,,,,,,,,,,,,,,,,,,,,,,,,,,,,44,001,0,23,500,500,2022_Nov_23_1307,Experiment,2021.1.4,360.36165896827026,
images\S8_M_H_01.png,images\S8_M_H_01_scrambled.png,8,happy,10,male,4,,583,on,2,0.5,0.75,0.5,0.857,3,582,1,1,1,2,2,32,128,164,,,,,,0,101,101,101,,,,,,,,,,,,,,,,,,,,,,,,,,,,,,,,,,,,,,,,,,,,,,,,,,,,,,,,,724.5244975999994,725.0271661999996,725.0271661999996,725.7796679999992,725.7796679999992,726.2823203999997,726.2823203999997,727.1431556999996,727.1431556999996,None,num_6,0.4105970000000525,727.1431556999996,None,happy,0,Happy,727.5680374599996,None,None,727.5680374599996,None,,,,,,,,,,,,,,,,,,,,,,,,,,,,,,,,,,,,,,,,,,,,,,,,,,,,,44,001,0,23,500,500,2022_Nov_23_1307,Experiment,2021.1.4,360.36165896827026,
images\S8_M_S_01.png,images\S8_M_S_01_scrambled.png,8,sad,-10,male,3,,406,off,1,0.5,0.75,0.5,0.848,3,405,1,2,1,0,0,0,0,3,,,,,,0,102,102,102,,,,,,,,,,,,,,,,,,,,,,,,,,,,,,,,,,,,,,,,,,,,,,,,,,,,,,,,,727.6234701999992,728.1289577999996,728.1289577999996,728.8842599999998,728.8842599999998,729.3869835999994,729.3869835999994,730.2477171999999,730.2477171999999,None,num_6,0.9058783000000403,730.2477171999999,None,happy,0,Sad,731.1613510799993,None,None,731.1613510799993,None,,,,,,,,,,,,,,,,,,,,,,,,,,,,,,,,,,,,,,,,,,,,,,,,,,,,,44,001,0,23,500,500,2022_Nov_23_1307,Experiment,2021.1.4,360.36165896827026,
images\S9_F_H_03.png,images\S9_F_H_03_scrambled.png,9,happy,30,female,6,,411,off,1,0.5,0.75,0.5,0.891,3,410,2,1,1,0,0,0,0,6,,,,,,0,103,103,103,,,,,,,,,,,,,,,,,,,,,,,,,,,,,,,,,,,,,,,,,,,,,,,,,,,,,,,,,731.2418829999997,731.7473270999999,731.7473270999999,732.4998737999995,732.4998737999995,733.0024956999996,733.0024956999996,733.8994017999994,733.8994017999994,None,num_6,0.34200239999972837,733.8994017999994,None,happy,0,Happy,734.2521003599994,None,None,734.2521003599994,None,,,,,,,,,,,,,,,,,,,,,,,,,,,,,,,,,,,,,,,,,,,,,,,,,,,,,44,001,0,23,500,500,2022_Nov_23_1307,Experiment,2021.1.4,360.36165896827026,
images\S1_F_S_03.png,images\S1_F_S_03_scrambled.png,1,sad,-30,female,1,,246,off,1,0.5,0.75,0.5,0.837,3,245,3,1,1,0,0,0,0,1,,,,,,0,104,104,104,,,,,,,,,,,,,,,,,,,,,,,,,,,,,,,,,,,,,,,,,,,,,,,,,,,,,,,,,734.2992678999999,734.8020011999997,734.8020011999997,735.5516798999997,735.5516798999997,736.0515237999998,736.0515237999998,736.8929542999995,736.8929542999995,None,num_4,0.5566539000001285,736.8929542999995,None,sad,0,Sad,737.4706837199998,None,None,737.4706837199998,None,,,,,,,,,,,,,,,,,,,,,,,,,,,,,,,,,,,,,,,,,,,,,,,,,,,,,44,001,0,23,500,500,2022_Nov_23_1307,Experiment,2021.1.4,360.36165896827026,
images\S8_M_H_02.png,images\S8_M_H_02_scrambled.png,8,happy,20,male,5,,164,off,1,0.5,0.75,0.5,0.921,3,163,4,1,1,0,0,0,0,5,,,,,,0,105,105,105,,,,,,,,,,,,,,,,,,,,,,,,,,,,,,,,,,,,,,,,,,,,,,,,,,,,,,,,,737.5232776999992,738.0231199999998,738.0231199999998,738.7756720999996,738.7756720999996,739.2782908999998,739.2782908999998,740.2030482,740.2030482,None,num_6,0.47840650000034657,740.2030482,None,happy,0,Happy,740.6973305599994,None,None,740.6973305599994,None,,,,,,,,,,,,,,,,,,,,,,,,,,,,,,,,,,,,,,,,,,,,,,,,,,,,,44,001,0,23,500,500,2022_Nov_23_1307,Experiment,2021.1.4,360.36165896827026,
images\blank.jpg,images\blank.jpg,none,none,none,none,0,,627,on,2,0.5,0.75,0.5,0.816,0,626,1,1,1,3,3,48,192,240,,,,,,0,106,106,106,,,,,,,,,,,,,,,,,,,,,,,,,,,,,,,,,,,,,,,,,,,,,,,,,,,,,,,,,740.7808788999992,741.283265,741.283265,742.0385868999992,742.0385868999992,742.5411798999994,742.5411798999994,743.3631888,743.3631888,743.3631888,None,,743.3631888,None,miss,0,,746.3650860799994,None,None,746.3650860799994,None,,,,,,,,,,,,,,,,,,,,,,,,,,,,,,,,,,,,,,,,,,,,,,,,,,,,,44,001,0,23,500,500,2022_Nov_23_1307,Experiment,2021.1.4,360.36165896827026,
images\blank.jpg,images\blank.jpg,none,none,none,none,0,,621,on,2,0.5,0.75,0.5,0.827,0,620,2,2,2,3,3,48,192,240,,,,,,0,107,107,107,,,,,,,,,,,,,,,,,,,,,,,,,,,,,,,,,,,,,,,,,,,,,,,,,,,,,,,,,746.3955745999992,746.8981979999999,746.8981979999999,747.6507554,747.6507554,748.1561798999992,748.1561798999992,748.9864736,748.9864736,748.9864736,None,,748.9864736,746.3955745999992,miss,0,,751.9855468399994,None,None,751.9855468399994,None,,,,,,,,,,,,,,,,,,,,,,,,,,,,,,,,,,,,,,,,,,,,,,,,,,,,,44,001,0,23,500,500,2022_Nov_23_1307,Experiment,2021.1.4,360.36165896827026,
images\S9_F_S_03.png,images\S9_F_S_03_scrambled.png,9,sad,-30,female,1,,234,on,2,0.5,0.75,0.5,0.822,3,233,3,1,1,2,2,32,128,161,,,,,,0,108,108,108,,,,,,,,,,,,,,,,,,,,,,,,,,,,,,,,,,,,,,,,,,,,,,,,,,,,,,,,,752.1023251999995,752.6047671999995,752.6047671999995,753.3601155999995,753.3601155999995,753.8655222999996,753.8655222999996,754.6874725999996,754.6874725999996,None,num_4,0.3542983000006643,754.6874725999996,752.1023251999995,sad,0,Sad,755.0679386199996,None,None,755.0679386199996,None,,,,,,,,,,,,,,,,,,,,,,,,,,,,,,,,,,,,,,,,,,,,,,,,,,,,,44,001,0,23,500,500,2022_Nov_23_1307,Experiment,2021.1.4,360.36165896827026,
images\blank.jpg,images\blank.jpg,none,none,none,none,0,,605,on,2,0.5,0.75,0.5,0.94,0,604,4,1,1,3,3,48,192,240,,,,,,0,109,109,109,,,,,,,,,,,,,,,,,,,,,,,,,,,,,,,,,,,,,,,,,,,,,,,,,,,,,,,,,755.1569628999996,755.6566217,755.6566217,756.4091596999997,756.4091596999997,756.9146121999993,756.9146121999993,757.8588456999996,757.8588456999996,757.8588456999996,None,,757.8588456999996,None,miss,0,,760.8634627799997,None,None,760.8634627799997,None,,,,,,,,,,,,,,,,,,,,,,,,,,,,,,,,,,,,,,,,,,,,,,,,,,,,,44,001,0,23,500,500,2022_Nov_23_1307,Experiment,2021.1.4,360.36165896827026,
images\S3_F_H_03.png,images\S3_F_H_03_scrambled.png,3,happy,30,female,6,,135,off,1,0.5,0.75,0.5,0.764,3,134,1,1,1,0,0,0,0,6,,,,,,0,110,110,110,,,,,,,,,,,,,,,,,,,,,,,,,,,,,,,,,,,,,,,,,,,,,,,,,,,,,,,,,760.9913606999999,761.4965139999995,761.4965139999995,762.249057,762.249057,762.7516763999993,762.7516763999993,763.5209024999995,763.5209024999995,None,num_6,0.2815596000000369,763.5209024999995,760.9913606999999,happy,0,Happy,763.8264977799995,None,None,763.8264977799995,None,,,,,,,,,,,,,,,,,,,,,,,,,,,,,,,,,,,,,,,,,,,,,,,,,,,,,44,001,0,23,500,500,2022_Nov_23_1307,Experiment,2021.1.4,360.36165896827026,
images\S4_M_H_02.png,images\S4_M_H_02_scrambled.png,4,happy,20,male,5,,260,off,1,0.5,0.75,0.5,0.914,3,259,2,1,1,0,0,0,0,5,,,,,,0,111,111,111,,,,,,,,,,,,,,,,,,,,,,,,,,,,,,,,,,,,,,,,,,,,,,,,,,,,,,,,,763.8790876999992,764.3789615999995,764.3789615999995,765.1287054999993,765.1287054999993,765.6313261999994,765.6313261999994,766.5505475999998,766.5505475999998,None,num_4,0.4836411999995107,766.5505475999998,None,sad,0,Happy,767.0449046199998,None,None,767.0449046199998,None,,,,,,,,,,,,,,,,,,,,,,,,,,,,,,,,,,,,,,,,,,,,,,,,,,,,,44,001,0,23,500,500,2022_Nov_23_1307,Experiment,2021.1.4,360.36165896827026,
images\S5_F_S_01.png,images\S5_F_S_01_scrambled.png,5,sad,-10,female,3,,448,on,2,0.5,0.75,0.5,0.817,3,447,1,1,1,2,2,32,128,163,,,,,,0,112,112,112,,,,,,,,,,,,,,,,,,,,,,,,,,,,,,,,,,,,,,,,,,,,,,,,,,,,,,,,,767.1058902999994,767.6085045,767.6085045,768.3639599999997,768.3639599999997,768.8664456999995,768.8664456999995,769.6856831999994,769.6856831999994,None,num_6,0.4362385999993421,769.6856831999994,None,happy,0,Sad,770.1300155199993,None,None,770.1300155199993,None,,,,,,,,,,,,,,,,,,,,,,,,,,,,,,,,,,,,,,,,,,,,,,,,,,,,,44,001,0,23,500,500,2022_Nov_23_1307,Experiment,2021.1.4,360.36165896827026,
images\S8_M_S_01.png,images\S8_M_S_01_scrambled.png,8,sad,-10,male,3,,586,on,2,0.5,0.75,0.5,0.788,3,585,2,1,2,2,2,32,128,163,,,,,,0,113,113,113,,,,,,,,,,,,,,,,,,,,,,,,,,,,,,,,,,,,,,,,,,,,,,,,,,,,,,,,,770.1799316999995,770.6853949999995,770.6853949999995,771.4406988999999,771.4406988999999,771.9433306999999,771.9433306999999,772.7348101999996,772.7348101999996,None,num_4,1.1710880000000543,772.7348101999996,None,sad,0,Sad,773.9204739599999,None,None,773.9204739599999,None,,,,,,,,,,,,,,,,,,,,,,,,,,,,,,,,,,,,,,,,,,,,,,,,,,,,,44,001,0,23,500,500,2022_Nov_23_1307,Experiment,2021.1.4,360.36165896827026,
images\S6_M_H_02.png,images\S6_M_H_02_scrambled.png,6,happy,20,male,5,,272,off,1,0.5,0.75,0.5,0.894,3,271,1,1,1,0,0,0,0,5,,,,,,0,114,114,114,,,,,,,,,,,,,,,,,,,,,,,,,,,,,,,,,,,,,,,,,,,,,,,,,,,,,,,,,773.9676631999992,774.4702854999996,774.4702854999996,775.2200735999995,775.2200735999995,775.7227011999994,775.7227011999994,776.6224416999994,776.6224416999994,None,num_6,0.731397399999878,776.6224416999994,None,happy,0,Happy,777.3638792599994,None,None,777.3638792599994,None,,,,,,,,,,,,,,,,,,,,,,,,,,,,,,,,,,,,,,,,,,,,,,,,,,,,,44,001,0,23,500,500,2022_Nov_23_1307,Experiment,2021.1.4,360.36165896827026,
images\S3_F_S_02.png,images\S3_F_S_02_scrambled.png,3,sad,-20,female,2,,377,off,1,0.5,0.75,0.5,0.916,3,376,2,1,1,0,0,0,0,2,,,,,,0,115,115,115,,,,,,,,,,,,,,,,,,,,,,,,,,,,,,,,,,,,,,,,,,,,,,,,,,,,,,,,,777.4138278,777.9192547999992,777.9192547999992,778.6718139999994,778.6718139999994,779.1744171,779.1744171,780.0936243999995,780.0936243999995,None,num_4,0.4360570999997435,780.0936243999995,None,sad,0,Sad,780.5406786599996,None,None,780.5406786599996,None,,,,,,,,,,,,,,,,,,,,,,,,,,,,,,,,,,,,,,,,,,,,,,,,,,,,,44,001,0,23,500,500,2022_Nov_23_1307,Experiment,2021.1.4,360.36165896827026,
images\S6_M_H_03.png,images\S6_M_H_03_scrambled.png,6,happy,30,male,6,,453,on,2,0.5,0.75,0.5,0.878,3,452,1,1,1,2,2,32,128,166,,,,,,0,116,116,116,,,,,,,,,,,,,,,,,,,,,,,,,,,,,,,,,,,,,,,,,,,,,,,,,,,,,,,,,780.5878577999993,781.0904944999993,781.0904944999993,781.8403067999998,781.8403067999998,782.3430038999995,782.3430038999995,783.2232293999996,783.2232293999996,None,num_6,0.47480429999995977,783.2232293999996,None,happy,0,Happy,783.71481634,None,None,783.71481634,None,,,,,,,,,,,,,,,,,,,,,,,,,,,,,,,,,,,,,,,,,,,,,,,,,,,,,44,001,0,23,500,500,2022_Nov_23_1307,Experiment,2021.1.4,360.36165896827026,
images\S3_F_H_01.png,images\S3_F_H_01_scrambled.png,3,happy,10,female,4,,133,off,1,0.5,0.75,0.5,0.887,3,132,1,1,1,0,0,0,0,4,,,,,,0,117,117,117,,,,,,,,,,,,,,,,,,,,,,,,,,,,,,,,,,,,,,,,,,,,,,,,,,,,,,,,,783.8257475,784.3283869999996,784.3283869999996,785.0781462999994,785.0781462999994,785.5835772999999,785.5835772999999,786.4721642999993,786.4721642999993,None,num_4,0.44982139999956416,786.4721642999993,None,sad,0,Happy,786.9303392799998,None,None,786.9303392799998,None,,,,,,,,,,,,,,,,,,,,,,,,,,,,,,,,,,,,,,,,,,,,,,,,,,,,,44,001,0,23,500,500,2022_Nov_23_1307,Experiment,2021.1.4,360.36165896827026,
images\S8_M_H_01.png,images\S8_M_H_01_scrambled.png,8,happy,10,male,4,,463,on,2,0.5,0.75,0.5,0.805,3,462,1,1,2,2,2,32,128,164,,,,,,0,118,118,118,,,,,,,,,,,,,,,,,,,,,,,,,,,,,,,,,,,,,,,,,,,,,,,,,,,,,,,,,786.9775706999999,787.4802014999996,787.4802014999996,788.2328718999997,788.2328718999997,788.7382077999991,788.7382077999991,789.5490390999994,789.5490390999994,None,num_6,0.34066949999942153,789.5490390999994,None,happy,0,Happy,789.91561266,None,None,789.91561266,None,,,,,,,,,,,,,,,,,,,,,,,,,,,,,,,,,,,,,,,,,,,,,,,,,,,,,44,001,0,23,500,500,2022_Nov_23_1307,Experiment,2021.1.4,360.36165896827026,
images\S7_F_H_03.png,images\S7_F_H_03_scrambled.png,7,happy,30,female,6,,159,off,1,0.5,0.75,0.5,0.828,3,158,1,1,1,0,0,0,0,6,,,,,,0,119,119,119,,,,,,,,,,,,,,,,,,,,,,,,,,,,,,,,,,,,,,,,,,,,,,,,,,,,,,,,,789.96832,790.4709461999992,790.4709461999992,791.2235416999993,791.2235416999993,791.7261128999999,791.7261128999999,792.5564059999997,792.5564059999997,None,num_6,0.44522719999986293,792.5564059999997,None,happy,0,Happy,793.0146654,None,None,793.0146654,None,,,,,,,,,,,,,,,,,,,,,,,,,,,,,,,,,,,,,,,,,,,,,,,,,,,,,44,001,0,23,500,500,2022_Nov_23_1307,Experiment,2021.1.4,360.36165896827026,
images\S5_F_H_01.png,images\S5_F_H_01_scrambled.png,5,happy,10,female,4,,385,off,1,0.5,0.75,0.5,0.851,3,384,2,1,1,0,0,0,0,4,,,,,,0,120,120,120,,,,,,,,,,,,,,,,,,,,,,,,,,,,,,,,,,,,,,,,,,,,,,,,,,,,,,,,,793.0618118999992,793.5673553999995,793.5673553999995,794.3170069999996,794.3170069999996,794.8224093999997,794.8224093999997,795.677807,795.677807,None,num_6,0.46853360000022803,795.677807,None,happy,0,Happy,796.1721423199994,None,None,796.1721423199994,None,,,,,,,,,,,,,,,,,,,,,,,,,,,,,,,,,,,,,,,,,,,,,,,,,,,,,44,001,0,23,500,500,2022_Nov_23_1307,Experiment,2021.1.4,360.36165896827026,
images\S4_M_S_03.png,images\S4_M_S_03_scrambled.png,4,sad,-30,male,1,,144,off,1,0.5,0.75,0.5,0.931,3,143,3,1,1,0,0,0,0,1,,,,,,0,121,121,121,,,,,,,,,,,,,,,,,,,,,,,,,,,,,,,,,,,,,,,,,,,,,,,,,,,,,,,,,796.2247318999998,796.7274743999997,796.7274743999997,797.4771172999999,797.4771172999999,797.9825851999994,797.9825851999994,798.9184061999995,798.9184061999995,None,num_4,0.41940820000036183,798.9184061999995,None,sad,0,Sad,799.3515697599995,None,None,799.3515697599995,None,,,,,,,,,,,,,,,,,,,,,,,,,,,,,,,,,,,,,,,,,,,,,,,,,,,,,44,001,0,23,500,500,2022_Nov_23_1307,Experiment,2021.1.4,360.36165896827026,
images\blank.jpg,images\blank.jpg,none,none,none,none,0,,636,on,2,0.5,0.75,0.5,0.804,0,635,1,1,1,3,3,48,192,240,,,,,,0,122,122,122,,,,,,,,,,,,,,,,,,,,,,,,,,,,,,,,,,,,,,,,,,,,,,,,,,,,,,,,,799.4350666,799.9402733999996,799.9402733999996,800.6929373999992,800.6929373999992,801.1954264999995,801.1954264999995,802.0007710999998,802.0007710999998,802.0007710999998,None,,802.0007710999998,None,miss,0,,805.0026170399999,None,None,805.0026170399999,None,,,,,,,,,,,,,,,,,,,,,,,,,,,,,,,,,,,,,,,,,,,,,,,,,,,,,44,001,0,23,500,500,2022_Nov_23_1307,Experiment,2021.1.4,360.36165896827026,
images\S5_F_H_02.png,images\S5_F_H_02_scrambled.png,5,happy,20,female,5,,566,on,2,0.5,0.75,0.5,0.769,3,565,2,1,1,2,2,32,128,165,,,,,,0,123,123,123,,,,,,,,,,,,,,,,,,,,,,,,,,,,,,,,,,,,,,,,,,,,,,,,,,,,,,,,,805.1166710999996,805.6163121,805.6163121,806.3689754999996,806.3689754999996,806.8742997999998,806.8742997999998,807.6491091999997,807.6491091999997,None,num_6,0.2886463000004369,807.6491091999997,805.1166710999996,happy,0,Happy,807.9656455999993,None,None,807.9656455999993,None,,,,,,,,,,,,,,,,,,,,,,,,,,,,,,,,,,,,,,,,,,,,,,,,,,,,,44,001,0,23,500,500,2022_Nov_23_1307,Experiment,2021.1.4,360.36165896827026,
images\S6_M_S_03.png,images\S6_M_S_03_scrambled.png,6,sad,-30,male,1,,216,on,2,0.5,0.75,0.5,0.934,3,215,3,1,1,2,2,32,128,161,,,,,,0,124,124,124,,,,,,,,,,,,,,,,,,,,,,,,,,,,,,,,,,,,,,,,,,,,,,,,,,,,,,,,,808.0211096999992,808.5237561999993,808.5237561999993,809.2791545,809.2791545,809.7845184999996,809.7845184999996,810.7203209999998,810.7203209999998,None,num_4,0.6734852999998111,810.7203209999998,None,sad,0,Sad,811.4089973599993,None,None,811.4089973599993,None,,,,,,,,,,,,,,,,,,,,,,,,,,,,,,,,,,,,,,,,,,,,,,,,,,,,,44,001,0,23,500,500,2022_Nov_23_1307,Experiment,2021.1.4,360.36165896827026,
images\S2_M_S_03.png,images\S2_M_S_03_scrambled.png,2,sad,-30,male,1,,72,on,2,0.5,0.75,0.5,0.796,3,71,4,1,2,2,2,32,128,161,,,,,,0,125,125,125,,,,,,,,,,,,,,,,,,,,,,,,,,,,,,,,,,,,,,,,,,,,,,,,,,,,,,,,,811.4561781999992,811.9589308999994,811.9589308999994,812.7142021999998,812.7142021999998,813.2195781,813.2195781,814.0193364999996,814.0193364999996,None,num_4,0.37433860000055574,814.0193364999996,None,sad,0,Sad,814.4109005999999,None,None,814.4109005999999,None,,,,,,,,,,,,,,,,,,,,,,,,,,,,,,,,,,,,,,,,,,,,,,,,,,,,,44,001,0,23,500,500,2022_Nov_23_1307,Experiment,2021.1.4,360.36165896827026,
images\S3_F_S_01.png,images\S3_F_S_01_scrambled.png,3,sad,-10,female,3,,16,off,1,0.5,0.75,0.5,0.812,3,15,1,1,1,0,0,0,0,3,,,,,,0,126,126,126,,,,,,,,,,,,,,,,,,,,,,,,,,,,,,,,,,,,,,,,,,,,,,,,,,,,,,,,,814.4580217999992,814.9578778999994,814.9578778999994,815.7133277999992,815.7133277999992,816.2187033,816.2187033,817.0378151999994,817.0378151999994,None,num_4,0.4041292000001704,817.0378151999994,None,sad,0,Sad,817.4571280599993,None,None,817.4571280599993,None,,,,,,,,,,,,,,,,,,,,,,,,,,,,,,,,,,,,,,,,,,,,,,,,,,,,,44,001,0,23,500,500,2022_Nov_23_1307,Experiment,2021.1.4,360.36165896827026,
images\S9_F_S_01.png,images\S9_F_S_01_scrambled.png,9,sad,-10,female,3,,412,off,1,0.5,0.75,0.5,0.876,3,411,2,1,2,0,0,0,0,3,,,,,,0,127,127,127,,,,,,,,,,,,,,,,,,,,,,,,,,,,,,,,,,,,,,,,,,,,,,,,,,,,,,,,,817.5043216999993,818.0097299999998,818.0097299999998,818.7595088999997,818.7595088999997,819.2649327999998,819.2649327999998,820.1480918999996,820.1480918999996,None,num_6,0.6855451000001267,820.1480918999996,None,happy,0,Sad,820.8421860799995,None,None,820.8421860799995,None,,,,,,,,,,,,,,,,,,,,,,,,,,,,,,,,,,,,,,,,,,,,,,,,,,,,,44,001,0,23,500,500,2022_Nov_23_1307,Experiment,2021.1.4,360.36165896827026,
images\S7_F_H_01.png,images\S7_F_H_01_scrambled.png,7,happy,10,female,4,,517,off,1,0.5,0.75,0.5,0.846,3,516,3,1,1,0,0,0,0,4,,,,,,0,128,128,128,,,,,,,,,,,,,,,,,,,,,,,,,,,,,,,,,,,,,,,,,,,,,,,,,,,,,,,,,820.9254971999999,821.4282334,821.4282334,822.1806813999992,822.1806813999992,822.6834184999998,822.6834184999998,823.5331423999996,823.5331423999996,None,num_6,0.7172072000003027,823.5331423999996,None,happy,0,Happy,824.2718402399998,None,None,824.2718402399998,None,,,,,,,,,,,,,,,,,,,,,,,,,,,,,,,,,,,,,,,,,,,,,,,,,,,,,44,001,0,23,500,500,2022_Nov_23_1307,Experiment,2021.1.4,360.36165896827026,
images\S8_M_H_02.png,images\S8_M_H_02_scrambled.png,8,happy,20,male,5,,404,off,1,0.5,0.75,0.5,0.795,3,403,4,1,1,0,0,0,0,5,,,,,,0,129,129,129,,,,,,,,,,,,,,,,,,,,,,,,,,,,,,,,,,,,,,,,,,,,,,,,,,,,,,,,,824.3244477999997,824.8298971999993,824.8298971999993,825.5851749999993,825.5851749999993,826.0906046999999,826.0906046999999,826.8875828999999,826.8875828999999,None,num_6,0.3465071999999054,826.8875828999999,None,happy,0,Happy,827.25693198,None,None,827.25693198,None,,,,,,,,,,,,,,,,,,,,,,,,,,,,,,,,,,,,,,,,,,,,,,,,,,,,,44,001,0,23,500,500,2022_Nov_23_1307,Experiment,2021.1.4,360.36165896827026,
images\S1_F_H_03.png,images\S1_F_H_03_scrambled.png,1,happy,30,female,6,,243,off,1,0.5,0.75,0.5,0.758,3,242,5,1,1,0,0,0,0,6,,,,,,0,130,130,130,,,,,,,,,,,,,,,,,,,,,,,,,,,,,,,,,,,,,,,,,,,,,,,,,,,,,,,,,827.3096473999994,827.8150879999994,827.8150879999994,828.5703942999999,828.5703942999999,829.0757971999992,829.0757971999992,829.8366641999992,829.8366641999992,None,num_6,0.36504039999999804,829.8366641999992,None,happy,0,Happy,830.2170895999998,None,space,830.2170895999998,None,78.80033010000079,,,,,,,,,,,,,,,,,,,,,,,,,,,,,,,,,,,,,,,,,,,,,,,,,,,,44,001,0,23,500,500,2022_Nov_23_1307,Experiment,2021.1.4,360.36165896827026,
images\S1_F_S_03.png,images\S1_F_S_03_scrambled.png,1,sad,-30,female,1,,186,on,2,0.5,0.75,0.5,0.882,3,185,1,2,1,2,2,32,128,161,,,,,,0,131,131,131,,,,,,,,,,,,,,,,,,,,,,,,,,,,,,,,,,,,,,,,,,,,,,,,,,,,,,,,,909.0761889999994,909.5788882999996,909.5788882999996,910.3341943999994,910.3341943999994,910.8340914999999,910.8340914999999,911.7198799999996,911.7198799999996,None,num_6,0.2661637000001065,911.7198799999996,None,happy,0,Sad,912.0003480599997,None,None,912.0003480599997,None,,,,,,,,,,,,,,,,,,,,,,,,,,,,,,,,,,,,,,,,,,,,,,,,,,,,,44,001,0,23,500,500,2022_Nov_23_1307,Experiment,2021.1.4,360.36165896827026,
images\S1_F_H_01.png,images\S1_F_H_01_scrambled.png,1,happy,10,female,4,,541,on,2,0.5,0.75,0.5,0.919,3,540,2,3,1,2,2,32,128,164,,,,,,0,132,132,132,,,,,,,,,,,,,,,,,,,,,,,,,,,,,,,,,,,,,,,,,,,,,,,,,,,,,,,,,912.1086538999998,912.6085165999993,912.6085165999993,913.3638372999994,913.3638372999994,913.8664795999994,913.8664795999994,914.7912886999993,914.7912886999993,None,num_6,0.44269069999973,914.7912886999993,None,happy,0,Happy,915.2466271599995,None,None,915.2466271599995,None,,,,,,,,,,,,,,,,,,,,,,,,,,,,,,,,,,,,,,,,,,,,,,,,,,,,,44,001,0,23,500,500,2022_Nov_23_1307,Experiment,2021.1.4,360.36165896827026,
images\S2_M_S_03.png,images\S2_M_S_03_scrambled.png,2,sad,-30,male,1,,432,on,2,0.5,0.75,0.5,0.828,3,431,3,1,1,2,2,32,128,161,,,,,,0,133,133,133,,,,,,,,,,,,,,,,,,,,,,,,,,,,,,,,,,,,,,,,,,,,,,,,,,,,,,,,,915.2937920999993,915.7992023999996,915.7992023999996,916.5489675999997,916.5489675999997,917.0516424999996,917.0516424999996,917.8846981999995,917.8846981999995,None,num_4,0.35738450000008015,917.8846981999995,None,sad,0,Sad,918.25676766,None,None,918.25676766,None,,,,,,,,,,,,,,,,,,,,,,,,,,,,,,,,,,,,,,,,,,,,,,,,,,,,,44,001,0,23,500,500,2022_Nov_23_1307,Experiment,2021.1.4,360.36165896827026,
images\S9_F_S_02.png,images\S9_F_S_02_scrambled.png,9,sad,-20,female,2,,173,off,1,0.5,0.75,0.5,0.948,3,172,1,1,1,0,0,0,0,2,,,,,,0,134,134,134,,,,,,,,,,,,,,,,,,,,,,,,,,,,,,,,,,,,,,,,,,,,,,,,,,,,,,,,,918.3039783999993,918.8066015999993,918.8066015999993,919.5591449999993,919.5591449999993,920.0618144,920.0618144,921.0115401999992,921.0115401999992,None,num_4,0.43807860000015353,921.0115401999992,None,sad,0,Sad,921.4669524000001,None,None,921.4669524000001,None,,,,,,,,,,,,,,,,,,,,,,,,,,,,,,,,,,,,,,,,,,,,,,,,,,,,,44,001,0,23,500,500,2022_Nov_23_1307,Experiment,2021.1.4,360.36165896827026,
images\S8_M_S_01.png,images\S8_M_S_01_scrambled.png,8,sad,-10,male,3,,166,off,1,0.5,0.75,0.5,0.872,3,165,2,1,1,0,0,0,0,3,,,,,,0,135,135,135,,,,,,,,,,,,,,,,,,,,,,,,,,,,,,,,,,,,,,,,,,,,,,,,,,,,,,,,,921.514107,922.0167291999996,922.0167291999996,922.7720933999999,922.7720933999999,923.2774845999993,923.2774845999993,924.1522270999994,924.1522270999994,None,num_4,0.5698118999998769,924.1522270999994,None,sad,0,Sad,924.7353612599999,None,None,924.7353612599999,None,,,,,,,,,,,,,,,,,,,,,,,,,,,,,,,,,,,,,,,,,,,,,,,,,,,,,44,001,0,23,500,500,2022_Nov_23_1307,Experiment,2021.1.4,360.36165896827026,
images\S7_F_H_02.png,images\S7_F_H_02_scrambled.png,7,happy,20,female,5,,338,on,2,0.5,0.75,0.5,0.816,3,337,1,1,1,2,2,32,128,165,,,,,,0,136,136,136,,,,,,,,,,,,,,,,,,,,,,,,,,,,,,,,,,,,,,,,,,,,,,,,,,,,,,,,,924.7825524,925.2823935999995,925.2823935999995,926.0321623,926.0321623,926.5348300999995,926.5348300999995,927.3512035999993,927.3512035999993,None,num_6,0.4426742000005106,927.3512035999993,None,happy,0,Happy,927.8151223199999,None,None,927.8151223199999,None,,,,,,,,,,,,,,,,,,,,,,,,,,,,,,,,,,,,,,,,,,,,,,,,,,,,,44,001,0,23,500,500,2022_Nov_23_1307,Experiment,2021.1.4,360.36165896827026,
images\S6_M_H_02.png,images\S6_M_H_02_scrambled.png,6,happy,20,male,5,,92,on,2,0.5,0.75,0.5,0.808,3,91,2,1,2,2,2,32,128,165,,,,,,0,137,137,137,,,,,,,,,,,,,,,,,,,,,,,,,,,,,,,,,,,,,,,,,,,,,,,,,,,,,,,,,927.8677158,928.3731394999995,928.3731394999995,929.1257157,929.1257157,929.6311954999992,929.6311954999992,930.4391441999996,930.4391441999996,None,num_6,0.31471109999984037,930.4391441999996,None,happy,0,Happy,930.77530782,None,None,930.77530782,None,,,,,,,,,,,,,,,,,,,,,,,,,,,,,,,,,,,,,,,,,,,,,,,,,,,,,44,001,0,23,500,500,2022_Nov_23_1307,Experiment,2021.1.4,360.36165896827026,
images\S10_M_S_01.png,images\S10_M_S_01_scrambled.png,10,sad,-10,male,3,,478,on,2,0.5,0.75,0.5,0.925,3,477,3,1,1,2,2,32,128,163,,,,,,0,138,138,138,,,,,,,,,,,,,,,,,,,,,,,,,,,,,,,,,,,,,,,,,,,,,,,,,,,,,,,,,930.8279172999992,931.3333438999998,931.3333438999998,932.0830845999999,932.0830845999999,932.5858361999999,932.5858361999999,933.5104283999999,933.5104283999999,None,num_6,0.37148120000074414,933.5104283999999,None,happy,0,Sad,933.8880981799998,None,None,933.8880981799998,None,,,,,,,,,,,,,,,,,,,,,,,,,,,,,,,,,,,,,,,,,,,,,,,,,,,,,44,001,0,23,500,500,2022_Nov_23_1307,Experiment,2021.1.4,360.36165896827026,
images\S7_F_H_01.png,images\S7_F_H_01_scrambled.png,7,happy,10,female,4,,37,off,1,0.5,0.75,0.5,0.851,3,36,1,1,1,0,0,0,0,4,,,,,,0,139,139,139,,,,,,,,,,,,,,,,,,,,,,,,,,,,,,,,,,,,,,,,,,,,,,,,,,,,,,,,,933.9353149999997,934.4351424999995,934.4351424999995,935.1849177999993,935.1849177999993,935.6848002999996,935.6848002999996,936.5401748999993,936.5401748999993,None,num_6,0.3899225999994087,936.5401748999993,None,happy,0,Happy,936.9567128199993,None,None,936.9567128199993,None,,,,,,,,,,,,,,,,,,,,,,,,,,,,,,,,,,,,,,,,,,,,,,,,,,,,,44,001,0,23,500,500,2022_Nov_23_1307,Experiment,2021.1.4,360.36165896827026,
images\S8_M_H_03.png,images\S8_M_H_03_scrambled.png,8,happy,30,male,6,,165,off,1,0.5,0.75,0.5,0.838,3,164,2,1,1,0,0,0,0,6,,,,,,0,140,140,140,,,,,,,,,,,,,,,,,,,,,,,,,,,,,,,,,,,,,,,,,,,,,,,,,,,,,,,,,937.0621201999993,937.5675500999996,937.5675500999996,938.3201974999993,938.3201974999993,938.8227199999992,938.8227199999992,939.6669127999994,939.6669127999994,None,num_6,0.4954141999996864,939.6669127999994,None,happy,0,Happy,940.17785636,None,None,940.17785636,None,,,,,,,,,,,,,,,,,,,,,,,,,,,,,,,,,,,,,,,,,,,,,,,,,,,,,44,001,0,23,500,500,2022_Nov_23_1307,Experiment,2021.1.4,360.36165896827026,
