image_face,image_scram,avatar,emo,emotion,sex,trigeeg,dac,trial_no,NMES,stimtime,baseline,iti,face,scr_face,resp_time,index,count_NMES,count_avatar,count_emotion,dac1,dac2,dac1_output,dac2_output,trigs_out,nmes,practice_trials.thisRepN,practice_trials.thisTrialN,practice_trials.thisN,practice_trials.thisIndex,real_trials.thisRepN,real_trials.thisTrialN,real_trials.thisN,real_trials.thisIndex,trials.thisRepN,trials.thisTrialN,trials.thisN,trials.thisIndex,position,Welcome.started,Welcome.stopped,Welcome_resp.keys,Welcome_resp.rt,text_2.started,text_2.stopped,form_2.index,form_2.itemText,form_2.type,form_2.response,form_2.rt,key_resp_4.keys,key_resp_4.rt,key_resp_4.started,key_resp_4.stopped,instructions.started,instructions.stopped,end_instr.keys,end_instr.rt,instructions_2.started,instructions_2.stopped,end_instr_2.keys,end_instr_2.rt,end_instr_2.started,end_instr_2.stopped,instruct_keypress.started,instruct_keypress.stopped,end_instruct_keypress.keys,end_instruct_keypress.rt,start_practice.started,start_practice.stopped,start_practice_resp.keys,start_practice_resp.rt,prac_baseline.started,prac_baseline.stopped,prac_iti.started,prac_iti.stopped,prac_stimulus.started,prac_stimulus.stopped,prac_scram_stim.started,prac_scram_stim.stopped,prac_stimulus_resp.started,prac_stimulus_resp.stopped,prac_resp.keys,prac_resp.rt,prac_resp.started,prac_resp.stopped,transition_to_real.started,transition_to_real.stopped,end_transition_to_real.keys,end_transition_to_real.rt,fixation_cross.started,fixation_cross.stopped,tr_iti.started,tr_iti.stopped,stimulus.started,stimulus.stopped,scram_stim.started,scram_stim.stopped,response_txt.started,response_txt.stopped,response.keys,response.rt,response.started,response.stopped,participant_Resp,grouping,corAnswer,break_msg.started,break_msg.stopped,end_break.keys,end_break.started,end_break.stopped,end_break.rt,text.started,text.stopped,key_resp_3.keys,key_resp_3.rt,key_resp_3.started,key_resp_3.stopped,fix_cross_comf.started,fix_cross_comf.stopped,stimulation_comf.started,stimulation_comf.stopped,rate_instr.started,rate_instr.stopped,comfort_rating.response,comfort_rating.rt,comfort_rating.started,comfort_rating.stopped,resp_form.keys,resp_form.rt,resp_form.started,resp_form.stopped,survey_instructions.started,survey_instructions.stopped,key_resp_2.keys,key_resp_2.rt,key_resp_2.started,key_resp_2.stopped,form.index,form.itemText,form.type,form.response,form.rt,key_resp.keys,key_resp.rt,key_resp.started,key_resp.stopped,text_3.started,text_3.stopped,rate_smile.response,rate_smile.rt,rate_smile.started,rate_smile.stopped,key_resp_5.keys,key_resp_5.rt,key_resp_5.started,key_resp_5.stopped,end_msg.started,end_msg.stopped,end_resp.keys,end_resp.rt,end_resp.started,end_resp.stopped,participant,session,gender,age,LEFT,RIGHT,date,expName,psychopyVersion,frameRate,
,,,,,,,,,,,,,,,,,,,,,,,,,,,,,,,,,,,,,,H-S,26.715557700000318,None,num_add,2.79342220000035,,,,,,,,,,,,,,,,,,,,,,,,,,,,,,,,,,,,,,,,,,,,,,,,,,,,,,,,,,,,,,,,,,,,,,,,,,,,,,,,,,,,,,,,,,,,,,,,,,,,,,,,,,,,,,,,,,,,,,,,,,45,001,0,24,500,500,2022_Nov_24_1120,Experiment,2021.1.4,360.37074943270096,
,,,,,,,,,,,,,,,,,,,,,,,,,,,,,,,,,,,,,,,,,,,29.51638120000007,31.576842800000122,1,"This scale consistes of a number of words that describe different feelings and emotion. Read each item and then list the number from the scale below each word. Indicate (by clicking) to what extend you feel this way RIGHT NOW, that is, AT THE PRESENT MOMENT.",description,,,,,,,,,,,,,,,,,,,,,,,,,,,,,,,,,,,,,,,,,,,,,,,,,,,,,,,,,,,,,,,,,,,,,,,,,,,,,,,,,,,,,,,,,,,,,,,,,,,,,,,,,,,,,,,,,,,,,45,001,0,24,500,500,2022_Nov_24_1120,Experiment,2021.1.4,360.37074943270096,
,,,,,,,,,,,,,,,,,,,,,,,,,,,,,,,,,,,,,,,,,,,,,2,Interested,rating,4.0,17.243033600000672,,,,,,,,,,,,,,,,,,,,,,,,,,,,,,,,,,,,,,,,,,,,,,,,,,,,,,,,,,,,,,,,,,,,,,,,,,,,,,,,,,,,,,,,,,,,,,,,,,,,,,,,,,,,,,,,,,,45,001,0,24,500,500,2022_Nov_24_1120,Experiment,2021.1.4,360.37074943270096,
,,,,,,,,,,,,,,,,,,,,,,,,,,,,,,,,,,,,,,,,,,,,,3,Distressed,rating,2.0,22.73245660000066,,,,,,,,,,,,,,,,,,,,,,,,,,,,,,,,,,,,,,,,,,,,,,,,,,,,,,,,,,,,,,,,,,,,,,,,,,,,,,,,,,,,,,,,,,,,,,,,,,,,,,,,,,,,,,,,,,,45,001,0,24,500,500,2022_Nov_24_1120,Experiment,2021.1.4,360.37074943270096,
,,,,,,,,,,,,,,,,,,,,,,,,,,,,,,,,,,,,,,,,,,,,,4,Excited,rating,3.0,26.045423800000208,,,,,,,,,,,,,,,,,,,,,,,,,,,,,,,,,,,,,,,,,,,,,,,,,,,,,,,,,,,,,,,,,,,,,,,,,,,,,,,,,,,,,,,,,,,,,,,,,,,,,,,,,,,,,,,,,,,45,001,0,24,500,500,2022_Nov_24_1120,Experiment,2021.1.4,360.37074943270096,
,,,,,,,,,,,,,,,,,,,,,,,,,,,,,,,,,,,,,,,,,,,,,5,Upset,rating,1.0,29.412914900000033,,,,,,,,,,,,,,,,,,,,,,,,,,,,,,,,,,,,,,,,,,,,,,,,,,,,,,,,,,,,,,,,,,,,,,,,,,,,,,,,,,,,,,,,,,,,,,,,,,,,,,,,,,,,,,,,,,,45,001,0,24,500,500,2022_Nov_24_1120,Experiment,2021.1.4,360.37074943270096,
,,,,,,,,,,,,,,,,,,,,,,,,,,,,,,,,,,,,,,,,,,,,,6,Strong,rating,3.0,32.83416289999968,,,,,,,,,,,,,,,,,,,,,,,,,,,,,,,,,,,,,,,,,,,,,,,,,,,,,,,,,,,,,,,,,,,,,,,,,,,,,,,,,,,,,,,,,,,,,,,,,,,,,,,,,,,,,,,,,,,45,001,0,24,500,500,2022_Nov_24_1120,Experiment,2021.1.4,360.37074943270096,
,,,,,,,,,,,,,,,,,,,,,,,,,,,,,,,,,,,,,,,,,,,,,7,Guilty,rating,1.0,10.10483909999948,,,,,,,,,,,,,,,,,,,,,,,,,,,,,,,,,,,,,,,,,,,,,,,,,,,,,,,,,,,,,,,,,,,,,,,,,,,,,,,,,,,,,,,,,,,,,,,,,,,,,,,,,,,,,,,,,,,45,001,0,24,500,500,2022_Nov_24_1120,Experiment,2021.1.4,360.37074943270096,
,,,,,,,,,,,,,,,,,,,,,,,,,,,,,,,,,,,,,,,,,,,,,8,Scared,rating,2.0,17.364126899999974,,,,,,,,,,,,,,,,,,,,,,,,,,,,,,,,,,,,,,,,,,,,,,,,,,,,,,,,,,,,,,,,,,,,,,,,,,,,,,,,,,,,,,,,,,,,,,,,,,,,,,,,,,,,,,,,,,,45,001,0,24,500,500,2022_Nov_24_1120,Experiment,2021.1.4,360.37074943270096,
,,,,,,,,,,,,,,,,,,,,,,,,,,,,,,,,,,,,,,,,,,,,,9,Hostile,rating,1.0,10.0214191999994,,,,,,,,,,,,,,,,,,,,,,,,,,,,,,,,,,,,,,,,,,,,,,,,,,,,,,,,,,,,,,,,,,,,,,,,,,,,,,,,,,,,,,,,,,,,,,,,,,,,,,,,,,,,,,,,,,,45,001,0,24,500,500,2022_Nov_24_1120,Experiment,2021.1.4,360.37074943270096,
,,,,,,,,,,,,,,,,,,,,,,,,,,,,,,,,,,,,,,,,,,,,,10,Enthusiastic,rating,4.0,11.318008899999768,,,,,,,,,,,,,,,,,,,,,,,,,,,,,,,,,,,,,,,,,,,,,,,,,,,,,,,,,,,,,,,,,,,,,,,,,,,,,,,,,,,,,,,,,,,,,,,,,,,,,,,,,,,,,,,,,,,45,001,0,24,500,500,2022_Nov_24_1120,Experiment,2021.1.4,360.37074943270096,
,,,,,,,,,,,,,,,,,,,,,,,,,,,,,,,,,,,,,,,,,,,,,11,Proud,rating,3.0,11.628638999999566,,,,,,,,,,,,,,,,,,,,,,,,,,,,,,,,,,,,,,,,,,,,,,,,,,,,,,,,,,,,,,,,,,,,,,,,,,,,,,,,,,,,,,,,,,,,,,,,,,,,,,,,,,,,,,,,,,,45,001,0,24,500,500,2022_Nov_24_1120,Experiment,2021.1.4,360.37074943270096,
,,,,,,,,,,,,,,,,,,,,,,,,,,,,,,,,,,,,,,,,,,,,,12,Irritable,rating,1.0,9.991627200000039,,,,,,,,,,,,,,,,,,,,,,,,,,,,,,,,,,,,,,,,,,,,,,,,,,,,,,,,,,,,,,,,,,,,,,,,,,,,,,,,,,,,,,,,,,,,,,,,,,,,,,,,,,,,,,,,,,,45,001,0,24,500,500,2022_Nov_24_1120,Experiment,2021.1.4,360.37074943270096,
,,,,,,,,,,,,,,,,,,,,,,,,,,,,,,,,,,,,,,,,,,,,,13,Alert,rating,3.0,12.588858500000242,,,,,,,,,,,,,,,,,,,,,,,,,,,,,,,,,,,,,,,,,,,,,,,,,,,,,,,,,,,,,,,,,,,,,,,,,,,,,,,,,,,,,,,,,,,,,,,,,,,,,,,,,,,,,,,,,,,45,001,0,24,500,500,2022_Nov_24_1120,Experiment,2021.1.4,360.37074943270096,
,,,,,,,,,,,,,,,,,,,,,,,,,,,,,,,,,,,,,,,,,,,,,14,Ashamed,rating,1.0,8.66464139999971,,,,,,,,,,,,,,,,,,,,,,,,,,,,,,,,,,,,,,,,,,,,,,,,,,,,,,,,,,,,,,,,,,,,,,,,,,,,,,,,,,,,,,,,,,,,,,,,,,,,,,,,,,,,,,,,,,,45,001,0,24,500,500,2022_Nov_24_1120,Experiment,2021.1.4,360.37074943270096,
,,,,,,,,,,,,,,,,,,,,,,,,,,,,,,,,,,,,,,,,,,,,,15,Inspired,rating,3.0,8.756601600000067,,,,,,,,,,,,,,,,,,,,,,,,,,,,,,,,,,,,,,,,,,,,,,,,,,,,,,,,,,,,,,,,,,,,,,,,,,,,,,,,,,,,,,,,,,,,,,,,,,,,,,,,,,,,,,,,,,,45,001,0,24,500,500,2022_Nov_24_1120,Experiment,2021.1.4,360.37074943270096,
,,,,,,,,,,,,,,,,,,,,,,,,,,,,,,,,,,,,,,,,,,,,,16,Nervous,rating,3.0,7.459049900000537,,,,,,,,,,,,,,,,,,,,,,,,,,,,,,,,,,,,,,,,,,,,,,,,,,,,,,,,,,,,,,,,,,,,,,,,,,,,,,,,,,,,,,,,,,,,,,,,,,,,,,,,,,,,,,,,,,,45,001,0,24,500,500,2022_Nov_24_1120,Experiment,2021.1.4,360.37074943270096,
,,,,,,,,,,,,,,,,,,,,,,,,,,,,,,,,,,,,,,,,,,,,,17,Determined,rating,4.0,7.297412500000064,,,,,,,,,,,,,,,,,,,,,,,,,,,,,,,,,,,,,,,,,,,,,,,,,,,,,,,,,,,,,,,,,,,,,,,,,,,,,,,,,,,,,,,,,,,,,,,,,,,,,,,,,,,,,,,,,,,45,001,0,24,500,500,2022_Nov_24_1120,Experiment,2021.1.4,360.37074943270096,
,,,,,,,,,,,,,,,,,,,,,,,,,,,,,,,,,,,,,,,,,,,,,18,Attentive,rating,3.0,6.675960100000339,,,,,,,,,,,,,,,,,,,,,,,,,,,,,,,,,,,,,,,,,,,,,,,,,,,,,,,,,,,,,,,,,,,,,,,,,,,,,,,,,,,,,,,,,,,,,,,,,,,,,,,,,,,,,,,,,,,45,001,0,24,500,500,2022_Nov_24_1120,Experiment,2021.1.4,360.37074943270096,
,,,,,,,,,,,,,,,,,,,,,,,,,,,,,,,,,,,,,,,,,,,,,19,Jittery,rating,2.0,7.295880700000453,,,,,,,,,,,,,,,,,,,,,,,,,,,,,,,,,,,,,,,,,,,,,,,,,,,,,,,,,,,,,,,,,,,,,,,,,,,,,,,,,,,,,,,,,,,,,,,,,,,,,,,,,,,,,,,,,,,45,001,0,24,500,500,2022_Nov_24_1120,Experiment,2021.1.4,360.37074943270096,
,,,,,,,,,,,,,,,,,,,,,,,,,,,,,,,,,,,,,,,,,,,,,20,Active,rating,3.0,7.820967699999528,,,,,,,,,,,,,,,,,,,,,,,,,,,,,,,,,,,,,,,,,,,,,,,,,,,,,,,,,,,,,,,,,,,,,,,,,,,,,,,,,,,,,,,,,,,,,,,,,,,,,,,,,,,,,,,,,,,45,001,0,24,500,500,2022_Nov_24_1120,Experiment,2021.1.4,360.37074943270096,
,,,,,,,,,,,,,,,,,,,,,,,,,,,,,,,,,,,,,,,,,,,,,21,Afraid,rating,1.0,8.098623599999883,,,,,,,,,,,,,,,,,,,,,,,,,,,,,,,,,,,,,,,,,,,,,,,,,,,,,,,,,,,,,,,,,,,,,,,,,,,,,,,,,,,,,,,,,,,,,,,,,,,,,,,,,,,,,,,,,,,45,001,0,24,500,500,2022_Nov_24_1120,Experiment,2021.1.4,360.37074943270096,
,,,,,,,,,,,,,,,,,,,,,,,,,,,,,,,,,,,,,,,,,,,,,22,Press the + button to submit your answers,description,,,,,,,,,,,,,,,,,,,,,,,,,,,,,,,,,,,,,,,,,,,,,,,,,,,,,,,,,,,,,,,,,,,,,,,,,,,,,,,,,,,,,,,,,,,,,,,,,,,,,,,,,,,,,,,,,,,,,45,001,0,24,500,500,2022_Nov_24_1120,Experiment,2021.1.4,360.37074943270096,
,,,,,,,,,,,,,,,,,,,,,,,,,,,,,,,,,,,,,,,,,,,,,,,,,,num_add,73.13866210000015,39.53827530000035,None,,,,,,,,,,,,,,,,,,,,,,,,,,,,,,,,,,,,,,,,,,,,,,,,,,,,,,,,,,,,,,,,,,,,,,,,,,,,,,,,,,,,,,,,,,,,,,,,,,,,,,,,,,,,,,,45,001,0,24,500,500,2022_Nov_24_1120,Experiment,2021.1.4,360.37074943270096,
,,,,,,,,,,,,,,,,,,,,,,,,,,,,,,,,,,,,,,,,,,,,,,,,,,,,,,112.70756290000008,None,num_add,24.129600700000083,,,,,,,,,,,,,,,,,,,,,,,,,,,,,,,,,,,,,,,,,,,,,,,,,,,,,,,,,,,,,,,,,,,,,,,,,,,,,,,,,,,,,,,,,,,,,,,,,,,,,,,,,,,45,001,0,24,500,500,2022_Nov_24_1120,Experiment,2021.1.4,360.37074943270096,
,,,,,,,,,,,,,,,,,,,,,,,,,,,,,,,,,,,,,,,,,,,,,,,,,,,,,,,,,,136.8473044000002,None,num_add,14.36588269999993,136.8473044000002,None,,,,,,,,,,,,,,,,,,,,,,,,,,,,,,,,,,,,,,,,,,,,,,,,,,,,,,,,,,,,,,,,,,,,,,,,,,,,,,,,,,,,,,,,,,,,,,,,,,,,,45,001,0,24,500,500,2022_Nov_24_1120,Experiment,2021.1.4,360.37074943270096,
,,,,,,,,,,,,,,,,,,,,,,,,,,,,,,,,,,,,,,,,,,,,,,,,,,,,,,,,,,,,,,,,151.23455709999962,None,num_add,5.634381400000166,,,,,,,,,,,,,,,,,,,,,,,,,,,,,,,,,,,,,,,,,,,,,,,,,,,,,,,,,,,,,,,,,,,,,,,,,,,,,,,,,,,,,,,,,,,,,,,,,45,001,0,24,500,500,2022_Nov_24_1120,Experiment,2021.1.4,360.37074943270096,
,,,,,,,,,,,,,,,,,,,,,,,,,,,,,,,,,,,,,,,,,,,,,,,,,,,,,,,,,,,,,,,,,,,,156.8772753000003,None,space,60.33587290000014,,,,,,,,,,,,,,,,,,,,,,,,,,,,,,,,,,,,,,,,,,,,,,,,,,,,,,,,,,,,,,,,,,,,,,,,,,,,,,,,,,,,,,,,,,,,,45,001,0,24,500,500,2022_Nov_24_1120,Experiment,2021.1.4,360.37074943270096,
images\S22_M_S_02.png,images\S22_M_S_02_scrambled.png,22,Sad,0.2,M,0,0,practice,on,2,0.5,0.75,0.5,0.783,3,,,,,,,,,,,0,0,0,6,,,,,,,,,,,,,,,,,,,,,,,,,,,,,,,,,,,,,,,,,,,217.38647579999997,217.89191159999973,217.89191159999973,218.64721970000028,218.64721970000028,219.15261980000014,219.15261980000014,219.9384828000002,219.9384828000002,None,num_6,1.379008399999293,219.9384828000002,None,,,,,,,,,,,,,,,,,,,,,,,,,,,,,,,,,,,,,,,,,,,,,,,,,,,,,,,,,,,,,,,,,,,,,,,,,,,,,,,45,001,0,24,500,500,2022_Nov_24_1120,Experiment,2021.1.4,360.37074943270096,
images\S21_F_H_01.png,images\S21_F_H_01_scrambled.png,21,Happy,-0.1,F,0,0,practice,off,1,0.5,0.75,0.5,0.853,3,,,,,,,,,,,0,1,1,0,,,,,,,,,,,,,,,,,,,,,,,,,,,,,,,,,,,,,,,,,,,221.41023060000043,221.91285770000013,221.91285770000013,222.6654056999996,222.6654056999996,223.16806859999997,223.16806859999997,224.0233115000001,224.0233115000001,None,num_4,0.6061149999995905,224.0233115000001,None,,,,,,,,,,,,,,,,,,,,,,,,,,,,,,,,,,,,,,,,,,,,,,,,,,,,,,,,,,,,,,,,,,,,,,,,,,,,,,,45,001,0,24,500,500,2022_Nov_24_1120,Experiment,2021.1.4,360.37074943270096,
images\S22_M_H_02.png,images\S22_M_H_02_scrambled.png,22,Happy,-0.2,M,0,0,practice,off,1,0.5,0.75,0.5,0.883,3,,,,,,,,,,,0,2,2,2,,,,,,,,,,,,,,,,,,,,,,,,,,,,,,,,,,,,,,,,,,,224.7147689000003,225.22021399999994,225.22021399999994,225.96994520000044,225.96994520000044,226.47536690000015,226.47536690000015,227.36406290000014,227.36406290000014,None,num_4,0.5374545000004218,227.36406290000014,None,,,,,,,,,,,,,,,,,,,,,,,,,,,,,,,,,,,,,,,,,,,,,,,,,,,,,,,,,,,,,,,,,,,,,,,,,,,,,,,45,001,0,24,500,500,2022_Nov_24_1120,Experiment,2021.1.4,360.37074943270096,
images\S22_M_S_01.png,images\S22_M_S_01_scrambled.png,22,Sad,0.1,M,0,0,practice,on,2,0.5,0.75,0.5,0.867,3,,,,,,,,,,,0,3,3,5,,,,,,,,,,,,,,,,,,,,,,,,,,,,,,,,,,,,,,,,,,,227.99154410000028,228.4942689999998,228.4942689999998,229.24954720000005,229.24954720000005,229.75216290000026,229.75216290000026,230.62415669999973,230.62415669999973,None,num_4,0.7093505000002551,230.62415669999973,None,,,,,,,,,,,,,,,,,,,,,,,,,,,,,,,,,,,,,,,,,,,,,,,,,,,,,,,,,,,,,,,,,,,,,,,,,,,,,,,45,001,0,24,500,500,2022_Nov_24_1120,Experiment,2021.1.4,360.37074943270096,
images\S21_F_H_02.png,images\S21_F_H_02_scrambled.png,21,Happy,-0.2,F,0,0,practice,off,1,0.5,0.75,0.5,0.91,3,,,,,,,,,,,0,4,4,1,,,,,,,,,,,,,,,,,,,,,,,,,,,,,,,,,,,,,,,,,,,231.42105549999997,231.92367560000002,231.92367560000002,232.67908819999957,232.67908819999957,233.18163639999966,233.18163639999966,234.09522629999992,234.09522629999992,None,num_4,0.9344602000001032,234.09522629999992,None,,,,,,,,,,,,,,,,,,,,,,,,,,,,,,,,,,,,,,,,,,,,,,,,,,,,,,,,,,,,,,,,,,,,,,,,,,,,,,,45,001,0,24,500,500,2022_Nov_24_1120,Experiment,2021.1.4,360.37074943270096,
images\S22_M_S_03.png,images\S22_M_S_03_scrambled.png,22,Sad,0.3,M,0,0,practice,on,2,0.5,0.75,0.5,0.794,3,,,,,,,,,,,0,5,5,7,,,,,,,,,,,,,,,,,,,,,,,,,,,,,,,,,,,,,,,,,,,235.1476792000003,235.65034689999993,235.65034689999993,236.40007140000034,236.40007140000034,236.89995960000033,236.89995960000033,237.6997351,237.6997351,None,num_6,0.4819617000002836,237.6997351,None,,,,,,,,,,,,,,,,,,,,,,,,,,,,,,,,,,,,,,,,,,,,,,,,,,,,,,,,,,,,,,,,,,,,,,,,,,,,,,,45,001,0,24,500,500,2022_Nov_24_1120,Experiment,2021.1.4,360.37074943270096,
images\S22_M_S_02.png,images\S22_M_S_02_scrambled.png,22,Sad,0.2,M,0,0,practice,off,1,0.5,0.75,0.5,0.751,3,,,,,,,,,,,0,6,6,3,,,,,,,,,,,,,,,,,,,,,,,,,,,,,,,,,,,,,,,,,,,238.23840740000014,238.73824499999955,238.73824499999955,239.49360109999998,239.49360109999998,239.99632930000007,239.99632930000007,240.75431240000034,240.75431240000034,None,num_6,0.5554002999997465,240.75431240000034,None,,,,,,,,,,,,,,,,,,,,,,,,,,,,,,,,,,,,,,,,,,,,,,,,,,,,,,,,,,,,,,,,,,,,,,,,,,,,,,,45,001,0,24,500,500,2022_Nov_24_1120,Experiment,2021.1.4,360.37074943270096,
images\S22_M_S_03.png,images\S22_M_S_03_scrambled.png,22,Sad,0.3,M,0,0,practice,on,2,0.5,0.75,0.5,0.87,3,,,,,,,,,,,0,7,7,4,,,,,,,,,,,,,,,,,,,,,,,,,,,,,,,,,,,,,,,,,,,241.37077109999973,241.8733900999996,241.8733900999996,242.62598849999995,242.62598849999995,243.1258267000003,243.1258267000003,243.99779729999955,243.99779729999955,None,num_6,0.5756805000000895,243.99779729999955,None,,,,,,,,,,,,,,,,,,,,,,,,,,,,,,,,,,,,,,,,,,,,,,,,,,,,,,,,,,,,,,,,,,,,,,,,,,,,,,,45,001,0,24,500,500,2022_Nov_24_1120,Experiment,2021.1.4,360.37074943270096,
,,,,,,,,,,,,,,,,,,,,,,,,,,,,,,,,,,,,,,,,,,,,,,,,,,,,,,,,,,,,,,,,,,,,,,,,,,,,,,,,,,,,,,244.6058849000001,None,space,36.27922120000039,,,,,,,,,,,,,,,,,,,,,,,,,,,,,,,,,,,,,,,,,,,,,,,,,,,,,,,,,,,,,,,,,,,,,,,,,,,45,001,0,24,500,500,2022_Nov_24_1120,Experiment,2021.1.4,360.37074943270096,
images\S2_M_H_03.png,images\S2_M_H_03_scrambled.png,2,happy,30,male,6,,129,off,1,0.5,0.75,0.5,0.934,3,128,1,1,1,0,0,0,0,6,,,,,,0,0,0,0,,,,,,,,,,,,,,,,,,,,,,,,,,,,,,,,,,,,,,,,,,,,,,,,,,,,,,,,,281.39748529999997,281.9027936000002,281.9027936000002,282.65812019999976,282.65812019999976,283.16082319999987,283.16082319999987,284.0966011999999,284.0966011999999,None,num_4,0.44495890000052896,284.0966011999999,None,happy,1,Happy,284.55751740000005,None,None,284.55751740000005,None,,,,,,,,,,,,,,,,,,,,,,,,,,,,,,,,,,,,,,,,,,,,,,,,,,,,,45,001,0,24,500,500,2022_Nov_24_1120,Experiment,2021.1.4,360.37074943270096,
images\S8_M_S_02.png,images\S8_M_S_02_scrambled.png,8,sad,-20,male,2,,347,on,2,0.5,0.75,0.5,0.884,3,346,1,1,1,2,2,32,128,162,,,,,,0,1,1,1,,,,,,,,,,,,,,,,,,,,,,,,,,,,,,,,,,,,,,,,,,,,,,,,,,,,,,,,,284.6408314,285.14069629999995,285.14069629999995,285.8960803,285.8960803,286.4014546999997,286.4014546999997,287.28726519999964,287.28726519999964,None,num_6,0.47885870000027353,287.28726519999964,None,sad,1,Sad,287.7899487599997,None,None,287.7899487599997,None,,,,,,,,,,,,,,,,,,,,,,,,,,,,,,,,,,,,,,,,,,,,,,,,,,,,,45,001,0,24,500,500,2022_Nov_24_1120,Experiment,2021.1.4,360.37074943270096,
images\S4_M_S_02.png,images\S4_M_S_02_scrambled.png,4,sad,-20,male,2,,263,off,1,0.5,0.75,0.5,0.775,3,262,1,1,2,0,0,0,0,2,,,,,,0,2,2,2,,,,,,,,,,,,,,,,,,,,,,,,,,,,,,,,,,,,,,,,,,,,,,,,,,,,,,,,,287.90371049999976,288.40638990000025,288.40638990000025,289.1561264000002,289.1561264000002,289.6615603,289.6615603,290.44186269999955,290.44186269999955,None,num_6,0.47565620000023046,290.44186269999955,None,sad,1,Sad,290.9361181999998,None,None,290.9361181999998,None,,,,,,,,,,,,,,,,,,,,,,,,,,,,,,,,,,,,,,,,,,,,,,,,,,,,,45,001,0,24,500,500,2022_Nov_24_1120,Experiment,2021.1.4,360.37074943270096,
images\S6_M_S_03.png,images\S6_M_S_03_scrambled.png,6,sad,-30,male,1,,216,on,2,0.5,0.75,0.5,0.934,3,215,1,1,1,2,2,32,128,161,,,,,,0,3,3,3,,,,,,,,,,,,,,,,,,,,,,,,,,,,,,,,,,,,,,,,,,,,,,,,,,,,,,,,,291.02220080000006,291.5220559999998,291.5220559999998,292.27464469999995,292.27464469999995,292.77722340000037,292.77722340000037,293.71025480000026,293.71025480000026,None,num_6,0.5193380999999135,293.71025480000026,None,sad,1,Sad,294.2490150599996,None,None,294.2490150599996,None,,,,,,,,,,,,,,,,,,,,,,,,,,,,,,,,,,,,,,,,,,,,,,,,,,,,,45,001,0,24,500,500,2022_Nov_24_1120,Experiment,2021.1.4,360.37074943270096,
images\S9_F_S_03.png,images\S9_F_S_03_scrambled.png,9,sad,-30,female,1,,594,on,2,0.5,0.75,0.5,0.814,3,593,2,1,2,2,2,32,128,161,,,,,,0,4,4,4,,,,,,,,,,,,,,,,,,,,,,,,,,,,,,,,,,,,,,,,,,,,,,,,,,,,,,,,,294.3572857999998,294.86271659999966,294.86271659999966,295.6152595000003,295.6152595000003,296.1207611,296.1207611,296.9370869000004,296.9370869000004,None,num_6,0.43658570000025065,296.9370869000004,None,sad,1,Sad,297.3869048200002,None,None,297.3869048200002,None,,,,,,,,,,,,,,,,,,,,,,,,,,,,,,,,,,,,,,,,,,,,,,,,,,,,,45,001,0,24,500,500,2022_Nov_24_1120,Experiment,2021.1.4,360.37074943270096,
images\S5_F_H_03.png,images\S5_F_H_03_scrambled.png,5,happy,30,female,6,,267,off,1,0.5,0.75,0.5,0.908,3,266,1,1,1,0,0,0,0,6,,,,,,0,5,5,5,,,,,,,,,,,,,,,,,,,,,,,,,,,,,,,,,,,,,,,,,,,,,,,,,,,,,,,,,297.4729991000004,297.9756232999998,297.9756232999998,298.7309779999996,298.7309779999996,299.2307936999996,299.2307936999996,300.14164679999976,300.14164679999976,None,num_4,0.4002183000002333,300.14164679999976,None,happy,1,Happy,300.55264481999967,None,None,300.55264481999967,None,,,,,,,,,,,,,,,,,,,,,,,,,,,,,,,,,,,,,,,,,,,,,,,,,,,,,45,001,0,24,500,500,2022_Nov_24_1120,Experiment,2021.1.4,360.37074943270096,
images\S3_F_S_01.png,images\S3_F_S_01_scrambled.png,3,sad,-10,female,3,,556,on,2,0.5,0.75,0.5,0.909,3,555,1,1,1,2,2,32,128,163,,,,,,0,6,6,6,,,,,,,,,,,,,,,,,,,,,,,,,,,,,,,,,,,,,,,,,,,,,,,,,,,,,,,,,300.6664678999996,301.17188329999954,301.17188329999954,301.92442800000026,301.92442800000026,302.4299536999997,302.4299536999997,303.3406960000002,303.3406960000002,None,num_6,0.3929528999997274,303.3406960000002,None,sad,1,Sad,303.7433280200001,None,None,303.7433280200001,None,,,,,,,,,,,,,,,,,,,,,,,,,,,,,,,,,,,,,,,,,,,,,,,,,,,,,45,001,0,24,500,500,2022_Nov_24_1120,Experiment,2021.1.4,360.37074943270096,
images\blank.jpg,images\blank.jpg,none,none,none,none,0,,636,on,2,0.5,0.75,0.5,0.804,0,635,2,1,1,3,3,48,192,240,,,,,,0,7,7,7,,,,,,,,,,,,,,,,,,,,,,,,,,,,,,,,,,,,,,,,,,,,,,,,,,,,,,,,,303.86874609999995,304.37091409999994,304.37091409999994,305.12623710000025,305.12623710000025,305.6288526999997,305.6288526999997,306.4341290000002,306.4341290000002,306.4341290000002,None,,306.4341290000002,None,miss,1,,309.43883336000033,None,None,309.43883336000033,None,,,,,,,,,,,,,,,,,,,,,,,,,,,,,,,,,,,,,,,,,,,,,,,,,,,,,45,001,0,24,500,500,2022_Nov_24_1120,Experiment,2021.1.4,360.37074943270096,
images\blank.jpg,images\blank.jpg,none,none,none,none,0,,616,on,2,0.5,0.75,0.5,0.871,0,615,3,2,2,3,3,48,192,240,,,,,,0,8,8,8,,,,,,,,,,,,,,,,,,,,,,,,,,,,,,,,,,,,,,,,,,,,,,,,,,,,,,,,,309.46932600000036,309.96917790000043,309.96917790000043,310.7245278999999,310.7245278999999,311.2299237999996,311.2299237999996,312.1018918999998,312.1018918999998,312.1018918999998,None,,312.1018918999998,309.46932600000036,miss,1,,315.1065258599996,None,None,315.1065258599996,None,,,,,,,,,,,,,,,,,,,,,,,,,,,,,,,,,,,,,,,,,,,,,,,,,,,,,45,001,0,24,500,500,2022_Nov_24_1120,Experiment,2021.1.4,360.37074943270096,
images\S8_M_H_01.png,images\S8_M_H_01_scrambled.png,8,happy,10,male,4,,223,on,2,0.5,0.75,0.5,0.864,3,222,4,1,1,2,2,32,128,164,,,,,,0,9,9,9,,,,,,,,,,,,,,,,,,,,,,,,,,,,,,,,,,,,,,,,,,,,,,,,,,,,,,,,,315.2648399999998,315.7674407000004,315.7674407000004,316.51994170000035,316.51994170000035,317.0226028999996,317.0226028999996,317.8918456000001,317.8918456000001,None,num_4,0.42591619999984687,317.8918456000001,315.2648399999998,happy,1,Happy,318.3388915799998,None,None,318.3388915799998,None,,,,,,,,,,,,,,,,,,,,,,,,,,,,,,,,,,,,,,,,,,,,,,,,,,,,,45,001,0,24,500,500,2022_Nov_24_1120,Experiment,2021.1.4,360.37074943270096,
images\S10_M_S_01.png,images\S10_M_S_01_scrambled.png,10,sad,-10,male,3,,478,on,2,0.5,0.75,0.5,0.925,3,477,5,1,1,2,2,32,128,163,,,,,,0,10,10,10,,,,,,,,,,,,,,,,,,,,,,,,,,,,,,,,,,,,,,,,,,,,,,,,,,,,,,,,,318.4498864999996,318.95251970000027,318.95251970000027,319.7051174999997,319.7051174999997,320.20774299999994,320.20774299999994,321.1379909999996,321.1379909999996,None,num_4,0.42817159999958676,321.1379909999996,None,happy,1,Sad,321.5740338600002,None,None,321.5740338600002,None,,,,,,,,,,,,,,,,,,,,,,,,,,,,,,,,,,,,,,,,,,,,,,,,,,,,,45,001,0,24,500,500,2022_Nov_24_1120,Experiment,2021.1.4,360.37074943270096,
images\S1_F_S_03.png,images\S1_F_S_03_scrambled.png,1,sad,-30,female,1,,366,off,1,0.5,0.75,0.5,0.802,3,365,1,1,1,0,0,0,0,1,,,,,,0,11,11,11,,,,,,,,,,,,,,,,,,,,,,,,,,,,,,,,,,,,,,,,,,,,,,,,,,,,,,,,,321.68778269999984,322.1932201999998,322.1932201999998,322.9485317999997,322.9485317999997,323.45127609999963,323.45127609999963,324.25920510000014,324.25920510000014,None,num_6,0.4346851999998762,324.25920510000014,None,sad,1,Sad,324.7229705999998,None,None,324.7229705999998,None,,,,,,,,,,,,,,,,,,,,,,,,,,,,,,,,,,,,,,,,,,,,,,,,,,,,,45,001,0,24,500,500,2022_Nov_24_1120,Experiment,2021.1.4,360.37074943270096,
images\S6_M_H_02.png,images\S6_M_H_02_scrambled.png,6,happy,20,male,5,,92,on,2,0.5,0.75,0.5,0.808,3,91,1,1,1,2,2,32,128,165,,,,,,0,12,12,12,,,,,,,,,,,,,,,,,,,,,,,,,,,,,,,,,,,,,,,,,,,,,,,,,,,,,,,,,324.81183059999967,325.3173192000004,325.3173192000004,326.07260640000004,326.07260640000004,326.5724030000001,326.5724030000001,327.3832961999997,327.3832961999997,None,num_4,0.3983000999996875,327.3832961999997,None,happy,1,Happy,327.8136408999999,None,None,327.8136408999999,None,,,,,,,,,,,,,,,,,,,,,,,,,,,,,,,,,,,,,,,,,,,,,,,,,,,,,45,001,0,24,500,500,2022_Nov_24_1120,Experiment,2021.1.4,360.37074943270096,
images\S4_M_H_02.png,images\S4_M_H_02_scrambled.png,4,happy,20,male,5,,440,on,2,0.5,0.75,0.5,0.851,3,439,2,1,2,2,2,32,128,165,,,,,,0,13,13,13,,,,,,,,,,,,,,,,,,,,,,,,,,,,,,,,,,,,,,,,,,,,,,,,,,,,,,,,,327.92476739999984,328.4273909000003,328.4273909000003,329.17987149999954,329.17987149999954,329.6826080000001,329.6826080000001,330.5378490000003,330.5378490000003,None,num_4,0.4281887999995888,330.5378490000003,None,happy,1,Happy,330.98492558000015,None,None,330.98492558000015,None,,,,,,,,,,,,,,,,,,,,,,,,,,,,,,,,,,,,,,,,,,,,,,,,,,,,,45,001,0,24,500,500,2022_Nov_24_1120,Experiment,2021.1.4,360.37074943270096,
images\S8_M_S_02.png,images\S8_M_S_02_scrambled.png,8,sad,-20,male,2,,527,off,1,0.5,0.75,0.5,0.836,3,526,1,1,1,0,0,0,0,2,,,,,,0,14,14,14,,,,,,,,,,,,,,,,,,,,,,,,,,,,,,,,,,,,,,,,,,,,,,,,,,,,,,,,,331.0321375000003,331.5347585999998,331.5347585999998,332.28739399999995,332.28739399999995,332.7899858999999,332.7899858999999,333.62855839999975,333.62855839999975,None,num_6,0.4650666999996247,333.62855839999975,None,sad,1,Sad,334.10619471999945,None,None,334.10619471999945,None,,,,,,,,,,,,,,,,,,,,,,,,,,,,,,,,,,,,,,,,,,,,,,,,,,,,,45,001,0,24,500,500,2022_Nov_24_1120,Experiment,2021.1.4,360.37074943270096,
images\S9_F_H_01.png,images\S9_F_H_01_scrambled.png,9,happy,10,female,4,,349,on,2,0.5,0.75,0.5,0.836,3,348,1,1,1,2,2,32,128,164,,,,,,0,15,15,15,,,,,,,,,,,,,,,,,,,,,,,,,,,,,,,,,,,,,,,,,,,,,,,,,,,,,,,,,334.1949990000003,334.69767349999984,334.69767349999984,335.45023279999987,335.45023279999987,335.95289109999976,335.95289109999976,336.79161810000005,336.79161810000005,None,num_4,0.31002079999962007,336.79161810000005,None,happy,1,Happy,337.11640382000024,None,None,337.11640382000024,None,,,,,,,,,,,,,,,,,,,,,,,,,,,,,,,,,,,,,,,,,,,,,,,,,,,,,45,001,0,24,500,500,2022_Nov_24_1120,Experiment,2021.1.4,360.37074943270096,
images\S3_F_S_03.png,images\S3_F_S_03_scrambled.png,3,sad,-30,female,1,,378,off,1,0.5,0.75,0.5,0.876,3,377,1,1,1,0,0,0,0,1,,,,,,0,16,16,16,,,,,,,,,,,,,,,,,,,,,,,,,,,,,,,,,,,,,,,,,,,,,,,,,,,,,,,,,337.2024713999999,337.7079112000001,337.7079112000001,338.46045309999954,338.46045309999954,338.96030249999967,338.96030249999967,339.8405732000001,339.8405732000001,None,num_6,0.3649156999999832,339.8405732000001,None,sad,1,Sad,340.2209855199997,None,None,340.2209855199997,None,,,,,,,,,,,,,,,,,,,,,,,,,,,,,,,,,,,,,,,,,,,,,,,,,,,,,45,001,0,24,500,500,2022_Nov_24_1120,Experiment,2021.1.4,360.37074943270096,
images\S1_F_S_02.png,images\S1_F_S_02_scrambled.png,1,sad,-20,female,2,,305,on,2,0.5,0.75,0.5,0.855,3,304,1,1,1,2,2,32,128,162,,,,,,0,17,17,17,,,,,,,,,,,,,,,,,,,,,,,,,,,,,,,,,,,,,,,,,,,,,,,,,,,,,,,,,340.3070826000003,340.8097197999996,340.8097197999996,341.56503729999986,341.56503729999986,342.0676516000003,342.0676516000003,342.92854480000005,342.92854480000005,None,num_4,0.3011483000000226,342.92854480000005,None,happy,1,Sad,343.23950275999994,None,None,343.23950275999994,None,,,,,,,,,,,,,,,,,,,,,,,,,,,,,,,,,,,,,,,,,,,,,,,,,,,,,45,001,0,24,500,500,2022_Nov_24_1120,Experiment,2021.1.4,360.37074943270096,
images\S1_F_S_03.png,images\S1_F_S_03_scrambled.png,1,sad,-30,female,1,,126,off,1,0.5,0.75,0.5,0.766,3,125,1,2,1,0,0,0,0,1,,,,,,0,18,18,18,,,,,,,,,,,,,,,,,,,,,,,,,,,,,,,,,,,,,,,,,,,,,,,,,,,,,,,,,343.28671099999974,343.7893604000001,343.7893604000001,344.5391032999996,344.5391032999996,345.0417693999998,345.0417693999998,345.81095319999986,345.81095319999986,None,num_4,0.5072839000004024,345.81095319999986,None,happy,1,Sad,346.32475915999964,None,None,346.32475915999964,None,,,,,,,,,,,,,,,,,,,,,,,,,,,,,,,,,,,,,,,,,,,,,,,,,,,,,45,001,0,24,500,500,2022_Nov_24_1120,Experiment,2021.1.4,360.37074943270096,
images\S4_M_S_01.png,images\S4_M_S_01_scrambled.png,4,sad,-10,male,3,,382,off,1,0.5,0.75,0.5,0.809,3,381,2,1,1,0,0,0,0,3,,,,,,0,19,19,19,,,,,,,,,,,,,,,,,,,,,,,,,,,,,,,,,,,,,,,,,,,,,,,,,,,,,,,,,346.4329667000002,346.9355853999996,346.9355853999996,347.68823059999977,347.68823059999977,348.1879988999999,348.1879988999999,348.998885,348.998885,None,num_6,0.36724640000011277,348.998885,None,sad,1,Sad,349.38773468000016,None,None,349.38773468000016,None,,,,,,,,,,,,,,,,,,,,,,,,,,,,,,,,,,,,,,,,,,,,,,,,,,,,,45,001,0,24,500,500,2022_Nov_24_1120,Experiment,2021.1.4,360.37074943270096,
images\S8_M_H_01.png,images\S8_M_H_01_scrambled.png,8,happy,10,male,4,,463,on,2,0.5,0.75,0.5,0.805,3,462,1,1,1,2,2,32,128,164,,,,,,0,20,20,20,,,,,,,,,,,,,,,,,,,,,,,,,,,,,,,,,,,,,,,,,,,,,,,,,,,,,,,,,349.4514833000003,349.954111,349.954111,350.7066928000004,350.7066928000004,351.20930489999955,351.20930489999955,352.0173987999997,352.0173987999997,None,num_4,0.3323609999997643,352.0173987999997,None,happy,1,Happy,352.3784260399994,None,None,352.3784260399994,None,,,,,,,,,,,,,,,,,,,,,,,,,,,,,,,,,,,,,,,,,,,,,,,,,,,,,45,001,0,24,500,500,2022_Nov_24_1120,Experiment,2021.1.4,360.37074943270096,
images\S4_M_H_02.png,images\S4_M_H_02_scrambled.png,4,happy,20,male,5,,260,off,1,0.5,0.75,0.5,0.914,3,259,1,1,1,0,0,0,0,5,,,,,,0,21,21,21,,,,,,,,,,,,,,,,,,,,,,,,,,,,,,,,,,,,,,,,,,,,,,,,,,,,,,,,,352.43112629999996,352.93096760000026,352.93096760000026,353.68357600000036,353.68357600000036,354.18895859999975,354.18895859999975,355.1081862000001,355.1081862000001,None,num_4,0.3454756000000998,355.1081862000001,None,happy,1,Happy,355.4635455200003,None,None,355.4635455200003,None,,,,,,,,,,,,,,,,,,,,,,,,,,,,,,,,,,,,,,,,,,,,,,,,,,,,,45,001,0,24,500,500,2022_Nov_24_1120,Experiment,2021.1.4,360.37074943270096,
images\S5_F_H_02.png,images\S5_F_H_02_scrambled.png,5,happy,20,female,5,,206,on,2,0.5,0.75,0.5,0.786,3,205,1,1,2,2,2,32,128,165,,,,,,0,22,22,22,,,,,,,,,,,,,,,,,,,,,,,,,,,,,,,,,,,,,,,,,,,,,,,,,,,,,,,,,355.54406610000024,356.04668279999987,356.04668279999987,356.7964744000001,356.7964744000001,357.29911100000027,357.29911100000027,358.0878487,358.0878487,None,num_4,0.4297008999992613,358.0878487,None,happy,1,Happy,358.54592261999943,None,None,358.54592261999943,None,,,,,,,,,,,,,,,,,,,,,,,,,,,,,,,,,,,,,,,,,,,,,,,,,,,,,45,001,0,24,500,500,2022_Nov_24_1120,Experiment,2021.1.4,360.37074943270096,
images\blank.jpg,images\blank.jpg,none,none,none,none,0,,611,on,2,0.5,0.75,0.5,0.847,0,610,2,1,1,3,3,48,192,240,,,,,,0,23,23,23,,,,,,,,,,,,,,,,,,,,,,,,,,,,,,,,,,,,,,,,,,,,,,,,,,,,,,,,,358.63499150000007,359.1374015000001,359.1374015000001,359.8899594000004,359.8899594000004,360.3926223999997,360.3926223999997,361.24239430000034,361.24239430000034,361.24239430000034,None,,361.24239430000034,None,miss,1,,364.24702555999954,None,None,364.24702555999954,None,,,,,,,,,,,,,,,,,,,,,,,,,,,,,,,,,,,,,,,,,,,,,,,,,,,,,45,001,0,24,500,500,2022_Nov_24_1120,Experiment,2021.1.4,360.37074943270096,
images\S6_M_H_03.png,images\S6_M_H_03_scrambled.png,6,happy,30,male,6,,573,on,2,0.5,0.75,0.5,0.868,3,572,3,1,1,2,2,32,128,166,,,,,,0,24,24,24,,,,,,,,,,,,,,,,,,,,,,,,,,,,,,,,,,,,,,,,,,,,,,,,,,,,,,,,,364.41384540000035,364.9189815999998,364.9189815999998,365.6715979999999,365.6715979999999,366.17700630000036,366.17700630000036,367.0488796999998,367.0488796999998,None,num_4,0.39664749999974447,367.0488796999998,364.41384540000035,happy,1,Happy,367.4570810200001,None,None,367.4570810200001,None,,,,,,,,,,,,,,,,,,,,,,,,,,,,,,,,,,,,,,,,,,,,,,,,,,,,,45,001,0,24,500,500,2022_Nov_24_1120,Experiment,2021.1.4,360.37074943270096,
images\S3_F_S_03.png,images\S3_F_S_03_scrambled.png,3,sad,-30,female,1,,498,off,1,0.5,0.75,0.5,0.798,3,497,1,1,1,0,0,0,0,1,,,,,,0,25,25,25,,,,,,,,,,,,,,,,,,,,,,,,,,,,,,,,,,,,,,,,,,,,,,,,,,,,,,,,,367.5042765999997,368.0041253999998,368.0041253999998,368.75672849999955,368.75672849999955,369.26218400000016,369.26218400000016,370.06743089999964,370.06743089999964,None,num_6,0.4261135999995531,370.06743089999964,None,sad,1,Sad,370.5088857199997,None,None,370.5088857199997,None,,,,,,,,,,,,,,,,,,,,,,,,,,,,,,,,,,,,,,,,,,,,,,,,,,,,,45,001,0,24,500,500,2022_Nov_24_1120,Experiment,2021.1.4,360.37074943270096,
images\S1_F_S_01.png,images\S1_F_S_01_scrambled.png,1,sad,-10,female,3,,64,on,2,0.5,0.75,0.5,0.879,3,63,1,1,1,2,2,32,128,163,,,,,,0,26,26,26,,,,,,,,,,,,,,,,,,,,,,,,,,,,,,,,,,,,,,,,,,,,,,,,,,,,,,,,,370.5922225000004,371.0948492999996,371.0948492999996,371.8474447999997,371.8474447999997,372.3472290999998,372.3472290999998,373.2331141000004,373.2331141000004,None,num_4,0.4684586000003037,373.2331141000004,None,happy,1,Sad,373.71069965999993,None,None,373.71069965999993,None,,,,,,,,,,,,,,,,,,,,,,,,,,,,,,,,,,,,,,,,,,,,,,,,,,,,,45,001,0,24,500,500,2022_Nov_24_1120,Experiment,2021.1.4,360.37074943270096,
images\S10_M_H_03.png,images\S10_M_H_03_scrambled.png,10,happy,30,male,6,,597,on,2,0.5,0.75,0.5,0.855,3,596,2,1,1,2,2,32,128,166,,,,,,0,27,27,27,,,,,,,,,,,,,,,,,,,,,,,,,,,,,,,,,,,,,,,,,,,,,,,,,,,,,,,,,373.79401810000036,374.29676029999973,374.29676029999973,375.0520471,375.0520471,375.55741469999975,375.55741469999975,376.4182423000002,376.4182423000002,None,num_4,0.37128219999976864,376.4182423000002,None,happy,1,Happy,376.8042002199998,None,None,376.8042002199998,None,,,,,,,,,,,,,,,,,,,,,,,,,,,,,,,,,,,,,,,,,,,,,,,,,,,,,45,001,0,24,500,500,2022_Nov_24_1120,Experiment,2021.1.4,360.37074943270096,
images\S2_M_S_02.png,images\S2_M_S_02_scrambled.png,2,sad,-20,male,2,,251,off,1,0.5,0.75,0.5,0.839,3,250,1,1,1,0,0,0,0,2,,,,,,0,28,28,28,,,,,,,,,,,,,,,,,,,,,,,,,,,,,,,,,,,,,,,,,,,,,,,,,,,,,,,,,376.8930657000001,377.39849609999965,377.39849609999965,378.15381549999984,378.15381549999984,378.6565429000002,378.6565429000002,379.49785189999966,379.49785189999966,None,num_6,0.4756612999999561,379.49785189999966,None,sad,1,Sad,380.0004298399995,None,None,380.0004298399995,None,,,,,,,,,,,,,,,,,,,,,,,,,,,,,,,,,,,,,,,,,,,,,,,,,,,,,45,001,0,24,500,500,2022_Nov_24_1120,Experiment,2021.1.4,360.37074943270096,
images\S3_F_S_03.png,images\S3_F_S_03_scrambled.png,3,sad,-30,female,1,,198,on,2,0.5,0.75,0.5,0.932,3,197,1,1,1,2,2,32,128,161,,,,,,0,29,29,29,,,,,,,,,,,,,,,,,,,,,,,,,,,,,,,,,,,,,,,,,,,,,,,,,,,,,,,,,380.0532030000004,380.55305150000004,380.55305150000004,381.3083995999996,381.3083995999996,381.8110367999998,381.8110367999998,382.74695340000017,382.74695340000017,None,num_6,0.35510059999978694,382.74695340000017,None,sad,1,Sad,383.1135118199998,None,None,383.1135118199998,None,,,,,,,,,,,,,,,,,,,,,,,,,,,,,,,,,,,,,,,,,,,,,,,,,,,,,45,001,0,24,500,500,2022_Nov_24_1120,Experiment,2021.1.4,360.37074943270096,
images\S7_F_H_02.png,images\S7_F_H_02_scrambled.png,7,happy,20,female,5,,218,on,2,0.5,0.75,0.5,0.947,3,217,2,1,1,2,2,32,128,165,,,,,,0,30,30,30,,,,,,,,,,,,,,,,,,,,,,,,,,,,,,,,,,,,,,,,,,,,,,,,,,,,,,,,,383.22444910000013,383.7298655000004,383.7298655000004,384.4824552,384.4824552,384.9878540999998,384.9878540999998,385.93756680000024,385.93756680000024,None,num_4,0.3165011000000959,385.93756680000024,None,happy,1,Happy,386.28196213999996,None,None,386.28196213999996,None,,,,,,,,,,,,,,,,,,,,,,,,,,,,,,,,,,,,,,,,,,,,,,,,,,,,,45,001,0,24,500,500,2022_Nov_24_1120,Experiment,2021.1.4,360.37074943270096,
images\blank.jpg,images\blank.jpg,none,none,none,none,0,,646,on,2,0.5,0.75,0.5,0.802,0,645,3,1,1,3,3,48,192,240,,,,,,0,31,31,31,,,,,,,,,,,,,,,,,,,,,,,,,,,,,,,,,,,,,,,,,,,,,,,,,,,,,,,,,386.3709249000003,386.8733295000002,386.8733295000002,387.62868179999987,387.62868179999987,388.13141579999956,388.13141579999956,388.9338058000003,388.9338058000003,388.9338058000003,None,,388.9338058000003,None,miss,1,,391.93574295999986,None,None,391.93574295999986,None,,,,,,,,,,,,,,,,,,,,,,,,,,,,,,,,,,,,,,,,,,,,,,,,,,,,,45,001,0,24,500,500,2022_Nov_24_1120,Experiment,2021.1.4,360.37074943270096,
images\blank.jpg,images\blank.jpg,none,none,none,none,0,,613,on,2,0.5,0.75,0.5,0.916,0,612,4,2,2,3,3,48,192,240,,,,,,0,32,32,32,,,,,,,,,,,,,,,,,,,,,,,,,,,,,,,,,,,,,,,,,,,,,,,,,,,,,,,,,391.96625870000025,392.4716679000003,392.4716679000003,393.2213879000001,393.2213879000001,393.72682259999965,393.72682259999965,394.6431634999999,394.6431634999999,394.6431634999999,None,,394.6431634999999,391.96625870000025,miss,1,,397.6478771599999,None,None,397.6478771599999,None,,,,,,,,,,,,,,,,,,,,,,,,,,,,,,,,,,,,,,,,,,,,,,,,,,,,,45,001,0,24,500,500,2022_Nov_24_1120,Experiment,2021.1.4,360.37074943270096,
images\S7_F_H_01.png,images\S7_F_H_01_scrambled.png,7,happy,10,female,4,,37,off,1,0.5,0.75,0.5,0.851,3,36,1,1,1,0,0,0,0,4,,,,,,0,33,33,33,,,,,,,,,,,,,,,,,,,,,,,,,,,,,,,,,,,,,,,,,,,,,,,,,,,,,,,,,397.81470549999995,398.3170419999997,398.3170419999997,399.0723985000004,399.0723985000004,399.5722053999998,399.5722053999998,400.4275322000003,400.4275322000003,None,num_4,0.42603200000030483,400.4275322000003,397.81470549999995,happy,1,Happy,400.86899651999994,None,None,400.86899651999994,None,,,,,,,,,,,,,,,,,,,,,,,,,,,,,,,,,,,,,,,,,,,,,,,,,,,,,45,001,0,24,500,500,2022_Nov_24_1120,Experiment,2021.1.4,360.37074943270096,
images\S7_F_S_03.png,images\S7_F_S_03_scrambled.png,7,sad,-30,female,1,,282,off,1,0.5,0.75,0.5,0.852,3,281,2,2,1,0,0,0,0,1,,,,,,0,34,34,34,,,,,,,,,,,,,,,,,,,,,,,,,,,,,,,,,,,,,,,,,,,,,,,,,,,,,,,,,400.9773341,401.48276329999953,401.48276329999953,402.2325019,402.2325019,402.73793680000017,402.73793680000017,403.59042769999996,403.59042769999996,None,num_6,0.36685269999998127,403.59042769999996,None,sad,1,Sad,403.9681040200001,None,None,403.9681040200001,None,,,,,,,,,,,,,,,,,,,,,,,,,,,,,,,,,,,,,,,,,,,,,,,,,,,,,45,001,0,24,500,500,2022_Nov_24_1120,Experiment,2021.1.4,360.37074943270096,
images\S8_M_H_02.png,images\S8_M_H_02_scrambled.png,8,happy,20,male,5,,224,on,2,0.5,0.75,0.5,0.765,3,223,1,1,1,2,2,32,128,165,,,,,,0,35,35,35,,,,,,,,,,,,,,,,,,,,,,,,,,,,,,,,,,,,,,,,,,,,,,,,,,,,,,,,,404.0763843000004,404.57623069999954,404.57623069999954,405.33160860000044,405.33160860000044,405.83411890000025,405.83411890000025,406.60625999999957,406.60625999999957,None,num_4,0.439456600000085,406.60625999999957,None,happy,1,Happy,407.0587998199997,None,None,407.0587998199997,None,,,,,,,,,,,,,,,,,,,,,,,,,,,,,,,,,,,,,,,,,,,,,,,,,,,,,45,001,0,24,500,500,2022_Nov_24_1120,Experiment,2021.1.4,360.37074943270096,
images\S4_M_H_01.png,images\S4_M_H_01_scrambled.png,4,happy,10,male,4,,439,on,2,0.5,0.75,0.5,0.913,3,438,2,1,1,2,2,32,128,164,,,,,,0,36,36,36,,,,,,,,,,,,,,,,,,,,,,,,,,,,,,,,,,,,,,,,,,,,,,,,,,,,,,,,,407.1421108000004,407.6448512999996,407.6448512999996,408.39728490000016,408.39728490000016,408.89713109999957,408.89713109999957,409.8107563000003,409.8107563000003,None,num_4,0.426669800000127,409.8107563000003,None,happy,1,Happy,410.25225459999956,None,None,410.25225459999956,None,,,,,,,,,,,,,,,,,,,,,,,,,,,,,,,,,,,,,,,,,,,,,,,,,,,,,45,001,0,24,500,500,2022_Nov_24_1120,Experiment,2021.1.4,360.37074943270096,
images\S9_F_S_01.png,images\S9_F_S_01_scrambled.png,9,sad,-10,female,3,,52,off,1,0.5,0.75,0.5,0.827,3,51,1,1,1,0,0,0,0,3,,,,,,0,37,37,37,,,,,,,,,,,,,,,,,,,,,,,,,,,,,,,,,,,,,,,,,,,,,,,,,,,,,,,,,410.3633497000001,410.8659859999998,410.8659859999998,411.62137840000014,411.62137840000014,412.12675109999964,412.12675109999964,412.9570282000004,412.9570282000004,None,num_4,0.5686023999996905,412.9570282000004,None,happy,1,Sad,413.5345879600003,None,None,413.5345879600003,None,,,,,,,,,,,,,,,,,,,,,,,,,,,,,,,,,,,,,,,,,,,,,,,,,,,,,45,001,0,24,500,500,2022_Nov_24_1120,Experiment,2021.1.4,360.37074943270096,
images\S5_F_S_01.png,images\S5_F_S_01_scrambled.png,5,sad,-10,female,3,,28,off,1,0.5,0.75,0.5,0.861,3,27,2,1,2,0,0,0,0,3,,,,,,0,38,38,38,,,,,,,,,,,,,,,,,,,,,,,,,,,,,,,,,,,,,,,,,,,,,,,,,,,,,,,,,413.6206764999997,414.12334069999997,414.12334069999997,414.8758472999998,414.8758472999998,415.3757311999998,415.3757311999998,416.24219470000025,416.24219470000025,None,num_4,0.7157331999997041,416.24219470000025,None,happy,1,Sad,416.96693194000005,None,None,416.96693194000005,None,,,,,,,,,,,,,,,,,,,,,,,,,,,,,,,,,,,,,,,,,,,,,,,,,,,,,45,001,0,24,500,500,2022_Nov_24_1120,Experiment,2021.1.4,360.37074943270096,
images\S8_M_H_03.png,images\S8_M_H_03_scrambled.png,8,happy,30,male,6,,165,off,1,0.5,0.75,0.5,0.838,3,164,3,1,1,0,0,0,0,6,,,,,,0,39,39,39,,,,,,,,,,,,,,,,,,,,,,,,,,,,,,,,,,,,,,,,,,,,,,,,,,,,,,,,,417.0501813000001,417.55282999999963,417.55282999999963,418.3025799999996,418.3025799999996,418.8080120000004,418.8080120000004,419.6522955999999,419.6522955999999,None,num_4,0.43356479999965813,419.6522955999999,None,happy,1,Happy,420.09926501999945,None,None,420.09926501999945,None,,,,,,,,,,,,,,,,,,,,,,,,,,,,,,,,,,,,,,,,,,,,,,,,,,,,,45,001,0,24,500,500,2022_Nov_24_1120,Experiment,2021.1.4,360.37074943270096,
images\S7_F_H_01.png,images\S7_F_H_01_scrambled.png,7,happy,10,female,4,,397,off,1,0.5,0.75,0.5,0.769,3,396,4,1,1,0,0,0,0,4,,,,,,0,40,40,40,,,,,,,,,,,,,,,,,,,,,,,,,,,,,,,,,,,,,,,,,,,,,,,,,,,,,,,,,420.14645240000027,420.64632789999996,420.64632789999996,421.4016770999997,421.4016770999997,421.9070578999999,421.9070578999999,422.67622779999965,422.67622779999965,None,num_4,0.4814514000008785,422.67622779999965,None,happy,1,Happy,423.1677600199999,None,None,423.1677600199999,None,,,,,,,,,,,,,,,,,,,,,,,,,,,,,,,,,,,,,,,,,,,,,,,,,,,,,45,001,0,24,500,500,2022_Nov_24_1120,Experiment,2021.1.4,360.37074943270096,
images\S6_M_S_01.png,images\S6_M_S_01_scrambled.png,6,sad,-10,male,3,,34,off,1,0.5,0.75,0.5,0.812,3,33,5,1,1,0,0,0,0,3,,,,,,0,41,41,41,,,,,,,,,,,,,,,,,,,,,,,,,,,,,,,,,,,,,,,,,,,,,,,,,,,,,,,,,423.2510537999997,423.7565109999996,423.7565109999996,424.51183109999965,424.51183109999965,425.01439839999966,425.01439839999966,425.8336038999996,425.8336038999996,None,num_6,0.3643865000003643,425.8336038999996,None,sad,1,Sad,426.2252543399996,None,None,426.2252543399996,None,,,,,,,,,,,,,,,,,,,,,,,,,,,,,,,,,,,,,,,,,,,,,,,,,,,,,45,001,0,24,500,500,2022_Nov_24_1120,Experiment,2021.1.4,360.37074943270096,
images\S8_M_H_03.png,images\S8_M_H_03_scrambled.png,8,happy,30,male,6,,465,on,2,0.5,0.75,0.5,0.876,3,464,1,1,1,2,2,32,128,166,,,,,,0,42,42,42,,,,,,,,,,,,,,,,,,,,,,,,,,,,,,,,,,,,,,,,,,,,,,,,,,,,,,,,,426.2779038999997,426.78332450000016,426.78332450000016,427.5359781999996,427.5359781999996,428.0357233000004,428.0357233000004,428.9160603,428.9160603,None,num_4,0.36941179999939777,428.9160603,None,happy,1,Happy,429.29919391999994,None,None,429.29919391999994,None,,,,,,,,,,,,,,,,,,,,,,,,,,,,,,,,,,,,,,,,,,,,,,,,,,,,,45,001,0,24,500,500,2022_Nov_24_1120,Experiment,2021.1.4,360.37074943270096,
images\S10_M_H_03.png,images\S10_M_H_03_scrambled.png,10,happy,30,male,6,,297,off,1,0.5,0.75,0.5,0.753,3,296,1,1,2,0,0,0,0,6,,,,,,0,43,43,43,,,,,,,,,,,,,,,,,,,,,,,,,,,,,,,,,,,,,,,,,,,,,,,,,,,,,,,,,429.3463971000001,429.85183489999963,429.85183489999963,430.60713920000035,430.60713920000035,431.1125699000004,431.1125699000004,431.8707559000004,431.8707559000004,None,num_4,0.37478379999993194,431.8707559000004,None,happy,1,Happy,432.2593996200001,None,None,432.2593996200001,None,,,,,,,,,,,,,,,,,,,,,,,,,,,,,,,,,,,,,,,,,,,,,,,,,,,,,45,001,0,24,500,500,2022_Nov_24_1120,Experiment,2021.1.4,360.37074943270096,
images\S3_F_H_03.png,images\S3_F_H_03_scrambled.png,3,happy,30,female,6,,555,on,2,0.5,0.75,0.5,0.923,3,554,1,1,3,2,2,32,128,166,,,,,,0,44,44,44,,,,,,,,,,,,,,,,,,,,,,,,,,,,,,,,,,,,,,,,,,,,,,,,,,,,,,,,,432.34271739999986,432.84812839999995,432.84812839999995,433.60345359999974,433.60345359999974,434.1061931000004,434.1061931000004,435.0364161999996,435.0364161999996,None,num_4,0.29711219999990135,435.0364161999996,None,happy,1,Happy,435.3473348200003,None,None,435.3473348200003,None,,,,,,,,,,,,,,,,,,,,,,,,,,,,,,,,,,,,,,,,,,,,,,,,,,,,,45,001,0,24,500,500,2022_Nov_24_1120,Experiment,2021.1.4,360.37074943270096,
images\S10_M_H_02.png,images\S10_M_H_02_scrambled.png,10,happy,20,male,5,,56,off,1,0.5,0.75,0.5,0.898,3,55,1,1,1,0,0,0,0,5,,,,,,0,45,45,45,,,,,,,,,,,,,,,,,,,,,,,,,,,,,,,,,,,,,,,,,,,,,,,,,,,,,,,,,435.43343209999966,435.93617879999965,435.93617879999965,436.6858444999998,436.6858444999998,437.1913129000004,437.1913129000004,438.0965521999997,438.0965521999997,None,num_4,0.46924610000041866,438.0965521999997,None,happy,1,Happy,438.5796752200002,None,None,438.5796752200002,None,,,,,,,,,,,,,,,,,,,,,,,,,,,,,,,,,,,,,,,,,,,,,,,,,,,,,45,001,0,24,500,500,2022_Nov_24_1120,Experiment,2021.1.4,360.37074943270096,
images\S5_F_H_01.png,images\S5_F_H_01_scrambled.png,5,happy,10,female,4,,265,off,1,0.5,0.75,0.5,0.803,3,264,2,1,1,0,0,0,0,4,,,,,,0,46,46,46,,,,,,,,,,,,,,,,,,,,,,,,,,,,,,,,,,,,,,,,,,,,,,,,,,,,,,,,,438.66576540000005,439.16841639999984,439.16841639999984,439.9209530999997,439.9209530999997,440.42357230000016,440.42357230000016,441.2317020999999,441.2317020999999,None,num_4,0.5179322000003594,441.2317020999999,None,happy,1,Happy,441.76759422000015,None,None,441.76759422000015,None,,,,,,,,,,,,,,,,,,,,,,,,,,,,,,,,,,,,,,,,,,,,,,,,,,,,,45,001,0,24,500,500,2022_Nov_24_1120,Experiment,2021.1.4,360.37074943270096,
images\S5_F_S_01.png,images\S5_F_S_01_scrambled.png,5,sad,-10,female,3,,328,on,2,0.5,0.75,0.5,0.774,3,327,1,2,1,2,2,32,128,163,,,,,,0,47,47,47,,,,,,,,,,,,,,,,,,,,,,,,,,,,,,,,,,,,,,,,,,,,,,,,,,,,,,,,,441.81480310000006,442.3174630000003,442.3174630000003,443.0727748999998,443.0727748999998,443.578168,443.578168,444.35583570000017,444.35583570000017,None,num_6,0.42581049999989773,444.35583570000017,None,sad,1,Sad,444.79443231999977,None,None,444.79443231999977,None,,,,,,,,,,,,,,,,,,,,,,,,,,,,,,,,,,,,,,,,,,,,,,,,,,,,,45,001,0,24,500,500,2022_Nov_24_1120,Experiment,2021.1.4,360.37074943270096,
images\S3_F_S_03.png,images\S3_F_S_03_scrambled.png,3,sad,-30,female,1,,318,on,2,0.5,0.75,0.5,0.911,3,317,2,1,1,2,2,32,128,161,,,,,,0,48,48,48,,,,,,,,,,,,,,,,,,,,,,,,,,,,,,,,,,,,,,,,,,,,,,,,,,,,,,,,,444.84164710000005,445.34708990000036,445.34708990000036,446.0996518000002,446.0996518000002,446.6022587999996,446.6022587999996,447.5187057000003,447.5187057000003,None,num_6,0.527697999999873,447.5187057000003,None,sad,1,Sad,448.06574765999983,None,None,448.06574765999983,None,,,,,,,,,,,,,,,,,,,,,,,,,,,,,,,,,,,,,,,,,,,,,,,,,,,,,45,001,0,24,500,500,2022_Nov_24_1120,Experiment,2021.1.4,360.37074943270096,
images\S3_F_S_01.png,images\S3_F_S_01_scrambled.png,3,sad,-10,female,3,,16,off,1,0.5,0.75,0.5,0.812,3,15,1,2,1,0,0,0,0,3,,,,,,0,49,49,49,,,,,,,,,,,,,,,,,,,,,,,,,,,,,,,,,,,,,,,,,,,,,,,,,,,,,,,,,448.1156487999997,448.61550290000014,448.61550290000014,449.3680562999998,449.3680562999998,449.87080009999954,449.87080009999954,450.68711449999955,450.68711449999955,None,num_6,0.47058670000023994,450.68711449999955,None,sad,1,Sad,451.1675023200003,None,None,451.1675023200003,None,,,,,,,,,,,,,,,,,,,,,,,,,,,,,,,,,,,,,,,,,,,,,,,,,,,,,45,001,0,24,500,500,2022_Nov_24_1120,Experiment,2021.1.4,360.37074943270096,
images\S8_M_H_02.png,images\S8_M_H_02_scrambled.png,8,happy,20,male,5,,44,off,1,0.5,0.75,0.5,0.949,3,43,2,1,1,0,0,0,0,5,,,,,,0,50,50,50,,,,,,,,,,,,,,,,,,,,,,,,,,,,,,,,,,,,,,,,,,,,,,,,,,,,,,,,,451.21470020000015,451.7173468000001,451.7173468000001,452.46708209999997,452.46708209999997,452.96974969999974,452.96974969999974,453.92223079999985,453.92223079999985,None,num_4,0.32344430000011926,453.92223079999985,None,happy,1,Happy,454.2637608200001,None,None,454.2637608200001,None,,,,,,,,,,,,,,,,,,,,,,,,,,,,,,,,,,,,,,,,,,,,,,,,,,,,,45,001,0,24,500,500,2022_Nov_24_1120,Experiment,2021.1.4,360.37074943270096,
images\S4_M_S_01.png,images\S4_M_S_01_scrambled.png,4,sad,-10,male,3,,262,off,1,0.5,0.75,0.5,0.908,3,261,3,1,1,0,0,0,0,3,,,,,,0,51,51,51,,,,,,,,,,,,,,,,,,,,,,,,,,,,,,,,,,,,,,,,,,,,,,,,,,,,,,,,,454.3109750000003,454.8108368000003,454.8108368000003,455.56057669999973,455.56057669999973,456.0661,456.0661,456.97681099999954,456.97681099999954,None,num_6,0.2695992999997543,456.97681099999954,None,sad,1,Sad,457.2574497200001,None,None,457.2574497200001,None,,,,,,,,,,,,,,,,,,,,,,,,,,,,,,,,,,,,,,,,,,,,,,,,,,,,,45,001,0,24,500,500,2022_Nov_24_1120,Experiment,2021.1.4,360.37074943270096,
images\blank.jpg,images\blank.jpg,none,none,none,none,0,,638,on,2,0.5,0.75,0.5,0.824,0,637,1,1,1,3,3,48,192,240,,,,,,0,52,52,52,,,,,,,,,,,,,,,,,,,,,,,,,,,,,,,,,,,,,,,,,,,,,,,,,,,,,,,,,457.3435857000004,457.8461258999996,457.8461258999996,458.5985381999999,458.5985381999999,459.1012592999996,459.1012592999996,459.9314881999999,459.9314881999999,459.9314881999999,None,,459.9314881999999,None,miss,1,,462.9305614800002,None,None,462.9305614800002,None,,,,,,,,,,,,,,,,,,,,,,,,,,,,,,,,,,,,,,,,,,,,,,,,,,,,,45,001,0,24,500,500,2022_Nov_24_1120,Experiment,2021.1.4,360.37074943270096,
images\S4_M_H_01.png,images\S4_M_H_01_scrambled.png,4,happy,10,male,4,,139,off,1,0.5,0.75,0.5,0.91,3,138,1,1,1,0,0,0,0,4,,,,,,0,53,53,53,,,,,,,,,,,,,,,,,,,,,,,,,,,,,,,,,,,,,,,,,,,,,,,,,,,,,,,,,463.0446549999997,463.54983530000027,463.54983530000027,464.30515560000003,464.30515560000003,464.80767899999955,464.80767899999955,465.72136969999974,465.72136969999974,None,num_6,0.4763572000001659,465.72136969999974,463.0446549999997,sad,1,Happy,466.21008495999956,None,None,466.21008495999956,None,,,,,,,,,,,,,,,,,,,,,,,,,,,,,,,,,,,,,,,,,,,,,,,,,,,,,45,001,0,24,500,500,2022_Nov_24_1120,Experiment,2021.1.4,360.37074943270096,
images\S2_M_S_03.png,images\S2_M_S_03_scrambled.png,2,sad,-30,male,1,,552,on,2,0.5,0.75,0.5,0.782,3,551,1,1,1,2,2,32,128,161,,,,,,0,54,54,54,,,,,,,,,,,,,,,,,,,,,,,,,,,,,,,,,,,,,,,,,,,,,,,,,,,,,,,,,466.2906369000002,466.79324819999965,466.79324819999965,467.54305490000024,467.54305490000024,468.0456313000004,468.0456313000004,468.8315313000003,468.8315313000003,None,num_6,0.36614190000000235,468.8315313000003,None,sad,1,Sad,469.21194522000025,None,None,469.21194522000025,None,,,,,,,,,,,,,,,,,,,,,,,,,,,,,,,,,,,,,,,,,,,,,,,,,,,,,45,001,0,24,500,500,2022_Nov_24_1120,Experiment,2021.1.4,360.37074943270096,
images\S3_F_S_02.png,images\S3_F_S_02_scrambled.png,3,sad,-20,female,2,,377,off,1,0.5,0.75,0.5,0.916,3,376,1,1,1,0,0,0,0,2,,,,,,0,55,55,55,,,,,,,,,,,,,,,,,,,,,,,,,,,,,,,,,,,,,,,,,,,,,,,,,,,,,,,,,469.29526259999966,469.80068930000016,469.80068930000016,470.55333319999954,470.55333319999954,471.0530735000002,471.0530735000002,471.9750167000002,471.9750167000002,None,num_6,0.2708154000001741,471.9750167000002,None,sad,1,Sad,472.2610082199997,None,None,472.2610082199997,None,,,,,,,,,,,,,,,,,,,,,,,,,,,,,,,,,,,,,,,,,,,,,,,,,,,,,45,001,0,24,500,500,2022_Nov_24_1120,Experiment,2021.1.4,360.37074943270096,
images\S4_M_H_03.png,images\S4_M_H_03_scrambled.png,4,happy,30,male,6,,441,on,2,0.5,0.75,0.5,0.835,3,440,1,1,1,2,2,32,128,166,,,,,,0,56,56,56,,,,,,,,,,,,,,,,,,,,,,,,,,,,,,,,,,,,,,,,,,,,,,,,,,,,,,,,,472.34709939999993,472.8497269999998,472.8497269999998,473.60227289999966,473.60227289999966,474.1049046999997,474.1049046999997,474.9435185000002,474.9435185000002,None,num_4,0.3501870999998573,474.9435185000002,None,happy,1,Happy,475.3045198199996,None,None,475.3045198199996,None,,,,,,,,,,,,,,,,,,,,,,,,,,,,,,,,,,,,,,,,,,,,,,,,,,,,,45,001,0,24,500,500,2022_Nov_24_1120,Experiment,2021.1.4,360.37074943270096,
images\S2_M_S_02.png,images\S2_M_S_02_scrambled.png,2,sad,-20,male,2,,11,off,1,0.5,0.75,0.5,0.827,3,10,1,1,1,0,0,0,0,2,,,,,,0,57,57,57,,,,,,,,,,,,,,,,,,,,,,,,,,,,,,,,,,,,,,,,,,,,,,,,,,,,,,,,,475.35458990000006,475.8599617,475.8599617,476.6124487999996,476.6124487999996,477.1151010000003,477.1151010000003,477.9454052000001,477.9454052000001,None,num_6,0.37222810000002937,477.9454052000001,None,sad,1,Sad,478.33136652000013,None,None,478.33136652000013,None,,,,,,,,,,,,,,,,,,,,,,,,,,,,,,,,,,,,,,,,,,,,,,,,,,,,,45,001,0,24,500,500,2022_Nov_24_1120,Experiment,2021.1.4,360.37074943270096,
images\S1_F_S_01.png,images\S1_F_S_01_scrambled.png,1,sad,-10,female,3,,184,on,2,0.5,0.75,0.5,0.826,3,183,1,1,1,2,2,32,128,163,,,,,,0,58,58,58,,,,,,,,,,,,,,,,,,,,,,,,,,,,,,,,,,,,,,,,,,,,,,,,,,,,,,,,,478.3868456,478.8895812999999,478.8895812999999,479.6393218000003,479.6393218000003,480.1447568000003,480.1447568000003,480.9750492000003,480.9750492000003,None,num_4,0.3265248999996402,480.9750492000003,None,happy,1,Sad,481.3110095599999,None,None,481.3110095599999,None,,,,,,,,,,,,,,,,,,,,,,,,,,,,,,,,,,,,,,,,,,,,,,,,,,,,,45,001,0,24,500,500,2022_Nov_24_1120,Experiment,2021.1.4,360.37074943270096,
images\S2_M_H_01.png,images\S2_M_H_01_scrambled.png,2,happy,10,male,4,,187,on,2,0.5,0.75,0.5,0.927,3,186,2,1,1,2,2,32,128,164,,,,,,0,59,59,59,,,,,,,,,,,,,,,,,,,,,,,,,,,,,,,,,,,,,,,,,,,,,,,,,,,,,,,,,481.3943508000002,481.8969559999996,481.8969559999996,482.6494971000002,482.6494971000002,483.1549498000004,483.1549498000004,484.0851980999996,484.0851980999996,None,num_4,0.25657959999989544,484.0851980999996,None,happy,1,Happy,484.36296894000003,None,None,484.36296894000003,None,,,,,,,,,,,,,,,,,,,,,,,,,,,,,,,,,,,,,,,,,,,,,,,,,,,,,45,001,0,24,500,500,2022_Nov_24_1120,Experiment,2021.1.4,360.37074943270096,
images\S1_F_H_03.png,images\S1_F_H_03_scrambled.png,1,happy,30,female,6,,363,off,1,0.5,0.75,0.5,0.766,3,362,1,1,1,0,0,0,0,6,,,,,,0,60,60,60,,,,,,,,,,,,,,,,,,,,,,,,,,,,,,,,,,,,,,,,,,,,,,,,,,,,,,,,,484.47113890000037,484.9739201000002,484.9739201000002,485.72920109999995,485.72920109999995,486.2345529000004,486.2345529000004,487.0064996000001,487.0064996000001,None,num_4,0.27916319999985717,487.0064996000001,None,happy,1,Happy,487.3008420200002,None,None,487.3008420200002,None,,,,,,,,,,,,,,,,,,,,,,,,,,,,,,,,,,,,,,,,,,,,,,,,,,,,,45,001,0,24,500,500,2022_Nov_24_1120,Experiment,2021.1.4,360.37074943270096,
images\S6_M_S_03.png,images\S6_M_S_03_scrambled.png,6,sad,-30,male,1,,336,on,2,0.5,0.75,0.5,0.866,3,335,1,1,1,2,2,32,128,161,,,,,,0,61,61,61,,,,,,,,,,,,,,,,,,,,,,,,,,,,,,,,,,,,,,,,,,,,,,,,,,,,,,,,,487.34804780000013,487.8506661000001,487.8506661000001,488.60043829999995,488.60043829999995,489.10309589999997,489.10309589999997,489.97222969999984,489.97222969999984,None,num_6,0.32142339999973046,489.97222969999984,None,sad,1,Sad,490.3082177200002,None,None,490.3082177200002,None,,,,,,,,,,,,,,,,,,,,,,,,,,,,,,,,,,,,,,,,,,,,,,,,,,,,,45,001,0,24,500,500,2022_Nov_24_1120,Experiment,2021.1.4,360.37074943270096,
images\S3_F_H_02.png,images\S3_F_H_02_scrambled.png,3,happy,20,female,5,,194,on,2,0.5,0.75,0.5,0.879,3,193,2,1,1,2,2,32,128,165,,,,,,0,62,62,62,,,,,,,,,,,,,,,,,,,,,,,,,,,,,,,,,,,,,,,,,,,,,,,,,,,,,,,,,490.39156249999996,490.8942039000003,490.8942039000003,491.6439516999999,491.6439516999999,492.1465797000001,492.1465797000001,493.02969140000005,493.02969140000005,None,num_4,0.43212769999990996,493.02969140000005,None,happy,1,Happy,493.47672631999995,None,None,493.47672631999995,None,,,,,,,,,,,,,,,,,,,,,,,,,,,,,,,,,,,,,,,,,,,,,,,,,,,,,45,001,0,24,500,500,2022_Nov_24_1120,Experiment,2021.1.4,360.37074943270096,
images\S10_M_H_01.png,images\S10_M_H_01_scrambled.png,10,happy,10,male,4,,115,on,2,0.5,0.75,0.5,0.927,3,114,3,1,1,2,2,32,128,164,,,,,,0,63,63,63,,,,,,,,,,,,,,,,,,,,,,,,,,,,,,,,,,,,,,,,,,,,,,,,,,,,,,,,,493.5628128999997,494.06545709999955,494.06545709999955,494.81810959999984,494.81810959999984,495.32349760000034,495.32349760000034,496.2537720999999,496.2537720999999,None,num_4,0.27193220000026486,496.2537720999999,None,happy,1,Happy,496.53688591999963,None,None,496.53688591999963,None,,,,,,,,,,,,,,,,,,,,,,,,,,,,,,,,,,,,,,,,,,,,,,,,,,,,,45,001,0,24,500,500,2022_Nov_24_1120,Experiment,2021.1.4,360.37074943270096,
images\S4_M_S_02.png,images\S4_M_S_02_scrambled.png,4,sad,-20,male,2,,203,on,2,0.5,0.75,0.5,0.935,3,202,4,1,1,2,2,32,128,162,,,,,,0,64,64,64,,,,,,,,,,,,,,,,,,,,,,,,,,,,,,,,,,,,,,,,,,,,,,,,,,,,,,,,,496.5840969000001,497.0867430999997,497.0867430999997,497.83928019999985,497.83928019999985,498.34190539999963,498.34190539999963,499.2834002999998,499.2834002999998,None,num_6,0.33044340000014927,499.2834002999998,None,sad,1,Sad,499.63322730000027,None,None,499.63322730000027,None,,,,,,,,,,,,,,,,,,,,,,,,,,,,,,,,,,,,,,,,,,,,,,,,,,,,,45,001,0,24,500,500,2022_Nov_24_1120,Experiment,2021.1.4,360.37074943270096,
images\S7_F_H_02.png,images\S7_F_H_02_scrambled.png,7,happy,20,female,5,,398,off,1,0.5,0.75,0.5,0.826,3,397,1,1,1,0,0,0,0,5,,,,,,0,65,65,65,,,,,,,,,,,,,,,,,,,,,,,,,,,,,,,,,,,,,,,,,,,,,,,,,,,,,,,,,499.69980699999996,500.20523890000004,500.20523890000004,500.9578770999997,500.9578770999997,501.46037650000017,501.46037650000017,502.29067750000013,502.29067750000013,None,num_4,0.32293829999980517,502.29067750000013,None,happy,1,Happy,502.6239403199996,None,None,502.6239403199996,None,,,,,,,,,,,,,,,,,,,,,,,,,,,,,,,,,,,,,,,,,,,,,,,,,,,,,45,001,0,24,500,500,2022_Nov_24_1120,Experiment,2021.1.4,360.37074943270096,
images\S10_M_S_02.png,images\S10_M_S_02_scrambled.png,10,sad,-20,male,2,,239,on,2,0.5,0.75,0.5,0.931,3,238,1,1,1,2,2,32,128,162,,,,,,0,66,66,66,,,,,,,,,,,,,,,,,,,,,,,,,,,,,,,,,,,,,,,,,,,,,,,,,,,,,,,,,502.7044569999998,503.2098712999996,503.2098712999996,503.96241960000043,503.96241960000043,504.4650579999998,504.4650579999998,505.40086189999965,505.40086189999965,None,num_4,0.48492590000023483,505.40086189999965,None,happy,1,Sad,505.89512645999946,None,None,505.89512645999946,None,,,,,,,,,,,,,,,,,,,,,,,,,,,,,,,,,,,,,,,,,,,,,,,,,,,,,45,001,0,24,500,500,2022_Nov_24_1120,Experiment,2021.1.4,360.37074943270096,
images\S6_M_S_03.png,images\S6_M_S_03_scrambled.png,6,sad,-30,male,1,,276,off,1,0.5,0.75,0.5,0.826,3,275,1,1,1,0,0,0,0,1,,,,,,0,67,67,67,,,,,,,,,,,,,,,,,,,,,,,,,,,,,,,,,,,,,,,,,,,,,,,,,,,,,,,,,505.9423472999997,506.44496419999996,506.44496419999996,507.2003222000003,507.2003222000003,507.7001355000002,507.7001355000002,508.5304323999999,508.5304323999999,None,num_6,0.46714760000031674,508.5304323999999,None,sad,1,Sad,509.01080791999976,None,None,509.01080791999976,None,,,,,,,,,,,,,,,,,,,,,,,,,,,,,,,,,,,,,,,,,,,,,,,,,,,,,45,001,0,24,500,500,2022_Nov_24_1120,Experiment,2021.1.4,360.37074943270096,
images\S10_M_S_03.png,images\S10_M_S_03_scrambled.png,10,sad,-30,male,1,,420,off,1,0.5,0.75,0.5,0.813,3,419,2,1,2,0,0,0,0,1,,,,,,0,68,68,68,,,,,,,,,,,,,,,,,,,,,,,,,,,,,,,,,,,,,,,,,,,,,,,,,,,,,,,,,509.09415050000007,509.5940158000003,509.5940158000003,510.34378670000024,510.34378670000024,510.8464137000001,510.8464137000001,511.6656094,511.6656094,None,num_6,0.31630410000070697,511.6656094,None,sad,1,Sad,512.0016558000002,None,None,512.0016558000002,None,,,,,,,,,,,,,,,,,,,,,,,,,,,,,,,,,,,,,,,,,,,,,,,,,,,,,45,001,0,24,500,500,2022_Nov_24_1120,Experiment,2021.1.4,360.37074943270096,
images\S6_M_S_01.png,images\S6_M_S_01_scrambled.png,6,sad,-10,male,3,,154,off,1,0.5,0.75,0.5,0.85,3,153,3,1,1,0,0,0,0,3,,,,,,0,69,69,69,,,,,,,,,,,,,,,,,,,,,,,,,,,,,,,,,,,,,,,,,,,,,,,,,,,,,,,,,512.0544916999997,512.5542070000001,512.5542070000001,513.3095649999996,513.3095649999996,513.8149514999996,513.8149514999996,514.6702572000004,514.6702572000004,None,num_6,0.49544280000009167,514.6702572000004,None,sad,1,Sad,515.1950618999999,None,None,515.1950618999999,None,,,,,,,,,,,,,,,,,,,,,,,,,,,,,,,,,,,,,,,,,,,,,,,,,,,,,45,001,0,24,500,500,2022_Nov_24_1120,Experiment,2021.1.4,360.37074943270096,
images\S10_M_H_02.png,images\S10_M_H_02_scrambled.png,10,happy,20,male,5,,236,on,2,0.5,0.75,0.5,0.858,3,235,1,1,1,2,2,32,128,165,,,,,,0,70,70,70,,,,,,,,,,,,,,,,,,,,,,,,,,,,,,,,,,,,,,,,,,,,,,,,,,,,,,,,,515.2478368000002,515.7504888000003,515.7504888000003,516.5057878999996,516.5057878999996,517.0084149000004,517.0084149000004,517.8693573,517.8693573,None,num_4,0.3042522000005192,517.8693573,None,happy,1,Happy,518.1913569000003,None,None,518.1913569000003,None,,,,,,,,,,,,,,,,,,,,,,,,,,,,,,,,,,,,,,,,,,,,,,,,,,,,,45,001,0,24,500,500,2022_Nov_24_1120,Experiment,2021.1.4,360.37074943270096,
images\blank.jpg,images\blank.jpg,none,none,none,none,0,,601,on,2,0.5,0.75,0.5,0.885,0,600,2,1,1,3,3,48,192,240,,,,,,0,71,71,71,,,,,,,,,,,,,,,,,,,,,,,,,,,,,,,,,,,,,,,,,,,,,,,,,,,,,,,,,518.2776464999997,518.7772850000001,518.7772850000001,519.5298732000001,519.5298732000001,520.0352941000001,520.0352941000001,520.9239396000003,520.9239396000003,520.9239396000003,None,,520.9239396000003,None,miss,1,,523.9257574600001,None,None,523.9257574600001,None,,,,,,,,,,,,,,,,,,,,,,,,,,,,,,,,,,,,,,,,,,,,,,,,,,,,,45,001,0,24,500,500,2022_Nov_24_1120,Experiment,2021.1.4,360.37074943270096,
images\S1_F_H_03.png,images\S1_F_H_03_scrambled.png,1,happy,30,female,6,,63,on,2,0.5,0.75,0.5,0.78,3,62,3,1,1,2,2,32,128,166,,,,,,0,72,72,72,,,,,,,,,,,,,,,,,,,,,,,,,,,,,,,,,,,,,,,,,,,,,,,,,,,,,,,,,524.0452955000001,524.5477530999997,524.5477530999997,525.3003669,525.3003669,525.8057495000003,525.8057495000003,526.5915818000003,526.5915818000003,None,num_4,0.3020401000003403,526.5915818000003,524.0452955000001,happy,1,Happy,526.9080911199998,None,None,526.9080911199998,None,,,,,,,,,,,,,,,,,,,,,,,,,,,,,,,,,,,,,,,,,,,,,,,,,,,,,45,001,0,24,500,500,2022_Nov_24_1120,Experiment,2021.1.4,360.37074943270096,
images\S7_F_H_01.png,images\S7_F_H_01_scrambled.png,7,happy,10,female,4,,217,on,2,0.5,0.75,0.5,0.829,3,216,4,1,1,2,2,32,128,164,,,,,,0,73,73,73,,,,,,,,,,,,,,,,,,,,,,,,,,,,,,,,,,,,,,,,,,,,,,,,,,,,,,,,,526.9553397999998,527.4607569999998,527.4607569999998,528.2105106999998,528.2105106999998,528.7159393000002,528.7159393000002,529.5517891999998,529.5517891999998,None,num_6,0.35001069999998435,529.5517891999998,None,sad,1,Happy,529.9099847599996,None,None,529.9099847599996,None,,,,,,,,,,,,,,,,,,,,,,,,,,,,,,,,,,,,,,,,,,,,,,,,,,,,,45,001,0,24,500,500,2022_Nov_24_1120,Experiment,2021.1.4,360.37074943270096,
images\S1_F_S_03.png,images\S1_F_S_03_scrambled.png,1,sad,-30,female,1,,546,on,2,0.5,0.75,0.5,0.825,3,545,5,1,1,2,2,32,128,161,,,,,,0,74,74,74,,,,,,,,,,,,,,,,,,,,,,,,,,,,,,,,,,,,,,,,,,,,,,,,,,,,,,,,,529.9572172999997,530.4599447,530.4599447,531.2123809000004,531.2123809000004,531.7151234000003,531.7151234000003,532.5425017999996,532.5425017999996,None,num_6,0.25539740000021993,532.5425017999996,None,sad,1,Sad,532.8202616800002,None,None,532.8202616800002,None,,,,,,,,,,,,,,,,,,,,,,,,,,,,,,,,,,,,,,,,,,,,,,,,,,,,,45,001,0,24,500,500,2022_Nov_24_1120,Experiment,2021.1.4,360.37074943270096,
images\S6_M_S_01.png,images\S6_M_S_01_scrambled.png,6,sad,-10,male,3,,394,off,1,0.5,0.75,0.5,0.767,3,393,1,1,1,0,0,0,0,3,,,,,,0,75,75,75,,,,,,,,,,,,,,,,,,,,,,,,,,,,,,,,,,,,,,,,,,,,,,,,,,,,,,,,,532.8674121000004,533.3701541,533.3701541,534.1198278000002,534.1198278000002,534.6252891000004,534.6252891000004,535.3945254999999,535.3945254999999,None,num_6,0.3075864000002184,535.3945254999999,None,sad,1,Sad,535.7249609400002,None,None,535.7249609400002,None,,,,,,,,,,,,,,,,,,,,,,,,,,,,,,,,,,,,,,,,,,,,,,,,,,,,,45,001,0,24,500,500,2022_Nov_24_1120,Experiment,2021.1.4,360.37074943270096,
images\S3_F_H_03.png,images\S3_F_H_03_scrambled.png,3,happy,30,female,6,,315,on,2,0.5,0.75,0.5,0.752,3,314,1,1,1,2,2,32,128,166,,,,,,0,76,76,76,,,,,,,,,,,,,,,,,,,,,,,,,,,,,,,,,,,,,,,,,,,,,,,,,,,,,,,,,535.7776242999998,536.2803430000004,536.2803430000004,537.0356215000002,537.0356215000002,537.5410118,537.5410118,538.2963401999996,538.2963401999996,None,num_4,0.33344730000044365,538.2963401999996,None,happy,1,Happy,538.6434131200002,None,None,538.6434131200002,None,,,,,,,,,,,,,,,,,,,,,,,,,,,,,,,,,,,,,,,,,,,,,,,,,,,,,45,001,0,24,500,500,2022_Nov_24_1120,Experiment,2021.1.4,360.37074943270096,
images\blank.jpg,images\blank.jpg,none,none,none,none,0,,623,on,2,0.5,0.75,0.5,0.822,0,622,2,1,1,3,3,48,192,240,,,,,,0,77,77,77,,,,,,,,,,,,,,,,,,,,,,,,,,,,,,,,,,,,,,,,,,,,,,,,,,,,,,,,,538.7269858,539.2293712000001,539.2293712000001,539.9819213999999,539.9819213999999,540.4845138000001,540.4845138000001,541.3120574000004,541.3120574000004,541.3120574000004,None,,541.3120574000004,None,miss,1,,544.3139095800004,None,None,544.3139095800004,None,,,,,,,,,,,,,,,,,,,,,,,,,,,,,,,,,,,,,,,,,,,,,,,,,,,,,45,001,0,24,500,500,2022_Nov_24_1120,Experiment,2021.1.4,360.37074943270096,
images\S6_M_H_02.png,images\S6_M_H_02_scrambled.png,6,happy,20,male,5,,32,off,1,0.5,0.75,0.5,0.941,3,31,1,1,1,0,0,0,0,5,,,,,,0,78,78,78,,,,,,,,,,,,,,,,,,,,,,,,,,,,,,,,,,,,,,,,,,,,,,,,,,,,,,,,,544.4280314999996,544.9332691999998,544.9332691999998,545.6857225000003,545.6857225000003,546.1884472000002,546.1884472000002,547.1352779999997,547.1352779999997,None,num_4,0.3343395000001692,547.1352779999997,544.4280314999996,happy,1,Happy,547.4851515199997,None,None,547.4851515199997,None,,,,,,,,,,,,,,,,,,,,,,,,,,,,,,,,,,,,,,,,,,,,,,,,,,,,,45,001,0,24,500,500,2022_Nov_24_1120,Experiment,2021.1.4,360.37074943270096,
images\S5_F_S_03.png,images\S5_F_S_03_scrambled.png,5,sad,-30,female,1,,270,off,1,0.5,0.75,0.5,0.796,3,269,2,1,1,0,0,0,0,1,,,,,,0,79,79,79,,,,,,,,,,,,,,,,,,,,,,,,,,,,,,,,,,,,,,,,,,,,,,,,,,,,,,,,,547.5712338000003,548.0738488999996,548.0738488999996,548.8236147999996,548.8236147999996,549.3290594,549.3290594,550.1288348999997,550.1288348999997,None,num_6,1.3250207999999475,550.1288348999997,None,sad,1,Sad,551.46725392,None,None,551.46725392,None,,,,,,,,,,,,,,,,,,,,,,,,,,,,,,,,,,,,,,,,,,,,,,,,,,,,,45,001,0,24,500,500,2022_Nov_24_1120,Experiment,2021.1.4,360.37074943270096,
images\S4_M_S_03.png,images\S4_M_S_03_scrambled.png,4,sad,-30,male,1,,144,off,1,0.5,0.75,0.5,0.931,3,143,3,1,2,0,0,0,0,1,,,,,,0,80,80,80,,,,,,,,,,,,,,,,,,,,,,,,,,,,,,,,,,,,,,,,,,,,,,,,,,,,,,,,,551.5505704999996,552.0559759999996,552.0559759999996,552.8085646999998,552.8085646999998,553.3083721000003,553.3083721000003,554.2442172000001,554.2442172000001,None,num_6,0.33748500000001513,554.2442172000001,None,sad,1,Sad,554.5968458200003,None,None,554.5968458200003,None,,,,,,,,,,,,,,,,,,,,,,,,,,,,,,,,,,,,,,,,,,,,,,,,,,,,,45,001,0,24,500,500,2022_Nov_24_1120,Experiment,2021.1.4,360.37074943270096,
images\S6_M_H_01.png,images\S6_M_H_01_scrambled.png,6,happy,10,male,4,,151,off,1,0.5,0.75,0.5,0.775,3,150,4,1,1,0,0,0,0,4,,,,,,0,81,81,81,,,,,,,,,,,,,,,,,,,,,,,,,,,,,,,,,,,,,,,,,,,,,,,,,,,,,,,,,554.6829374999998,555.1884447000002,555.1884447000002,555.9436857999999,555.9436857999999,556.4434984,556.4434984,557.2238600000001,557.2238600000001,None,num_4,0.2623705999994854,557.2238600000001,None,happy,1,Happy,557.5099405799995,None,None,557.5099405799995,None,,,,,,,,,,,,,,,,,,,,,,,,,,,,,,,,,,,,,,,,,,,,,,,,,,,,,45,001,0,24,500,500,2022_Nov_24_1120,Experiment,2021.1.4,360.37074943270096,
images\S7_F_S_03.png,images\S7_F_S_03_scrambled.png,7,sad,-30,female,1,,582,on,2,0.5,0.75,0.5,0.888,3,581,1,1,1,2,2,32,128,161,,,,,,0,82,82,82,,,,,,,,,,,,,,,,,,,,,,,,,,,,,,,,,,,,,,,,,,,,,,,,,,,,,,,,,557.5598320999998,558.0652522999999,558.0652522999999,558.8179135,558.8179135,559.3176518999999,559.3176518999999,560.2090527,560.2090527,None,num_6,0.36483120000048075,560.2090527,None,sad,1,Sad,560.5950756799996,None,None,560.5950756799996,None,,,,,,,,,,,,,,,,,,,,,,,,,,,,,,,,,,,,,,,,,,,,,,,,,,,,,45,001,0,24,500,500,2022_Nov_24_1120,Experiment,2021.1.4,360.37074943270096,
images\S7_F_S_03.png,images\S7_F_S_03_scrambled.png,7,sad,-30,female,1,,342,on,2,0.5,0.75,0.5,0.867,3,341,2,2,2,2,2,32,128,161,,,,,,0,83,83,83,,,,,,,,,,,,,,,,,,,,,,,,,,,,,,,,,,,,,,,,,,,,,,,,,,,,,,,,,560.6561025999999,561.1587852000002,561.1587852000002,561.9113291000003,561.9113291000003,562.4139373999997,562.4139373999997,563.2831893000002,563.2831893000002,None,num_6,0.35461949999989884,563.2831893000002,None,sad,1,Sad,563.6524004199999,None,None,563.6524004199999,None,,,,,,,,,,,,,,,,,,,,,,,,,,,,,,,,,,,,,,,,,,,,,,,,,,,,,45,001,0,24,500,500,2022_Nov_24_1120,Experiment,2021.1.4,360.37074943270096,
images\S10_M_H_01.png,images\S10_M_H_01_scrambled.png,10,happy,10,male,4,,295,off,1,0.5,0.75,0.5,0.856,3,294,1,1,1,0,0,0,0,4,,,,,,0,84,84,84,,,,,,,,,,,,,,,,,,,,,,,,,,,,,,,,,,,,,,,,,,,,,,,,,,,,,,,,,563.6996149999995,564.2050399,564.2050399,564.9576938999999,564.9576938999999,565.4574003999996,565.4574003999996,566.3182708000004,566.3182708000004,None,num_4,0.36754539999947156,566.3182708000004,None,happy,1,Happy,566.7070154599996,None,None,566.7070154599996,None,,,,,,,,,,,,,,,,,,,,,,,,,,,,,,,,,,,,,,,,,,,,,,,,,,,,,45,001,0,24,500,500,2022_Nov_24_1120,Experiment,2021.1.4,360.37074943270096,
images\S2_M_H_01.png,images\S2_M_H_01_scrambled.png,2,happy,10,male,4,,487,off,1,0.5,0.75,0.5,0.926,3,486,2,1,2,0,0,0,0,4,,,,,,0,85,85,85,,,,,,,,,,,,,,,,,,,,,,,,,,,,,,,,,,,,,,,,,,,,,,,,,,,,,,,,,566.7708902000004,567.2735153000003,567.2735153000003,568.0288971,568.0288971,568.5342757999997,568.5342757999997,569.4645387,569.4645387,None,num_4,0.34925639999983105,569.4645387,None,happy,1,Happy,569.8282858199999,None,None,569.8282858199999,None,,,,,,,,,,,,,,,,,,,,,,,,,,,,,,,,,,,,,,,,,,,,,,,,,,,,,45,001,0,24,500,500,2022_Nov_24_1120,Experiment,2021.1.4,360.37074943270096,
images\S7_F_S_01.png,images\S7_F_S_01_scrambled.png,7,sad,-10,female,3,,280,off,1,0.5,0.75,0.5,0.918,3,279,3,1,1,0,0,0,0,3,,,,,,0,86,86,86,,,,,,,,,,,,,,,,,,,,,,,,,,,,,,,,,,,,,,,,,,,,,,,,,,,,,,,,,569.939359,570.4421031000002,570.4421031000002,571.1917647999999,571.1917647999999,571.6944071999997,571.6944071999997,572.6191343999999,572.6191343999999,None,num_4,0.36274539999976696,572.6191343999999,None,happy,1,Sad,572.9912023600004,None,None,572.9912023600004,None,,,,,,,,,,,,,,,,,,,,,,,,,,,,,,,,,,,,,,,,,,,,,,,,,,,,,45,001,0,24,500,500,2022_Nov_24_1120,Experiment,2021.1.4,360.37074943270096,
images\S4_M_S_01.png,images\S4_M_S_01_scrambled.png,4,sad,-10,male,3,,442,on,2,0.5,0.75,0.5,0.898,3,441,1,1,2,2,2,32,128,163,,,,,,0,87,87,87,,,,,,,,,,,,,,,,,,,,,,,,,,,,,,,,,,,,,,,,,,,,,,,,,,,,,,,,,573.0384182999996,573.5438458999997,573.5438458999997,574.2963995999999,574.2963995999999,574.7990209999998,574.7990209999998,575.7042867999999,575.7042867999999,None,num_6,0.2855934999997771,575.7042867999999,None,sad,1,Sad,576.0041741999999,None,None,576.0041741999999,None,,,,,,,,,,,,,,,,,,,,,,,,,,,,,,,,,,,,,,,,,,,,,,,,,,,,,45,001,0,24,500,500,2022_Nov_24_1120,Experiment,2021.1.4,360.37074943270096,
images\S7_F_S_02.png,images\S7_F_S_02_scrambled.png,7,sad,-20,female,2,,161,off,1,0.5,0.75,0.5,0.93,3,160,1,1,1,0,0,0,0,2,,,,,,0,88,88,88,,,,,,,,,,,,,,,,,,,,,,,,,,,,,,,,,,,,,,,,,,,,,,,,,,,,,,,,,576.1152421999996,576.6206573,576.6206573,577.3759812999997,577.3759812999997,577.8786448999999,577.8786448999999,578.8144571000003,578.8144571000003,None,num_6,0.2951966000000539,578.8144571000003,None,sad,1,Sad,579.1199004199997,None,None,579.1199004199997,None,,,,,,,,,,,,,,,,,,,,,,,,,,,,,,,,,,,,,,,,,,,,,,,,,,,,,45,001,0,24,500,500,2022_Nov_24_1120,Experiment,2021.1.4,360.37074943270096,
images\S9_F_S_02.png,images\S9_F_S_02_scrambled.png,9,sad,-20,female,2,,533,off,1,0.5,0.75,0.5,0.793,3,532,2,1,2,0,0,0,0,2,,,,,,0,89,89,89,,,,,,,,,,,,,,,,,,,,,,,,,,,,,,,,,,,,,,,,,,,,,,,,,,,,,,,,,579.2059626999999,579.7085845000001,579.7085845000001,580.4611771999998,580.4611771999998,580.9637546000004,580.9637546000004,581.7607445000003,581.7607445000003,None,num_4,0.4776747999994768,581.7607445000003,None,happy,1,Sad,582.2467827399997,None,None,582.2467827399997,None,,,,,,,,,,,,,,,,,,,,,,,,,,,,,,,,,,,,,,,,,,,,,,,,,,,,,45,001,0,24,500,500,2022_Nov_24_1120,Experiment,2021.1.4,360.37074943270096,
images\S2_M_S_03.png,images\S2_M_S_03_scrambled.png,2,sad,-30,male,1,,192,on,2,0.5,0.75,0.5,0.843,3,191,1,1,1,2,2,32,128,161,,,,,,0,90,90,90,,,,,,,,,,,,,,,,,,,,,,,,,,,,,,,,,,,,,,,,,,,,,,,,,,,,,,,,,582.3051237999998,582.8077721999998,582.8077721999998,583.5574017999998,583.5574017999998,584.0572488999996,584.0572488999996,584.9042563000003,584.9042563000003,None,num_6,0.35755349999999453,584.9042563000003,None,sad,1,Sad,585.2763260199998,None,None,585.2763260199998,None,,,,,,,,,,,,,,,,,,,,,,,,,,,,,,,,,,,,,,,,,,,,,,,,,,,,,45,001,0,24,500,500,2022_Nov_24_1120,Experiment,2021.1.4,360.37074943270096,
images\blank.jpg,images\blank.jpg,none,none,none,none,0,,649,on,2,0.5,0.75,0.5,0.814,0,648,2,1,1,3,3,48,192,240,,,,,,0,91,91,91,,,,,,,,,,,,,,,,,,,,,,,,,,,,,,,,,,,,,,,,,,,,,,,,,,,,,,,,,585.3598460000003,585.8622519999999,585.8622519999999,586.6148271000002,586.6148271000002,587.1202163999997,587.1202163999997,587.9366528999999,587.9366528999999,587.9366528999999,None,,587.9366528999999,None,miss,1,,590.9413342599996,None,None,590.9413342599996,None,,,,,,,,,,,,,,,,,,,,,,,,,,,,,,,,,,,,,,,,,,,,,,,,,,,,,45,001,0,24,500,500,2022_Nov_24_1120,Experiment,2021.1.4,360.37074943270096,
images\S6_M_H_02.png,images\S6_M_H_02_scrambled.png,6,happy,20,male,5,,512,off,1,0.5,0.75,0.5,0.938,3,511,1,1,1,0,0,0,0,5,,,,,,0,92,92,92,,,,,,,,,,,,,,,,,,,,,,,,,,,,,,,,,,,,,,,,,,,,,,,,,,,,,,,,,591.0609269999995,591.5632992999999,591.5632992999999,592.3186462000003,592.3186462000003,592.8184484000003,592.8184484000003,593.7598287999999,593.7598287999999,None,num_4,0.28603389999989304,593.7598287999999,591.0609269999995,happy,1,Happy,594.0625179199996,None,None,594.0625179199996,None,,,,,,,,,,,,,,,,,,,,,,,,,,,,,,,,,,,,,,,,,,,,,,,,,,,,,45,001,0,24,500,500,2022_Nov_24_1120,Experiment,2021.1.4,360.37074943270096,
images\S8_M_S_03.png,images\S8_M_S_03_scrambled.png,8,sad,-30,male,1,,108,on,2,0.5,0.75,0.5,0.945,3,107,1,1,1,2,2,32,128,161,,,,,,0,93,93,93,,,,,,,,,,,,,,,,,,,,,,,,,,,,,,,,,,,,,,,,,,,,,,,,,,,,,,,,,594.1735832000004,594.6790203,594.6790203,595.4343425999996,595.4343425999996,595.9397061,595.9397061,596.8894582000003,596.8894582000003,None,num_6,0.30858319999970263,596.8894582000003,None,sad,1,Sad,597.2171611999997,None,None,597.2171611999997,None,,,,,,,,,,,,,,,,,,,,,,,,,,,,,,,,,,,,,,,,,,,,,,,,,,,,,45,001,0,24,500,500,2022_Nov_24_1120,Experiment,2021.1.4,360.37074943270096,
images\S5_F_S_02.png,images\S5_F_S_02_scrambled.png,5,sad,-20,female,2,,449,on,2,0.5,0.75,0.5,0.785,3,448,2,1,1,2,2,32,128,162,,,,,,0,94,94,94,,,,,,,,,,,,,,,,,,,,,,,,,,,,,,,,,,,,,,,,,,,,,,,,,,,,,,,,,597.3309534,597.8335803999998,597.8335803999998,598.5889411999997,598.5889411999997,599.0943460999997,599.0943460999997,599.8830711999999,599.8830711999999,None,num_6,0.33859719999964,599.8830711999999,None,sad,1,Sad,600.2328475200001,None,None,600.2328475200001,None,,,,,,,,,,,,,,,,,,,,,,,,,,,,,,,,,,,,,,,,,,,,,,,,,,,,,45,001,0,24,500,500,2022_Nov_24_1120,Experiment,2021.1.4,360.37074943270096,
images\S7_F_H_01.png,images\S7_F_H_01_scrambled.png,7,happy,10,female,4,,157,off,1,0.5,0.75,0.5,0.938,3,156,1,1,1,0,0,0,0,4,,,,,,0,95,95,95,,,,,,,,,,,,,,,,,,,,,,,,,,,,,,,,,,,,,,,,,,,,,,,,,,,,,,,,,600.2800536000004,600.7826987999997,600.7826987999997,601.5324393000001,601.5324393000001,602.0350853,602.0350853,602.9764434999997,602.9764434999997,None,num_4,0.41353329999947164,602.9764434999997,None,happy,1,Happy,603.4069342799996,None,None,603.4069342799996,None,,,,,,,,,,,,,,,,,,,,,,,,,,,,,,,,,,,,,,,,,,,,,,,,,,,,,45,001,0,24,500,500,2022_Nov_24_1120,Experiment,2021.1.4,360.37074943270096,
images\S7_F_H_03.png,images\S7_F_H_03_scrambled.png,7,happy,30,female,6,,459,on,2,0.5,0.75,0.5,0.77,3,458,1,2,1,2,2,32,128,166,,,,,,0,96,96,96,,,,,,,,,,,,,,,,,,,,,,,,,,,,,,,,,,,,,,,,,,,,,,,,,,,,,,,,,603.5151703000001,604.0178121999998,604.0178121999998,604.7732168000002,604.7732168000002,605.2785691999998,605.2785691999998,606.0533812000003,606.0533812000003,None,num_4,0.44031009999980597,606.0533812000003,None,happy,1,Happy,606.5170305599995,None,None,606.5170305599995,None,,,,,,,,,,,,,,,,,,,,,,,,,,,,,,,,,,,,,,,,,,,,,,,,,,,,,45,001,0,24,500,500,2022_Nov_24_1120,Experiment,2021.1.4,360.37074943270096,
images\S2_M_H_03.png,images\S2_M_H_03_scrambled.png,2,happy,30,male,6,,249,off,1,0.5,0.75,0.5,0.794,3,248,1,1,2,0,0,0,0,6,,,,,,0,97,97,97,,,,,,,,,,,,,,,,,,,,,,,,,,,,,,,,,,,,,,,,,,,,,,,,,,,,,,,,,606.5836704000003,607.0891142,607.0891142,607.8444264,607.8444264,608.3498210999996,608.3498210999996,609.1440101999997,609.1440101999997,None,num_4,0.2943531000000803,609.1440101999997,None,happy,1,Happy,609.4663206199997,None,None,609.4663206199997,None,,,,,,,,,,,,,,,,,,,,,,,,,,,,,,,,,,,,,,,,,,,,,,,,,,,,,45,001,0,24,500,500,2022_Nov_24_1120,Experiment,2021.1.4,360.37074943270096,
images\S7_F_S_01.png,images\S7_F_S_01_scrambled.png,7,sad,-10,female,3,,520,off,1,0.5,0.75,0.5,0.923,3,519,2,1,1,0,0,0,0,3,,,,,,0,98,98,98,,,,,,,,,,,,,,,,,,,,,,,,,,,,,,,,,,,,,,,,,,,,,,,,,,,,,,,,,609.5188798999998,610.0187348999998,610.0187348999998,610.7740919999997,610.7740919999997,611.2767168999999,611.2767168999999,612.2041720999996,612.2041720999996,None,num_6,0.32144400000015594,612.2041720999996,None,sad,1,Sad,612.5401754200001,None,None,612.5401754200001,None,,,,,,,,,,,,,,,,,,,,,,,,,,,,,,,,,,,,,,,,,,,,,,,,,,,,,45,001,0,24,500,500,2022_Nov_24_1120,Experiment,2021.1.4,360.37074943270096,
images\blank.jpg,images\blank.jpg,none,none,none,none,0,,619,on,2,0.5,0.75,0.5,0.922,0,618,1,1,1,3,3,48,192,240,,,,,,0,99,99,99,,,,,,,,,,,,,,,,,,,,,,,,,,,,,,,,,,,,,,,,,,,,,,,,,,,,,,,,,612.6237815000004,613.1233419999999,613.1233419999999,613.8731209999996,613.8731209999996,614.3757263999996,614.3757263999996,615.2976863000004,615.2976863000004,615.2976863000004,None,,615.2976863000004,None,miss,1,,618.2995807599996,None,None,618.2995807599996,None,,,,,,,,,,,,,,,,,,,,,,,,,,,,,,,,,,,,,,,,,,,,,,,,,,,,,45,001,0,24,500,500,2022_Nov_24_1120,Experiment,2021.1.4,360.37074943270096,
images\S5_F_S_01.png,images\S5_F_S_01_scrambled.png,5,sad,-10,female,3,,268,off,1,0.5,0.75,0.5,0.792,3,267,1,1,1,0,0,0,0,3,,,,,,0,100,100,100,,,,,,,,,,,,,,,,,,,,,,,,,,,,,,,,,,,,,,,,,,,,,,,,,,,,,,,,,618.4219731000003,618.9215470999998,618.9215470999998,619.6713768999998,619.6713768999998,620.1711624999998,620.1711624999998,620.9653802000003,620.9653802000003,None,num_6,0.3203284999999596,620.9653802000003,618.4219731000003,sad,1,Sad,621.3152585999997,None,None,621.3152585999997,None,,,,,,,,,,,,,,,,,,,,,,,,,,,,,,,,,,,,,,,,,,,,,,,,,,,,,45,001,0,24,500,500,2022_Nov_24_1120,Experiment,2021.1.4,360.37074943270096,
images\S3_F_H_03.png,images\S3_F_H_03_scrambled.png,3,happy,30,female,6,,135,off,1,0.5,0.75,0.5,0.764,3,134,2,1,1,0,0,0,0,6,,,,,,0,101,101,101,,,,,,,,,,,,,,,,,,,,,,,,,,,,,,,,,,,,,,,,,,,,,,,,,,,,,,,,,621.3680336999996,621.8706650000004,621.8706650000004,622.6232811,622.6232811,623.1258193000003,623.1258193000003,623.8894713999998,623.8894713999998,None,num_4,0.34017560000029334,623.8894713999998,None,happy,1,Happy,624.23937362,None,None,624.23937362,None,,,,,,,,,,,,,,,,,,,,,,,,,,,,,,,,,,,,,,,,,,,,,,,,,,,,,45,001,0,24,500,500,2022_Nov_24_1120,Experiment,2021.1.4,360.37074943270096,
images\S8_M_S_01.png,images\S8_M_S_01_scrambled.png,8,sad,-10,male,3,,286,off,1,0.5,0.75,0.5,0.851,3,285,3,1,1,0,0,0,0,3,,,,,,0,102,102,102,,,,,,,,,,,,,,,,,,,,,,,,,,,,,,,,,,,,,,,,,,,,,,,,,,,,,,,,,624.3476625000003,624.8531960999999,624.8531960999999,625.6028605000001,625.6028605000001,626.1083296999996,626.1083296999996,626.9635818999996,626.9635818999996,None,num_6,0.2499924000003375,626.9635818999996,None,sad,1,Sad,627.2245678199996,None,None,627.2245678199996,None,,,,,,,,,,,,,,,,,,,,,,,,,,,,,,,,,,,,,,,,,,,,,,,,,,,,,45,001,0,24,500,500,2022_Nov_24_1120,Experiment,2021.1.4,360.37074943270096,
images\S8_M_S_03.png,images\S8_M_S_03_scrambled.png,8,sad,-30,male,1,,228,on,2,0.5,0.75,0.5,0.751,3,227,1,2,1,2,2,32,128,161,,,,,,0,103,103,103,,,,,,,,,,,,,,,,,,,,,,,,,,,,,,,,,,,,,,,,,,,,,,,,,,,,,,,,,627.2717647999998,627.774429,627.774429,628.5297105999998,628.5297105999998,629.0324848999999,629.0324848999999,629.7904597999996,629.7904597999996,None,num_6,0.31141870000010385,629.7904597999996,None,sad,1,Sad,630.1125879199998,None,None,630.1125879199998,None,,,,,,,,,,,,,,,,,,,,,,,,,,,,,,,,,,,,,,,,,,,,,,,,,,,,,45,001,0,24,500,500,2022_Nov_24_1120,Experiment,2021.1.4,360.37074943270096,
images\S5_F_S_02.png,images\S5_F_S_02_scrambled.png,5,sad,-20,female,2,,569,on,2,0.5,0.75,0.5,0.903,3,568,2,1,1,2,2,32,128,162,,,,,,0,104,104,104,,,,,,,,,,,,,,,,,,,,,,,,,,,,,,,,,,,,,,,,,,,,,,,,,,,,,,,,,630.1764319000004,630.6762713999997,630.6762713999997,631.4288801000002,631.4288801000002,631.9342618999999,631.9342618999999,632.8395352999996,632.8395352999996,None,num_6,0.24611989999993966,632.8395352999996,None,sad,1,Sad,633.0977326199999,None,None,633.0977326199999,None,,,,,,,,,,,,,,,,,,,,,,,,,,,,,,,,,,,,,,,,,,,,,,,,,,,,,45,001,0,24,500,500,2022_Nov_24_1120,Experiment,2021.1.4,360.37074943270096,
images\S8_M_S_03.png,images\S8_M_S_03_scrambled.png,8,sad,-30,male,1,,408,off,1,0.5,0.75,0.5,0.89,3,407,1,1,1,0,0,0,0,1,,,,,,0,105,105,105,,,,,,,,,,,,,,,,,,,,,,,,,,,,,,,,,,,,,,,,,,,,,,,,,,,,,,,,,633.1449638000004,633.6475958999999,633.6475958999999,634.4001624000002,634.4001624000002,634.9028848999997,634.9028848999997,635.7969667999996,635.7969667999996,None,num_6,0.27270120000048337,635.7969667999996,None,sad,1,Sad,636.0829328199997,None,None,636.0829328199997,None,,,,,,,,,,,,,,,,,,,,,,,,,,,,,,,,,,,,,,,,,,,,,,,,,,,,,45,001,0,24,500,500,2022_Nov_24_1120,Experiment,2021.1.4,360.37074943270096,
images\S2_M_H_02.png,images\S2_M_H_02_scrambled.png,2,happy,20,male,5,,248,off,1,0.5,0.75,0.5,0.779,3,247,2,1,1,0,0,0,0,5,,,,,,0,106,106,106,,,,,,,,,,,,,,,,,,,,,,,,,,,,,,,,,,,,,,,,,,,,,,,,,,,,,,,,,636.1884882000004,636.6883438000004,636.6883438000004,637.4436998000001,637.4436998000001,637.9462752999998,637.9462752999998,638.7322566000003,638.7322566000003,None,num_6,0.3374530999999479,638.7322566000003,None,sad,1,Happy,639.0792520600003,None,None,639.0792520600003,None,,,,,,,,,,,,,,,,,,,,,,,,,,,,,,,,,,,,,,,,,,,,,,,,,,,,,45,001,0,24,500,500,2022_Nov_24_1120,Experiment,2021.1.4,360.37074943270096,
images\S7_F_S_02.png,images\S7_F_S_02_scrambled.png,7,sad,-20,female,2,,341,on,2,0.5,0.75,0.5,0.886,3,340,1,1,1,2,2,32,128,162,,,,,,0,107,107,107,,,,,,,,,,,,,,,,,,,,,,,,,,,,,,,,,,,,,,,,,,,,,,,,,,,,,,,,,639.1264798000002,639.6290891999997,639.6290891999997,640.3816747000001,640.3816747000001,640.8814756000002,640.8814756000002,641.7701158999998,641.7701158999998,None,num_6,0.3235905999999886,641.7701158999998,None,sad,1,Sad,642.1116487199996,None,None,642.1116487199996,None,,,,,,,,,,,,,,,,,,,,,,,,,,,,,,,,,,,,,,,,,,,,,,,,,,,,,45,001,0,24,500,500,2022_Nov_24_1120,Experiment,2021.1.4,360.37074943270096,
images\S2_M_S_02.png,images\S2_M_S_02_scrambled.png,2,sad,-20,male,2,,371,off,1,0.5,0.75,0.5,0.819,3,370,1,1,2,0,0,0,0,2,,,,,,0,108,108,108,,,,,,,,,,,,,,,,,,,,,,,,,,,,,,,,,,,,,,,,,,,,,,,,,,,,,,,,,642.1560889000002,642.6587708999996,642.6587708999996,643.4084880999999,643.4084880999999,643.9139347999999,643.9139347999999,644.7358559000004,644.7358559000004,None,num_6,0.28635709999980463,644.7358559000004,None,sad,1,Sad,645.0357280199995,None,None,645.0357280199995,None,,,,,,,,,,,,,,,,,,,,,,,,,,,,,,,,,,,,,,,,,,,,,,,,,,,,,45,001,0,24,500,500,2022_Nov_24_1120,Experiment,2021.1.4,360.37074943270096,
images\S8_M_H_02.png,images\S8_M_H_02_scrambled.png,8,happy,20,male,5,,284,off,1,0.5,0.75,0.5,0.887,3,283,2,1,1,0,0,0,0,5,,,,,,0,109,109,109,,,,,,,,,,,,,,,,,,,,,,,,,,,,,,,,,,,,,,,,,,,,,,,,,,,,,,,,,645.0829801,645.5884562000001,645.5884562000001,646.3409228,646.3409228,646.8435969000002,646.8435969000002,647.7378319,647.7378319,None,num_6,0.5958533000002717,647.7378319,None,sad,1,Happy,648.3458449399997,None,None,648.3458449399997,None,,,,,,,,,,,,,,,,,,,,,,,,,,,,,,,,,,,,,,,,,,,,,,,,,,,,,45,001,0,24,500,500,2022_Nov_24_1120,Experiment,2021.1.4,360.37074943270096,
images\S2_M_H_02.png,images\S2_M_H_02_scrambled.png,2,happy,20,male,5,,428,on,2,0.5,0.75,0.5,0.837,3,427,1,1,2,2,2,32,128,165,,,,,,0,110,110,110,,,,,,,,,,,,,,,,,,,,,,,,,,,,,,,,,,,,,,,,,,,,,,,,,,,,,,,,,648.4125021999998,648.9179881,648.9179881,649.6676819000004,649.6676819000004,650.1703137000004,650.1703137000004,651.0117407999996,651.0117407999996,None,num_4,0.7698102999993353,651.0117407999996,None,happy,1,Happy,651.7920312200002,None,None,651.7920312200002,None,,,,,,,,,,,,,,,,,,,,,,,,,,,,,,,,,,,,,,,,,,,,,,,,,,,,,45,001,0,24,500,500,2022_Nov_24_1120,Experiment,2021.1.4,360.37074943270096,
images\S6_M_H_02.png,images\S6_M_H_02_scrambled.png,6,happy,20,male,5,,452,on,2,0.5,0.75,0.5,0.923,3,451,2,1,3,2,2,32,128,165,,,,,,0,111,111,111,,,,,,,,,,,,,,,,,,,,,,,,,,,,,,,,,,,,,,,,,,,,,,,,,,,,,,,,,651.8392399000004,652.3446371999999,652.3446371999999,653.0971902000001,653.0971902000001,653.5998069999996,653.5998069999996,654.5273716000002,654.5273716000002,None,num_4,0.23878989999957412,654.5273716000002,None,happy,1,Happy,654.7910969399996,None,None,654.7910969399996,None,,,,,,,,,,,,,,,,,,,,,,,,,,,,,,,,,,,,,,,,,,,,,,,,,,,,,45,001,0,24,500,500,2022_Nov_24_1120,Experiment,2021.1.4,360.37074943270096,
images\blank.jpg,images\blank.jpg,none,none,none,none,0,,643,on,2,0.5,0.75,0.5,0.929,0,642,3,1,1,3,3,48,192,240,,,,,,0,112,112,112,,,,,,,,,,,,,,,,,,,,,,,,,,,,,,,,,,,,,,,,,,,,,,,,,,,,,,,,,654.8801788000001,655.3826413999996,655.3826413999996,656.1379514999999,656.1379514999999,656.6405549000001,656.6405549000001,657.5708371000001,657.5708371000001,657.5708371000001,None,,657.5708371000001,None,miss,1,,660.5754905600002,None,None,660.5754905600002,None,,,,,,,,,,,,,,,,,,,,,,,,,,,,,,,,,,,,,,,,,,,,,,,,,,,,,45,001,0,24,500,500,2022_Nov_24_1120,Experiment,2021.1.4,360.37074943270096,
images\S5_F_S_03.png,images\S5_F_S_03_scrambled.png,5,sad,-30,female,1,,450,on,2,0.5,0.75,0.5,0.779,3,449,4,1,1,2,2,32,128,161,,,,,,0,113,113,113,,,,,,,,,,,,,,,,,,,,,,,,,,,,,,,,,,,,,,,,,,,,,,,,,,,,,,,,,660.6977739000004,661.2003323999998,661.2003323999998,661.9527992000003,661.9527992000003,662.4554907000002,662.4554907000002,663.2413161000004,663.2413161000004,None,num_6,0.3334180000001652,663.2413161000004,660.6977739000004,sad,1,Sad,663.5941982599998,None,None,663.5941982599998,None,,,,,,,,,,,,,,,,,,,,,,,,,,,,,,,,,,,,,,,,,,,,,,,,,,,,,45,001,0,24,500,500,2022_Nov_24_1120,Experiment,2021.1.4,360.37074943270096,
images\S7_F_S_02.png,images\S7_F_S_02_scrambled.png,7,sad,-20,female,2,,401,off,1,0.5,0.75,0.5,0.874,3,400,1,1,1,0,0,0,0,2,,,,,,0,114,114,114,,,,,,,,,,,,,,,,,,,,,,,,,,,,,,,,,,,,,,,,,,,,,,,,,,,,,,,,,663.6606081,664.1660577000002,664.1660577000002,664.9213599000004,664.9213599000004,665.4239871,665.4239871,666.3014801999998,666.3014801999998,None,num_6,0.2802704999994603,666.3014801999998,None,sad,1,Sad,666.5958012199998,None,None,666.5958012199998,None,,,,,,,,,,,,,,,,,,,,,,,,,,,,,,,,,,,,,,,,,,,,,,,,,,,,,45,001,0,24,500,500,2022_Nov_24_1120,Experiment,2021.1.4,360.37074943270096,
images\S9_F_H_03.png,images\S9_F_H_03_scrambled.png,9,happy,30,female,6,,351,on,2,0.5,0.75,0.5,0.899,3,350,1,1,1,2,2,32,128,166,,,,,,0,115,115,115,,,,,,,,,,,,,,,,,,,,,,,,,,,,,,,,,,,,,,,,,,,,,,,,,,,,,,,,,666.7068837999996,667.2123035000004,667.2123035000004,667.9648506000003,667.9648506000003,668.4703196999999,668.4703196999999,669.3727546999999,669.3727546999999,None,num_4,0.31307620000006864,669.3727546999999,None,happy,1,Happy,669.7170777000001,None,None,669.7170777000001,None,,,,,,,,,,,,,,,,,,,,,,,,,,,,,,,,,,,,,,,,,,,,,,,,,,,,,45,001,0,24,500,500,2022_Nov_24_1120,Experiment,2021.1.4,360.37074943270096,
images\S3_F_S_01.png,images\S3_F_S_01_scrambled.png,3,sad,-10,female,3,,256,off,1,0.5,0.75,0.5,0.909,3,255,1,1,1,0,0,0,0,3,,,,,,0,116,116,116,,,,,,,,,,,,,,,,,,,,,,,,,,,,,,,,,,,,,,,,,,,,,,,,,,,,,,,,,669.7698394999998,670.2696784999998,670.2696784999998,671.0251292000003,671.0251292000003,671.5304883999997,671.5304883999997,672.4412376,672.4412376,None,num_6,0.30851480000001175,672.4412376,None,sad,1,Sad,672.76060812,None,None,672.76060812,None,,,,,,,,,,,,,,,,,,,,,,,,,,,,,,,,,,,,,,,,,,,,,,,,,,,,,45,001,0,24,500,500,2022_Nov_24_1120,Experiment,2021.1.4,360.37074943270096,
images\S6_M_S_01.png,images\S6_M_S_01_scrambled.png,6,sad,-10,male,3,,334,on,2,0.5,0.75,0.5,0.922,3,333,1,1,2,2,2,32,128,163,,,,,,0,117,117,117,,,,,,,,,,,,,,,,,,,,,,,,,,,,,,,,,,,,,,,,,,,,,,,,,,,,,,,,,672.8077918999998,673.3105050000004,673.3105050000004,674.0601968000001,674.0601968000001,674.5628026000004,674.5628026000004,675.4903944999996,675.4903944999996,None,num_6,0.28335669999978563,675.4903944999996,None,sad,1,Sad,675.7846521199998,None,None,675.7846521199998,None,,,,,,,,,,,,,,,,,,,,,,,,,,,,,,,,,,,,,,,,,,,,,,,,,,,,,45,001,0,24,500,500,2022_Nov_24_1120,Experiment,2021.1.4,360.37074943270096,
images\S6_M_S_03.png,images\S6_M_S_03_scrambled.png,6,sad,-30,male,1,,576,on,2,0.5,0.75,0.5,0.783,3,575,2,2,1,2,2,32,128,161,,,,,,0,118,118,118,,,,,,,,,,,,,,,,,,,,,,,,,,,,,,,,,,,,,,,,,,,,,,,,,,,,,,,,,675.8346370999998,676.3344808000002,676.3344808000002,677.0842824000001,677.0842824000001,677.5898040000002,677.5898040000002,678.3755191,678.3755191,None,num_6,0.36619819999941683,678.3755191,None,sad,1,Sad,678.7671080200001,None,None,678.7671080200001,None,,,,,,,,,,,,,,,,,,,,,,,,,,,,,,,,,,,,,,,,,,,,,,,,,,,,,45,001,0,24,500,500,2022_Nov_24_1120,Experiment,2021.1.4,360.37074943270096,
images\S10_M_H_03.png,images\S10_M_H_03_scrambled.png,10,happy,30,male,6,,237,on,2,0.5,0.75,0.5,0.804,3,236,3,1,1,2,2,32,128,166,,,,,,0,119,119,119,,,,,,,,,,,,,,,,,,,,,,,,,,,,,,,,,,,,,,,,,,,,,,,,,,,,,,,,,678.8198395,679.3224805,679.3224805,680.0751412999998,680.0751412999998,680.5776249,680.5776249,681.3857737999997,681.3857737999997,None,num_4,0.3799218000003748,681.3857737999997,None,happy,1,Happy,681.7772826199997,None,None,681.7772826199997,None,,,,,,,,,,,,,,,,,,,,,,,,,,,,,,,,,,,,,,,,,,,,,,,,,,,,,45,001,0,24,500,500,2022_Nov_24_1120,Experiment,2021.1.4,360.37074943270096,
images\S3_F_S_02.png,images\S3_F_S_02_scrambled.png,3,sad,-20,female,2,,137,off,1,0.5,0.75,0.5,0.917,3,136,1,1,1,0,0,0,0,2,,,,,,0,120,120,120,,,,,,,,,,,,,,,,,,,,,,,,,,,,,,,,,,,,,,,,,,,,,,,,,,,,,,,,,681.8244658000003,682.3270970000003,682.3270970000003,683.0796394999998,683.0796394999998,683.5851664000002,683.5851664000002,684.5069943999997,684.5069943999997,None,num_6,0.40280799999982264,684.5069943999997,None,sad,1,Sad,684.9207700200003,None,None,684.9207700200003,None,,,,,,,,,,,,,,,,,,,,,,,,,,,,,,,,,,,,,,,,,,,,,,,,,,,,,45,001,0,24,500,500,2022_Nov_24_1120,Experiment,2021.1.4,360.37074943270096,
images\S8_M_S_01.png,images\S8_M_S_01_scrambled.png,8,sad,-10,male,3,,526,off,1,0.5,0.75,0.5,0.844,3,525,2,1,1,0,0,0,0,3,,,,,,0,121,121,121,,,,,,,,,,,,,,,,,,,,,,,,,,,,,,,,,,,,,,,,,,,,,,,,,,,,,,,,,684.9846070000003,685.4901258,685.4901258,686.2454257999998,686.2454257999998,686.7507895999997,686.7507895999997,687.6005519999999,687.6005519999999,None,num_6,0.29334670000025653,687.6005519999999,None,sad,1,Sad,687.9171892799998,None,None,687.9171892799998,None,,,,,,,,,,,,,,,,,,,,,,,,,,,,,,,,,,,,,,,,,,,,,,,,,,,,,45,001,0,24,500,500,2022_Nov_24_1120,Experiment,2021.1.4,360.37074943270096,
images\S3_F_S_02.png,images\S3_F_S_02_scrambled.png,3,sad,-20,female,2,,77,on,2,0.5,0.75,0.5,0.781,3,76,1,1,1,2,2,32,128,162,,,,,,0,122,122,122,,,,,,,,,,,,,,,,,,,,,,,,,,,,,,,,,,,,,,,,,,,,,,,,,,,,,,,,,687.9698017999999,688.4752994,688.4752994,689.2305815999998,689.2305815999998,689.7359605000001,689.7359605000001,690.5218257999995,690.5218257999995,None,num_6,0.31593729999985953,690.5218257999995,None,sad,1,Sad,690.8522610199997,None,None,690.8522610199997,None,,,,,,,,,,,,,,,,,,,,,,,,,,,,,,,,,,,,,,,,,,,,,,,,,,,,,45,001,0,24,500,500,2022_Nov_24_1120,Experiment,2021.1.4,360.37074943270096,
images\S8_M_H_03.png,images\S8_M_H_03_scrambled.png,8,happy,30,male,6,,45,off,1,0.5,0.75,0.5,0.842,3,44,1,1,1,0,0,0,0,6,,,,,,0,123,123,123,,,,,,,,,,,,,,,,,,,,,,,,,,,,,,,,,,,,,,,,,,,,,,,,,,,,,,,,,690.8994634000001,691.4021088,691.4021088,692.1518594999998,692.1518594999998,692.6546030999998,692.6546030999998,693.5014751999997,693.5014751999997,None,num_4,0.34437230000003183,693.5014751999997,None,happy,1,Happy,693.87077414,None,None,693.87077414,None,,,,,,,,,,,,,,,,,,,,,,,,,,,,,,,,,,,,,,,,,,,,,,,,,,,,,45,001,0,24,500,500,2022_Nov_24_1120,Experiment,2021.1.4,360.37074943270096,
images\S8_M_S_02.png,images\S8_M_S_02_scrambled.png,8,sad,-20,male,2,,287,off,1,0.5,0.75,0.5,0.854,3,286,2,2,1,0,0,0,0,2,,,,,,0,124,124,124,,,,,,,,,,,,,,,,,,,,,,,,,,,,,,,,,,,,,,,,,,,,,,,,,,,,,,,,,693.9235333999995,694.4261901,694.4261901,695.1786947999999,695.1786947999999,695.6813641999997,695.6813641999997,696.5395165999998,696.5395165999998,None,num_6,0.330323899999712,696.5395165999998,None,sad,1,Sad,696.8837316199996,None,None,696.8837316199996,None,,,,,,,,,,,,,,,,,,,,,,,,,,,,,,,,,,,,,,,,,,,,,,,,,,,,,45,001,0,24,500,500,2022_Nov_24_1120,Experiment,2021.1.4,360.37074943270096,
images\S6_M_S_02.png,images\S6_M_S_02_scrambled.png,6,sad,-20,male,2,,215,on,2,0.5,0.75,0.5,0.844,3,214,1,1,2,2,2,32,128,162,,,,,,0,125,125,125,,,,,,,,,,,,,,,,,,,,,,,,,,,,,,,,,,,,,,,,,,,,,,,,,,,,,,,,,696.9670501999999,697.4697661,697.4697661,698.2194600000003,698.2194600000003,698.7220858999999,698.7220858999999,699.5718239999997,699.5718239999997,None,num_6,0.30608399999982794,699.5718239999997,None,sad,1,Sad,699.8911563199998,None,None,699.8911563199998,None,,,,,,,,,,,,,,,,,,,,,,,,,,,,,,,,,,,,,,,,,,,,,,,,,,,,,45,001,0,24,500,500,2022_Nov_24_1120,Experiment,2021.1.4,360.37074943270096,
images\S7_F_S_01.png,images\S7_F_S_01_scrambled.png,7,sad,-10,female,3,,340,on,2,0.5,0.75,0.5,0.923,3,339,2,1,1,2,2,32,128,163,,,,,,0,126,126,126,,,,,,,,,,,,,,,,,,,,,,,,,,,,,,,,,,,,,,,,,,,,,,,,,,,,,,,,,699.9383590999996,700.4381981999995,700.4381981999995,701.1879701999997,701.1879701999997,701.6878528999996,701.6878528999996,702.6153438000001,702.6153438000001,None,num_6,0.43048970000018016,702.6153438000001,None,sad,1,Sad,703.0762828999996,None,None,703.0762828999996,None,,,,,,,,,,,,,,,,,,,,,,,,,,,,,,,,,,,,,,,,,,,,,,,,,,,,,45,001,0,24,500,500,2022_Nov_24_1120,Experiment,2021.1.4,360.37074943270096,
images\S10_M_H_02.png,images\S10_M_H_02_scrambled.png,10,happy,20,male,5,,176,off,1,0.5,0.75,0.5,0.765,3,175,1,1,1,0,0,0,0,5,,,,,,0,127,127,127,,,,,,,,,,,,,,,,,,,,,,,,,,,,,,,,,,,,,,,,,,,,,,,,,,,,,,,,,703.1290435000001,703.6345198999998,703.6345198999998,704.3898327999996,704.3898327999996,704.8951987999999,704.8951987999999,705.6644938999998,705.6644938999998,None,num_4,0.4617915999997422,705.6644938999998,None,happy,1,Happy,706.1532218399994,None,None,706.1532218399994,None,,,,,,,,,,,,,,,,,,,,,,,,,,,,,,,,,,,,,,,,,,,,,,,,,,,,,45,001,0,24,500,500,2022_Nov_24_1120,Experiment,2021.1.4,360.37074943270096,
images\blank.jpg,images\blank.jpg,none,none,none,none,0,,606,on,2,0.5,0.75,0.5,0.84,0,605,1,1,1,3,3,48,192,240,,,,,,0,128,128,128,,,,,,,,,,,,,,,,,,,,,,,,,,,,,,,,,,,,,,,,,,,,,,,,,,,,,,,,,706.2422516999995,706.7445914999998,706.7445914999998,707.4943608000003,707.4943608000003,707.99982,707.99982,708.8440702999997,708.8440702999997,708.8440702999997,None,,708.8440702999997,None,miss,1,,711.8486036800002,None,None,711.8486036800002,None,,,,,,,,,,,,,,,,,,,,,,,,,,,,,,,,,,,,,,,,,,,,,,,,,,,,,45,001,0,24,500,500,2022_Nov_24_1120,Experiment,2021.1.4,360.37074943270096,
images\S8_M_H_01.png,images\S8_M_H_01_scrambled.png,8,happy,10,male,4,,583,on,2,0.5,0.75,0.5,0.857,3,582,2,1,1,2,2,32,128,164,,,,,,0,129,129,129,,,,,,,,,,,,,,,,,,,,,,,,,,,,,,,,,,,,,,,,,,,,,,,,,,,,,,,,,711.9627386000002,712.4678759999997,712.4678759999997,713.2203958999999,713.2203958999999,713.7230350999998,713.7230350999998,714.5838567000001,714.5838567000001,None,num_6,0.2859862000004796,714.5838567000001,711.9627386000002,sad,1,Happy,714.8781997600004,None,None,714.8781997600004,None,,,,,,,,,,,,,,,,,,,,,,,,,,,,,,,,,,,,,,,,,,,,,,,,,,,,,45,001,0,24,500,500,2022_Nov_24_1120,Experiment,2021.1.4,360.37074943270096,
images\S6_M_S_02.png,images\S6_M_S_02_scrambled.png,6,sad,-20,male,2,,335,on,2,0.5,0.75,0.5,0.918,3,334,3,1,1,2,2,32,128,162,,,,,,0,130,130,130,,,,,,,,,,,,,,,,,,,,,,,,,,,,,,,,,,,,,,,,,,,,,,,,,,,,,,,,,714.9254197999999,715.4308302999998,715.4308302999998,716.1805857999998,716.1805857999998,716.6860936000003,716.6860936000003,717.6079571999999,717.6079571999999,None,num_6,0.2697436000007656,717.6079571999999,None,sad,1,Sad,717.8939400999998,None,space,717.8939400999998,None,41.37539379999998,,,,,,,,,,,,,,,,,,,,,,,,,,,,,,,,,,,,,,,,,,,,,,,,,,,,45,001,0,24,500,500,2022_Nov_24_1120,Experiment,2021.1.4,360.37074943270096,
images\S4_M_H_01.png,images\S4_M_H_01_scrambled.png,4,happy,10,male,4,,19,off,1,0.5,0.75,0.5,0.934,3,18,1,1,1,0,0,0,0,4,,,,,,0,131,131,131,,,,,,,,,,,,,,,,,,,,,,,,,,,,,,,,,,,,,,,,,,,,,,,,,,,,,,,,,759.3256164000004,759.8311185000002,759.8311185000002,760.5836430999998,760.5836430999998,761.0862899000003,761.0862899000003,762.0249842000003,762.0249842000003,None,num_6,0.4687647000000652,762.0249842000003,None,sad,1,Happy,762.5080309200001,None,None,762.5080309200001,None,,,,,,,,,,,,,,,,,,,,,,,,,,,,,,,,,,,,,,,,,,,,,,,,,,,,,45,001,0,24,500,500,2022_Nov_24_1120,Experiment,2021.1.4,360.37074943270096,
images\S4_M_S_02.png,images\S4_M_S_02_scrambled.png,4,sad,-20,male,2,,143,off,1,0.5,0.75,0.5,0.898,3,142,2,2,1,0,0,0,0,2,,,,,,0,132,132,132,,,,,,,,,,,,,,,,,,,,,,,,,,,,,,,,,,,,,,,,,,,,,,,,,,,,,,,,,762.5552454999997,763.0578458,763.0578458,763.8105089000001,763.8105089000001,764.3158685999997,764.3158685999997,765.2183619999996,765.2183619999996,None,num_6,0.32361279999986436,765.2183619999996,None,sad,1,Sad,765.5516837200001,None,None,765.5516837200001,None,,,,,,,,,,,,,,,,,,,,,,,,,,,,,,,,,,,,,,,,,,,,,,,,,,,,,45,001,0,24,500,500,2022_Nov_24_1120,Experiment,2021.1.4,360.37074943270096,
images\blank.jpg,images\blank.jpg,none,none,none,none,0,,637,on,2,0.5,0.75,0.5,0.851,0,636,1,1,1,3,3,48,192,240,,,,,,0,133,133,133,,,,,,,,,,,,,,,,,,,,,,,,,,,,,,,,,,,,,,,,,,,,,,,,,,,,,,,,,765.6350730000004,766.1403296999997,766.1403296999997,766.8956232999999,766.8956232999999,767.4010398,767.4010398,768.2535556000003,768.2535556000003,768.2535556000003,None,,768.2535556000003,None,miss,1,,771.2525920799997,None,None,771.2525920799997,None,,,,,,,,,,,,,,,,,,,,,,,,,,,,,,,,,,,,,,,,,,,,,,,,,,,,,45,001,0,24,500,500,2022_Nov_24_1120,Experiment,2021.1.4,360.37074943270096,
images\S5_F_H_03.png,images\S5_F_H_03_scrambled.png,5,happy,30,female,6,,27,off,1,0.5,0.75,0.5,0.825,3,26,1,1,1,0,0,0,0,6,,,,,,0,134,134,134,,,,,,,,,,,,,,,,,,,,,,,,,,,,,,,,,,,,,,,,,,,,,,,,,,,,,,,,,771.3665934,771.8690796999999,771.8690796999999,772.6188193999997,772.6188193999997,773.1214751999996,773.1214751999996,773.9489949999997,773.9489949999997,None,num_4,0.33662940000067465,773.9489949999997,771.3665934,happy,1,Happy,774.2961055200002,None,None,774.2961055200002,None,,,,,,,,,,,,,,,,,,,,,,,,,,,,,,,,,,,,,,,,,,,,,,,,,,,,,45,001,0,24,500,500,2022_Nov_24_1120,Experiment,2021.1.4,360.37074943270096,
images\S10_M_H_01.png,images\S10_M_H_01_scrambled.png,10,happy,10,male,4,,595,on,2,0.5,0.75,0.5,0.92,3,594,1,1,1,2,2,32,128,164,,,,,,0,135,135,135,,,,,,,,,,,,,,,,,,,,,,,,,,,,,,,,,,,,,,,,,,,,,,,,,,,,,,,,,774.3433042999995,774.8487229000002,774.8487229000002,775.5984944000002,775.5984944000002,776.1011239,776.1011239,777.0230541000001,777.0230541000001,None,num_4,0.36674330000005284,777.0230541000001,None,happy,1,Happy,777.4034685200003,None,None,777.4034685200003,None,,,,,,,,,,,,,,,,,,,,,,,,,,,,,,,,,,,,,,,,,,,,,,,,,,,,,45,001,0,24,500,500,2022_Nov_24_1120,Experiment,2021.1.4,360.37074943270096,
images\blank.jpg,images\blank.jpg,none,none,none,none,0,,620,on,2,0.5,0.75,0.5,0.873,0,619,2,1,1,3,3,48,192,240,,,,,,0,136,136,136,,,,,,,,,,,,,,,,,,,,,,,,,,,,,,,,,,,,,,,,,,,,,,,,,,,,,,,,,777.4869799999997,777.9866232000004,777.9866232000004,778.7419867999997,778.7419867999997,779.2445717,779.2445717,780.1192964000002,780.1192964000002,780.1192964000002,None,,780.1192964000002,None,miss,1,,783.1211748800004,None,None,783.1211748800004,None,,,,,,,,,,,,,,,,,,,,,,,,,,,,,,,,,,,,,,,,,,,,,,,,,,,,,45,001,0,24,500,500,2022_Nov_24_1120,Experiment,2021.1.4,360.37074943270096,
images\S6_M_H_02.png,images\S6_M_H_02_scrambled.png,6,happy,20,male,5,,572,on,2,0.5,0.75,0.5,0.794,3,571,3,1,1,2,2,32,128,165,,,,,,0,137,137,137,,,,,,,,,,,,,,,,,,,,,,,,,,,,,,,,,,,,,,,,,,,,,,,,,,,,,,,,,783.2352800999997,783.7404893000003,783.7404893000003,784.4901970000001,784.4901970000001,784.9927967000003,784.9927967000003,785.7925757000003,785.7925757000003,None,num_4,0.34168509999926755,785.7925757000003,783.2352800999997,happy,1,Happy,786.15911604,None,None,786.15911604,None,,,,,,,,,,,,,,,,,,,,,,,,,,,,,,,,,,,,,,,,,,,,,,,,,,,,,45,001,0,24,500,500,2022_Nov_24_1120,Experiment,2021.1.4,360.37074943270096,
images\S4_M_S_02.png,images\S4_M_S_02_scrambled.png,4,sad,-20,male,2,,383,off,1,0.5,0.75,0.5,0.783,3,382,1,1,1,0,0,0,0,2,,,,,,0,138,138,138,,,,,,,,,,,,,,,,,,,,,,,,,,,,,,,,,,,,,,,,,,,,,,,,,,,,,,,,,786.2118850999996,786.7172940999999,786.7172940999999,787.4699148999998,787.4699148999998,787.9696930999999,787.9696930999999,788.7556174000001,788.7556174000001,None,num_6,0.2982364999998026,788.7556174000001,None,sad,1,Sad,789.0637833199997,None,None,789.0637833199997,None,,,,,,,,,,,,,,,,,,,,,,,,,,,,,,,,,,,,,,,,,,,,,,,,,,,,,45,001,0,24,500,500,2022_Nov_24_1120,Experiment,2021.1.4,360.37074943270096,
images\S3_F_H_03.png,images\S3_F_H_03_scrambled.png,3,happy,30,female,6,,255,off,1,0.5,0.75,0.5,0.846,3,254,2,1,1,0,0,0,0,6,,,,,,0,139,139,139,,,,,,,,,,,,,,,,,,,,,,,,,,,,,,,,,,,,,,,,,,,,,,,,,,,,,,,,,789.1109815,789.6136059,789.6136059,790.3633708999996,790.3633708999996,790.8688315999998,790.8688315999998,791.7157593000002,791.7157593000002,None,num_4,0.38596880000022793,791.7157593000002,None,happy,1,Happy,792.1295033199998,None,None,792.1295033199998,None,,,,,,,,,,,,,,,,,,,,,,,,,,,,,,,,,,,,,,,,,,,,,,,,,,,,,45,001,0,24,500,500,2022_Nov_24_1120,Experiment,2021.1.4,360.37074943270096,
