image_face,image_scram,avatar,emo,emotion,sex,trigeeg,dac,trial_no,NMES,stimtime,baseline,iti,face,scr_face,resp_time,index,count_NMES,count_avatar,count_emotion,dac1,dac2,dac1_output,dac2_output,trigs_out,nmes,practice_trials.thisRepN,practice_trials.thisTrialN,practice_trials.thisN,practice_trials.thisIndex,real_trials.thisRepN,real_trials.thisTrialN,real_trials.thisN,real_trials.thisIndex,trials.thisRepN,trials.thisTrialN,trials.thisN,trials.thisIndex,position,Welcome.started,Welcome.stopped,Welcome_resp.keys,Welcome_resp.rt,text_2.started,text_2.stopped,form_2.index,form_2.itemText,form_2.type,form_2.response,form_2.rt,key_resp_4.keys,key_resp_4.rt,key_resp_4.started,key_resp_4.stopped,instructions.started,instructions.stopped,end_instr.keys,end_instr.rt,instructions_2.started,instructions_2.stopped,end_instr_2.keys,end_instr_2.rt,end_instr_2.started,end_instr_2.stopped,instruct_keypress.started,instruct_keypress.stopped,end_instruct_keypress.keys,end_instruct_keypress.rt,start_practice.started,start_practice.stopped,start_practice_resp.keys,start_practice_resp.rt,prac_baseline.started,prac_baseline.stopped,prac_iti.started,prac_iti.stopped,prac_stimulus.started,prac_stimulus.stopped,prac_scram_stim.started,prac_scram_stim.stopped,prac_stimulus_resp.started,prac_stimulus_resp.stopped,prac_resp.keys,prac_resp.started,prac_resp.stopped,prac_resp.rt,transition_to_real.started,transition_to_real.stopped,end_transition_to_real.keys,end_transition_to_real.rt,fixation_cross.started,fixation_cross.stopped,tr_iti.started,tr_iti.stopped,stimulus.started,stimulus.stopped,scram_stim.started,scram_stim.stopped,response_txt.started,response_txt.stopped,response.keys,response.rt,response.started,response.stopped,participant_Resp,grouping,corAnswer,break_msg.started,break_msg.stopped,end_break.keys,end_break.started,end_break.stopped,end_break.rt,text.started,text.stopped,key_resp_3.keys,key_resp_3.rt,key_resp_3.started,key_resp_3.stopped,fix_cross_comf.started,fix_cross_comf.stopped,stimulation_comf.started,stimulation_comf.stopped,rate_instr.started,rate_instr.stopped,comfort_rating.response,comfort_rating.rt,comfort_rating.started,comfort_rating.stopped,resp_form.keys,resp_form.rt,resp_form.started,resp_form.stopped,survey_instructions.started,survey_instructions.stopped,key_resp_2.keys,key_resp_2.rt,key_resp_2.started,key_resp_2.stopped,form.index,form.itemText,form.type,form.response,form.rt,key_resp.keys,key_resp.rt,key_resp.started,key_resp.stopped,text_3.started,text_3.stopped,rate_smile.response,rate_smile.rt,rate_smile.started,rate_smile.stopped,key_resp_5.keys,key_resp_5.rt,key_resp_5.started,key_resp_5.stopped,end_msg.started,end_msg.stopped,end_resp.keys,end_resp.rt,end_resp.started,end_resp.stopped,participant,session,gender,age,LEFT,RIGHT,date,expName,psychopyVersion,frameRate,
,,,,,,,,,,,,,,,,,,,,,,,,,,,,,,,,,,,,,,S-H,45.469244299999446,None,num_add,2.88659269999971,,,,,,,,,,,,,,,,,,,,,,,,,,,,,,,,,,,,,,,,,,,,,,,,,,,,,,,,,,,,,,,,,,,,,,,,,,,,,,,,,,,,,,,,,,,,,,,,,,,,,,,,,,,,,,,,,,,,,,,,,,46,001,0,19,390,450,2022_Dec_08_1058,Experiment,2021.1.4,359.8507339244707,
,,,,,,,,,,,,,,,,,,,,,,,,,,,,,,,,,,,,,,,,,,,48.36725849999948,50.40551659999983,1,"This scale consistes of a number of words that describe different feelings and emotion. Read each item and then list the number from the scale below each word. Indicate (by clicking) to what extend you feel this way RIGHT NOW, that is, AT THE PRESENT MOMENT.",description,,,,,,,,,,,,,,,,,,,,,,,,,,,,,,,,,,,,,,,,,,,,,,,,,,,,,,,,,,,,,,,,,,,,,,,,,,,,,,,,,,,,,,,,,,,,,,,,,,,,,,,,,,,,,,,,,,,,,46,001,0,19,390,450,2022_Dec_08_1058,Experiment,2021.1.4,359.8507339244707,
,,,,,,,,,,,,,,,,,,,,,,,,,,,,,,,,,,,,,,,,,,,,,2,Interested,rating,4.0,28.86599110000043,,,,,,,,,,,,,,,,,,,,,,,,,,,,,,,,,,,,,,,,,,,,,,,,,,,,,,,,,,,,,,,,,,,,,,,,,,,,,,,,,,,,,,,,,,,,,,,,,,,,,,,,,,,,,,,,,,,46,001,0,19,390,450,2022_Dec_08_1058,Experiment,2021.1.4,359.8507339244707,
,,,,,,,,,,,,,,,,,,,,,,,,,,,,,,,,,,,,,,,,,,,,,3,Distressed,rating,3.0,32.964987199999996,,,,,,,,,,,,,,,,,,,,,,,,,,,,,,,,,,,,,,,,,,,,,,,,,,,,,,,,,,,,,,,,,,,,,,,,,,,,,,,,,,,,,,,,,,,,,,,,,,,,,,,,,,,,,,,,,,,46,001,0,19,390,450,2022_Dec_08_1058,Experiment,2021.1.4,359.8507339244707,
,,,,,,,,,,,,,,,,,,,,,,,,,,,,,,,,,,,,,,,,,,,,,4,Excited,rating,3.0,34.920232899999974,,,,,,,,,,,,,,,,,,,,,,,,,,,,,,,,,,,,,,,,,,,,,,,,,,,,,,,,,,,,,,,,,,,,,,,,,,,,,,,,,,,,,,,,,,,,,,,,,,,,,,,,,,,,,,,,,,,46,001,0,19,390,450,2022_Dec_08_1058,Experiment,2021.1.4,359.8507339244707,
,,,,,,,,,,,,,,,,,,,,,,,,,,,,,,,,,,,,,,,,,,,,,5,Upset,rating,1.0,38.29611670000031,,,,,,,,,,,,,,,,,,,,,,,,,,,,,,,,,,,,,,,,,,,,,,,,,,,,,,,,,,,,,,,,,,,,,,,,,,,,,,,,,,,,,,,,,,,,,,,,,,,,,,,,,,,,,,,,,,,46,001,0,19,390,450,2022_Dec_08_1058,Experiment,2021.1.4,359.8507339244707,
,,,,,,,,,,,,,,,,,,,,,,,,,,,,,,,,,,,,,,,,,,,,,6,Strong,rating,4.0,41.521788499999275,,,,,,,,,,,,,,,,,,,,,,,,,,,,,,,,,,,,,,,,,,,,,,,,,,,,,,,,,,,,,,,,,,,,,,,,,,,,,,,,,,,,,,,,,,,,,,,,,,,,,,,,,,,,,,,,,,,46,001,0,19,390,450,2022_Dec_08_1058,Experiment,2021.1.4,359.8507339244707,
,,,,,,,,,,,,,,,,,,,,,,,,,,,,,,,,,,,,,,,,,,,,,7,Guilty,rating,2.0,9.40639209999972,,,,,,,,,,,,,,,,,,,,,,,,,,,,,,,,,,,,,,,,,,,,,,,,,,,,,,,,,,,,,,,,,,,,,,,,,,,,,,,,,,,,,,,,,,,,,,,,,,,,,,,,,,,,,,,,,,,46,001,0,19,390,450,2022_Dec_08_1058,Experiment,2021.1.4,359.8507339244707,
,,,,,,,,,,,,,,,,,,,,,,,,,,,,,,,,,,,,,,,,,,,,,8,Scared,rating,2.0,8.241844000000128,,,,,,,,,,,,,,,,,,,,,,,,,,,,,,,,,,,,,,,,,,,,,,,,,,,,,,,,,,,,,,,,,,,,,,,,,,,,,,,,,,,,,,,,,,,,,,,,,,,,,,,,,,,,,,,,,,,46,001,0,19,390,450,2022_Dec_08_1058,Experiment,2021.1.4,359.8507339244707,
,,,,,,,,,,,,,,,,,,,,,,,,,,,,,,,,,,,,,,,,,,,,,9,Hostile,rating,2.0,7.804411000000073,,,,,,,,,,,,,,,,,,,,,,,,,,,,,,,,,,,,,,,,,,,,,,,,,,,,,,,,,,,,,,,,,,,,,,,,,,,,,,,,,,,,,,,,,,,,,,,,,,,,,,,,,,,,,,,,,,,46,001,0,19,390,450,2022_Dec_08_1058,Experiment,2021.1.4,359.8507339244707,
,,,,,,,,,,,,,,,,,,,,,,,,,,,,,,,,,,,,,,,,,,,,,10,Enthusiastic,rating,3.0,6.61334480000005,,,,,,,,,,,,,,,,,,,,,,,,,,,,,,,,,,,,,,,,,,,,,,,,,,,,,,,,,,,,,,,,,,,,,,,,,,,,,,,,,,,,,,,,,,,,,,,,,,,,,,,,,,,,,,,,,,,46,001,0,19,390,450,2022_Dec_08_1058,Experiment,2021.1.4,359.8507339244707,
,,,,,,,,,,,,,,,,,,,,,,,,,,,,,,,,,,,,,,,,,,,,,11,Proud,rating,3.0,6.469722900000306,,,,,,,,,,,,,,,,,,,,,,,,,,,,,,,,,,,,,,,,,,,,,,,,,,,,,,,,,,,,,,,,,,,,,,,,,,,,,,,,,,,,,,,,,,,,,,,,,,,,,,,,,,,,,,,,,,,46,001,0,19,390,450,2022_Dec_08_1058,Experiment,2021.1.4,359.8507339244707,
,,,,,,,,,,,,,,,,,,,,,,,,,,,,,,,,,,,,,,,,,,,,,12,Irritable,rating,2.0,5.898196199999802,,,,,,,,,,,,,,,,,,,,,,,,,,,,,,,,,,,,,,,,,,,,,,,,,,,,,,,,,,,,,,,,,,,,,,,,,,,,,,,,,,,,,,,,,,,,,,,,,,,,,,,,,,,,,,,,,,,46,001,0,19,390,450,2022_Dec_08_1058,Experiment,2021.1.4,359.8507339244707,
,,,,,,,,,,,,,,,,,,,,,,,,,,,,,,,,,,,,,,,,,,,,,13,Alert,rating,2.0,7.115112299999964,,,,,,,,,,,,,,,,,,,,,,,,,,,,,,,,,,,,,,,,,,,,,,,,,,,,,,,,,,,,,,,,,,,,,,,,,,,,,,,,,,,,,,,,,,,,,,,,,,,,,,,,,,,,,,,,,,,46,001,0,19,390,450,2022_Dec_08_1058,Experiment,2021.1.4,359.8507339244707,
,,,,,,,,,,,,,,,,,,,,,,,,,,,,,,,,,,,,,,,,,,,,,14,Ashamed,rating,2.0,6.693933599999582,,,,,,,,,,,,,,,,,,,,,,,,,,,,,,,,,,,,,,,,,,,,,,,,,,,,,,,,,,,,,,,,,,,,,,,,,,,,,,,,,,,,,,,,,,,,,,,,,,,,,,,,,,,,,,,,,,,46,001,0,19,390,450,2022_Dec_08_1058,Experiment,2021.1.4,359.8507339244707,
,,,,,,,,,,,,,,,,,,,,,,,,,,,,,,,,,,,,,,,,,,,,,15,Inspired,rating,3.0,6.639948199999708,,,,,,,,,,,,,,,,,,,,,,,,,,,,,,,,,,,,,,,,,,,,,,,,,,,,,,,,,,,,,,,,,,,,,,,,,,,,,,,,,,,,,,,,,,,,,,,,,,,,,,,,,,,,,,,,,,,46,001,0,19,390,450,2022_Dec_08_1058,Experiment,2021.1.4,359.8507339244707,
,,,,,,,,,,,,,,,,,,,,,,,,,,,,,,,,,,,,,,,,,,,,,16,Nervous,rating,2.0,5.877590000000055,,,,,,,,,,,,,,,,,,,,,,,,,,,,,,,,,,,,,,,,,,,,,,,,,,,,,,,,,,,,,,,,,,,,,,,,,,,,,,,,,,,,,,,,,,,,,,,,,,,,,,,,,,,,,,,,,,,46,001,0,19,390,450,2022_Dec_08_1058,Experiment,2021.1.4,359.8507339244707,
,,,,,,,,,,,,,,,,,,,,,,,,,,,,,,,,,,,,,,,,,,,,,17,Determined,rating,3.0,5.726066700000047,,,,,,,,,,,,,,,,,,,,,,,,,,,,,,,,,,,,,,,,,,,,,,,,,,,,,,,,,,,,,,,,,,,,,,,,,,,,,,,,,,,,,,,,,,,,,,,,,,,,,,,,,,,,,,,,,,,46,001,0,19,390,450,2022_Dec_08_1058,Experiment,2021.1.4,359.8507339244707,
,,,,,,,,,,,,,,,,,,,,,,,,,,,,,,,,,,,,,,,,,,,,,18,Attentive,rating,4.0,5.33674240000073,,,,,,,,,,,,,,,,,,,,,,,,,,,,,,,,,,,,,,,,,,,,,,,,,,,,,,,,,,,,,,,,,,,,,,,,,,,,,,,,,,,,,,,,,,,,,,,,,,,,,,,,,,,,,,,,,,,46,001,0,19,390,450,2022_Dec_08_1058,Experiment,2021.1.4,359.8507339244707,
,,,,,,,,,,,,,,,,,,,,,,,,,,,,,,,,,,,,,,,,,,,,,19,Jittery,rating,2.0,12.170863000000281,,,,,,,,,,,,,,,,,,,,,,,,,,,,,,,,,,,,,,,,,,,,,,,,,,,,,,,,,,,,,,,,,,,,,,,,,,,,,,,,,,,,,,,,,,,,,,,,,,,,,,,,,,,,,,,,,,,46,001,0,19,390,450,2022_Dec_08_1058,Experiment,2021.1.4,359.8507339244707,
,,,,,,,,,,,,,,,,,,,,,,,,,,,,,,,,,,,,,,,,,,,,,20,Active,rating,4.0,12.26008769999953,,,,,,,,,,,,,,,,,,,,,,,,,,,,,,,,,,,,,,,,,,,,,,,,,,,,,,,,,,,,,,,,,,,,,,,,,,,,,,,,,,,,,,,,,,,,,,,,,,,,,,,,,,,,,,,,,,,46,001,0,19,390,450,2022_Dec_08_1058,Experiment,2021.1.4,359.8507339244707,
,,,,,,,,,,,,,,,,,,,,,,,,,,,,,,,,,,,,,,,,,,,,,21,Afraid,rating,2.0,12.257587500000227,,,,,,,,,,,,,,,,,,,,,,,,,,,,,,,,,,,,,,,,,,,,,,,,,,,,,,,,,,,,,,,,,,,,,,,,,,,,,,,,,,,,,,,,,,,,,,,,,,,,,,,,,,,,,,,,,,,46,001,0,19,390,450,2022_Dec_08_1058,Experiment,2021.1.4,359.8507339244707,
,,,,,,,,,,,,,,,,,,,,,,,,,,,,,,,,,,,,,,,,,,,,,22,Press the + button to submit your answers,description,,,,,,,,,,,,,,,,,,,,,,,,,,,,,,,,,,,,,,,,,,,,,,,,,,,,,,,,,,,,,,,,,,,,,,,,,,,,,,,,,,,,,,,,,,,,,,,,,,,,,,,,,,,,,,,,,,,,,46,001,0,19,390,450,2022_Dec_08_1058,Experiment,2021.1.4,359.8507339244707,
,,,,,,,,,,,,,,,,,,,,,,,,,,,,,,,,,,,,,,,,,,,,,,,,,,num_add,77.03461580000021,58.425244199999725,None,,,,,,,,,,,,,,,,,,,,,,,,,,,,,,,,,,,,,,,,,,,,,,,,,,,,,,,,,,,,,,,,,,,,,,,,,,,,,,,,,,,,,,,,,,,,,,,,,,,,,,,,,,,,,,,46,001,0,19,390,450,2022_Dec_08_1058,Experiment,2021.1.4,359.8507339244707,
,,,,,,,,,,,,,,,,,,,,,,,,,,,,,,,,,,,,,,,,,,,,,,,,,,,,,,135.52084659999946,None,num_add,11.354696200000035,,,,,,,,,,,,,,,,,,,,,,,,,,,,,,,,,,,,,,,,,,,,,,,,,,,,,,,,,,,,,,,,,,,,,,,,,,,,,,,,,,,,,,,,,,,,,,,,,,,,,,,,,,,46,001,0,19,390,450,2022_Dec_08_1058,Experiment,2021.1.4,359.8507339244707,
,,,,,,,,,,,,,,,,,,,,,,,,,,,,,,,,,,,,,,,,,,,,,,,,,,,,,,,,,,146.8839683999995,None,num_add,3.5998121000002357,146.8839683999995,None,,,,,,,,,,,,,,,,,,,,,,,,,,,,,,,,,,,,,,,,,,,,,,,,,,,,,,,,,,,,,,,,,,,,,,,,,,,,,,,,,,,,,,,,,,,,,,,,,,,,,46,001,0,19,390,450,2022_Dec_08_1058,Experiment,2021.1.4,359.8507339244707,
,,,,,,,,,,,,,,,,,,,,,,,,,,,,,,,,,,,,,,,,,,,,,,,,,,,,,,,,,,,,,,,,150.50518699999975,None,num_add,12.170489200000702,,,,,,,,,,,,,,,,,,,,,,,,,,,,,,,,,,,,,,,,,,,,,,,,,,,,,,,,,,,,,,,,,,,,,,,,,,,,,,,,,,,,,,,,,,,,,,,,,46,001,0,19,390,450,2022_Dec_08_1058,Experiment,2021.1.4,359.8507339244707,
,,,,,,,,,,,,,,,,,,,,,,,,,,,,,,,,,,,,,,,,,,,,,,,,,,,,,,,,,,,,,,,,,,,,162.68741449999925,None,space,68.90790779999952,,,,,,,,,,,,,,,,,,,,,,,,,,,,,,,,,,,,,,,,,,,,,,,,,,,,,,,,,,,,,,,,,,,,,,,,,,,,,,,,,,,,,,,,,,,,,46,001,0,19,390,450,2022_Dec_08_1058,Experiment,2021.1.4,359.8507339244707,
images\S21_F_H_01.png,images\S21_F_H_01_scrambled.png,21,Happy,-0.1,F,0,0,practice,off,1,0.5,0.75,0.5,0.853,3,,,,,,,,,,,0,0,0,0,,,,,,,,,,,,,,,,,,,,,,,,,,,,,,,,,,,,,,,,,,,231.77711199999976,232.27977139999985,232.27977139999985,233.03228760000002,233.03228760000002,233.53494989999945,233.53494989999945,234.39023649999945,234.39023649999945,None,None,234.39023649999945,None,,,,,,,,,,,,,,,,,,,,,,,,,,,,,,,,,,,,,,,,,,,,,,,,,,,,,,,,,,,,,,,,,,,,,,,,,,,,,,,,46,001,0,19,390,450,2022_Dec_08_1058,Experiment,2021.1.4,359.8507339244707,
images\S22_M_S_03.png,images\S22_M_S_03_scrambled.png,22,Sad,0.3,M,0,0,practice,on,2,0.5,0.75,0.5,0.794,3,,,,,,,,,,,0,1,1,7,,,,,,,,,,,,,,,,,,,,,,,,,,,,,,,,,,,,,,,,,,,237.47812969999995,237.98075869999957,237.98075869999957,238.7333195000001,238.7333195000001,239.2331639999993,239.2331639999993,240.0301499999996,240.0301499999996,237.47812969999995,num_4,240.0301499999996,237.47812969999995,1.3257300000004761,,,,,,,,,,,,,,,,,,,,,,,,,,,,,,,,,,,,,,,,,,,,,,,,,,,,,,,,,,,,,,,,,,,,,,,,,,,,,,,46,001,0,19,390,450,2022_Dec_08_1058,Experiment,2021.1.4,359.8507339244707,
images\S22_M_H_02.png,images\S22_M_H_02_scrambled.png,22,Happy,-0.2,M,0,0,practice,off,1,0.5,0.75,0.5,0.883,3,,,,,,,,,,,0,2,2,2,,,,,,,,,,,,,,,,,,,,,,,,,,,,,,,,,,,,,,,,,,,241.4435687999994,241.9462055999993,241.9462055999993,242.69875799999954,242.69875799999954,243.2042150999996,243.2042150999996,244.08719409999958,244.08719409999958,None,num_6,244.08719409999958,None,0.6047545000001264,,,,,,,,,,,,,,,,,,,,,,,,,,,,,,,,,,,,,,,,,,,,,,,,,,,,,,,,,,,,,,,,,,,,,,,,,,,,,,,46,001,0,19,390,450,2022_Dec_08_1058,Experiment,2021.1.4,359.8507339244707,
images\S21_F_H_02.png,images\S21_F_H_02_scrambled.png,21,Happy,-0.2,F,0,0,practice,off,1,0.5,0.75,0.5,0.91,3,,,,,,,,,,,0,3,3,1,,,,,,,,,,,,,,,,,,,,,,,,,,,,,,,,,,,,,,,,,,,244.78420069999993,245.28963569999996,245.28963569999996,246.03934819999995,246.03934819999995,246.54478930000005,246.54478930000005,247.46116529999927,247.46116529999927,None,num_6,247.46116529999927,None,0.478633799999443,,,,,,,,,,,,,,,,,,,,,,,,,,,,,,,,,,,,,,,,,,,,,,,,,,,,,,,,,,,,,,,,,,,,,,,,,,,,,,,46,001,0,19,390,450,2022_Dec_08_1058,Experiment,2021.1.4,359.8507339244707,
images\S22_M_S_03.png,images\S22_M_S_03_scrambled.png,22,Sad,0.3,M,0,0,practice,on,2,0.5,0.75,0.5,0.87,3,,,,,,,,,,,0,4,4,4,,,,,,,,,,,,,,,,,,,,,,,,,,,,,,,,,,,,,,,,,,,248.0137479999994,248.5192137999993,248.5192137999993,249.26893779999955,249.26893779999955,249.77155289999973,249.77155289999973,250.64363400000002,250.64363400000002,None,num_4,250.64363400000002,None,0.5842800999998872,,,,,,,,,,,,,,,,,,,,,,,,,,,,,,,,,,,,,,,,,,,,,,,,,,,,,,,,,,,,,,,,,,,,,,,,,,,,,,,46,001,0,19,390,450,2022_Dec_08_1058,Experiment,2021.1.4,359.8507339244707,
images\S22_M_S_02.png,images\S22_M_S_02_scrambled.png,22,Sad,0.2,M,0,0,practice,off,1,0.5,0.75,0.5,0.751,3,,,,,,,,,,,0,5,5,3,,,,,,,,,,,,,,,,,,,,,,,,,,,,,,,,,,,,,,,,,,,251.31828760000008,251.82092359999933,251.82092359999933,252.57354339999983,252.57354339999983,253.07898849999947,253.07898849999947,253.83426289999989,253.83426289999989,None,num_4,253.83426289999989,None,0.825565999999526,,,,,,,,,,,,,,,,,,,,,,,,,,,,,,,,,,,,,,,,,,,,,,,,,,,,,,,,,,,,,,,,,,,,,,,,,,,,,,,46,001,0,19,390,450,2022_Dec_08_1058,Experiment,2021.1.4,359.8507339244707,
images\S22_M_S_01.png,images\S22_M_S_01_scrambled.png,22,Sad,0.1,M,0,0,practice,on,2,0.5,0.75,0.5,0.867,3,,,,,,,,,,,0,6,6,5,,,,,,,,,,,,,,,,,,,,,,,,,,,,,,,,,,,,,,,,,,,254.75611409999965,255.25885059999928,255.25885059999928,256.0141305999996,256.0141305999996,256.5195106000001,256.5195106000001,257.3887492999993,257.3887492999993,None,num_6,257.3887492999993,None,0.5038158000006661,,,,,,,,,,,,,,,,,,,,,,,,,,,,,,,,,,,,,,,,,,,,,,,,,,,,,,,,,,,,,,,,,,,,,,,,,,,,,,,46,001,0,19,390,450,2022_Dec_08_1058,Experiment,2021.1.4,359.8507339244707,
images\S22_M_S_02.png,images\S22_M_S_02_scrambled.png,22,Sad,0.2,M,0,0,practice,on,2,0.5,0.75,0.5,0.783,3,,,,,,,,,,,0,7,7,6,,,,,,,,,,,,,,,,,,,,,,,,,,,,,,,,,,,,,,,,,,,257.9690018000001,258.46886730000006,258.46886730000006,259.2186404999993,259.2186404999993,259.7240942999997,259.7240942999997,260.50992640000004,260.50992640000004,None,num_4,260.50992640000004,None,0.5899526999992304,,,,,,,,,,,,,,,,,,,,,,,,,,,,,,,,,,,,,,,,,,,,,,,,,,,,,,,,,,,,,,,,,,,,,,,,,,,,,,,46,001,0,19,390,450,2022_Dec_08_1058,Experiment,2021.1.4,359.8507339244707,
,,,,,,,,,,,,,,,,,,,,,,,,,,,,,,,,,,,,,,,,,,,,,,,,,,,,,,,,,,,,,,,,,,,,,,,,,,,,,,,,,,,,,,261.1263656000001,None,space,74.26094439999997,,,,,,,,,,,,,,,,,,,,,,,,,,,,,,,,,,,,,,,,,,,,,,,,,,,,,,,,,,,,,,,,,,,,,,,,,,,46,001,0,19,390,450,2022_Dec_08_1058,Experiment,2021.1.4,359.8507339244707,
images\S1_F_S_03.png,images\S1_F_S_03_scrambled.png,1,sad,-30,female,1,,246,off,1,0.5,0.75,0.5,0.837,3,245,1,1,1,0,0,0,0,1,,,,,,0,0,0,0,,,,,,,,,,,,,,,,,,,,,,,,,,,,,,,,,,,,,,,,,,,,,,,,,,,,,,,,,335.8865374999996,336.3891546999994,336.3891546999994,337.1417077999995,337.1417077999995,337.64711949999946,337.64711949999946,338.4913200000001,338.4913200000001,None,num_6,0.4084452999995847,338.4913200000001,None,happy,0,Sad,338.91337669999984,None,None,338.91337669999984,None,,,,,,,,,,,,,,,,,,,,,,,,,,,,,,,,,,,,,,,,,,,,,,,,,,,,,46,001,0,19,390,450,2022_Dec_08_1058,Experiment,2021.1.4,359.8507339244707,
images\S9_F_H_02.png,images\S9_F_H_02_scrambled.png,9,happy,20,female,5,,110,on,2,0.5,0.75,0.5,0.815,3,109,1,1,1,2,2,32,128,165,,,,,,0,1,1,1,,,,,,,,,,,,,,,,,,,,,,,,,,,,,,,,,,,,,,,,,,,,,,,,,,,,,,,,,339.0272175,339.5299447999996,339.5299447999996,340.2796325999998,340.2796325999998,340.7851075999997,340.7851075999997,341.604241,341.604241,None,num_6,0.4392236000003322,341.604241,None,happy,0,Happy,342.0540763999996,None,None,342.0540763999996,None,,,,,,,,,,,,,,,,,,,,,,,,,,,,,,,,,,,,,,,,,,,,,,,,,,,,,46,001,0,19,390,450,2022_Dec_08_1058,Experiment,2021.1.4,359.8507339244707,
images\S2_M_H_03.png,images\S2_M_H_03_scrambled.png,2,happy,30,male,6,,429,on,2,0.5,0.75,0.5,0.763,3,428,2,1,1,2,2,32,128,166,,,,,,0,2,2,2,,,,,,,,,,,,,,,,,,,,,,,,,,,,,,,,,,,,,,,,,,,,,,,,,,,,,,,,,342.1679177999995,342.66777490000004,342.66777490000004,343.4175418999994,343.4175418999994,343.9202156000001,343.9202156000001,344.6865812999995,344.6865812999995,None,num_6,0.5651611000002958,344.6865812999995,None,happy,0,Happy,345.2669602999993,None,None,345.2669602999993,None,,,,,,,,,,,,,,,,,,,,,,,,,,,,,,,,,,,,,,,,,,,,,,,,,,,,,46,001,0,19,390,450,2022_Dec_08_1058,Experiment,2021.1.4,359.8507339244707,
images\S6_M_H_03.png,images\S6_M_H_03_scrambled.png,6,happy,30,male,6,,273,off,1,0.5,0.75,0.5,0.913,3,272,1,1,2,0,0,0,0,6,,,,,,0,3,3,3,,,,,,,,,,,,,,,,,,,,,,,,,,,,,,,,,,,,,,,,,,,,,,,,,,,,,,,,,345.3530482999995,345.85569119999946,345.85569119999946,346.60825059999934,346.60825059999934,347.1080570999993,347.1080570999993,348.02456299999994,348.02456299999994,None,num_6,0.7233171999996557,348.02456299999994,None,happy,0,Happy,348.76309529999963,None,None,348.76309529999963,None,,,,,,,,,,,,,,,,,,,,,,,,,,,,,,,,,,,,,,,,,,,,,,,,,,,,,46,001,0,19,390,450,2022_Dec_08_1058,Experiment,2021.1.4,359.8507339244707,
images\S2_M_S_02.png,images\S2_M_S_02_scrambled.png,2,sad,-20,male,2,,11,off,1,0.5,0.75,0.5,0.827,3,10,2,1,1,0,0,0,0,2,,,,,,0,4,4,4,,,,,,,,,,,,,,,,,,,,,,,,,,,,,,,,,,,,,,,,,,,,,,,,,,,,,,,,,348.84641419999934,349.3462491999999,349.3462491999999,350.10159249999924,350.10159249999924,350.6069858000001,350.6069858000001,351.4401199999993,351.4401199999993,None,num_4,0.4918854999996256,351.4401199999993,None,sad,0,Sad,351.95380789999996,None,None,351.95380789999996,None,,,,,,,,,,,,,,,,,,,,,,,,,,,,,,,,,,,,,,,,,,,,,,,,,,,,,46,001,0,19,390,450,2022_Dec_08_1058,Experiment,2021.1.4,359.8507339244707,
images\S9_F_H_01.png,images\S9_F_H_01_scrambled.png,9,happy,10,female,4,,229,on,2,0.5,0.75,0.5,0.914,3,228,1,1,1,2,2,32,128,164,,,,,,0,5,5,5,,,,,,,,,,,,,,,,,,,,,,,,,,,,,,,,,,,,,,,,,,,,,,,,,,,,,,,,,352.0620964999998,352.5674902999999,352.5674902999999,353.3172578999993,353.3172578999993,353.81994639999994,353.81994639999994,354.73914479999985,354.73914479999985,None,num_6,0.46462760000031267,354.73914479999985,None,happy,0,Happy,355.2305815999994,None,None,355.2305815999994,None,,,,,,,,,,,,,,,,,,,,,,,,,,,,,,,,,,,,,,,,,,,,,,,,,,,,,46,001,0,19,390,450,2022_Dec_08_1058,Experiment,2021.1.4,359.8507339244707,
images\S3_F_H_01.png,images\S3_F_H_01_scrambled.png,3,happy,10,female,4,,493,off,1,0.5,0.75,0.5,0.831,3,492,1,1,2,0,0,0,0,4,,,,,,0,6,6,6,,,,,,,,,,,,,,,,,,,,,,,,,,,,,,,,,,,,,,,,,,,,,,,,,,,,,,,,,355.34161779999977,355.84436209999967,355.84436209999967,356.5940009999995,356.5940009999995,357.09665719999975,357.09665719999975,357.9298325,357.9298325,None,num_4,0.48201479999988806,357.9298325,None,sad,0,Happy,358.42121540000005,None,None,358.42121540000005,None,,,,,,,,,,,,,,,,,,,,,,,,,,,,,,,,,,,,,,,,,,,,,,,,,,,,,46,001,0,19,390,450,2022_Dec_08_1058,Experiment,2021.1.4,359.8507339244707,
images\S1_F_S_03.png,images\S1_F_S_03_scrambled.png,1,sad,-30,female,1,,306,on,2,0.5,0.75,0.5,0.785,3,305,1,1,1,2,2,32,128,161,,,,,,0,7,7,7,,,,,,,,,,,,,,,,,,,,,,,,,,,,,,,,,,,,,,,,,,,,,,,,,,,,,,,,,358.46843289999924,358.9739546999999,358.9739546999999,359.7292506999993,359.7292506999993,360.23178629999984,360.23178629999984,361.0204423999994,361.0204423999994,None,num_4,0.5030504999995173,361.0204423999994,None,sad,0,Sad,361.53415380000007,None,None,361.53415380000007,None,,,,,,,,,,,,,,,,,,,,,,,,,,,,,,,,,,,,,,,,,,,,,,,,,,,,,46,001,0,19,390,450,2022_Dec_08_1058,Experiment,2021.1.4,359.8507339244707,
images\S6_M_S_02.png,images\S6_M_S_02_scrambled.png,6,sad,-20,male,2,,515,off,1,0.5,0.75,0.5,0.768,3,514,1,1,1,0,0,0,0,2,,,,,,0,8,8,8,,,,,,,,,,,,,,,,,,,,,,,,,,,,,,,,,,,,,,,,,,,,,,,,,,,,,,,,,361.61467639999955,362.12014759999965,362.12014759999965,362.87544979999984,362.87544979999984,363.38083109999934,363.38083109999934,364.1499967,364.1499967,None,num_4,0.5816950999997061,364.1499967,None,sad,0,Sad,364.74422719999967,None,None,364.74422719999967,None,,,,,,,,,,,,,,,,,,,,,,,,,,,,,,,,,,,,,,,,,,,,,,,,,,,,,46,001,0,19,390,450,2022_Dec_08_1058,Experiment,2021.1.4,359.8507339244707,
images\S8_M_H_03.png,images\S8_M_H_03_scrambled.png,8,happy,30,male,6,,465,on,2,0.5,0.75,0.5,0.876,3,464,1,1,1,2,2,32,128,166,,,,,,0,9,9,9,,,,,,,,,,,,,,,,,,,,,,,,,,,,,,,,,,,,,,,,,,,,,,,,,,,,,,,,,364.8303522999995,365.3329716999997,365.3329716999997,366.08279179999954,366.08279179999954,366.5854220000001,366.5854220000001,367.4656765999998,367.4656765999998,None,num_6,0.5305860000007669,367.4656765999998,None,happy,0,Happy,368.0098771000001,None,None,368.0098771000001,None,,,,,,,,,,,,,,,,,,,,,,,,,,,,,,,,,,,,,,,,,,,,,,,,,,,,,46,001,0,19,390,450,2022_Dec_08_1058,Experiment,2021.1.4,359.8507339244707,
images\S1_F_H_01.png,images\S1_F_H_01_scrambled.png,1,happy,10,female,4,,481,off,1,0.5,0.75,0.5,0.855,3,480,1,1,1,0,0,0,0,4,,,,,,0,10,10,10,,,,,,,,,,,,,,,,,,,,,,,,,,,,,,,,,,,,,,,,,,,,,,,,,,,,,,,,,368.1209865999999,368.62083359999997,368.62083359999997,369.3761840999996,369.3761840999996,369.88159149999956,369.88159149999956,370.73976570000013,370.73976570000013,None,num_4,0.48782419999952253,370.73976570000013,None,sad,0,Happy,371.2366621999994,None,None,371.2366621999994,None,,,,,,,,,,,,,,,,,,,,,,,,,,,,,,,,,,,,,,,,,,,,,,,,,,,,,46,001,0,19,390,450,2022_Dec_08_1058,Experiment,2021.1.4,359.8507339244707,
images\S7_F_S_03.png,images\S7_F_S_03_scrambled.png,7,sad,-30,female,1,,402,off,1,0.5,0.75,0.5,0.918,3,401,2,1,1,0,0,0,0,1,,,,,,0,11,11,11,,,,,,,,,,,,,,,,,,,,,,,,,,,,,,,,,,,,,,,,,,,,,,,,,,,,,,,,,371.32557279999946,371.8254078,371.8254078,372.5751758999995,372.5751758999995,373.08062749999954,373.08062749999954,374.00533240000004,374.00533240000004,None,num_4,0.5102323000000979,374.00533240000004,None,sad,0,Sad,374.54397289999997,None,None,374.54397289999997,None,,,,,,,,,,,,,,,,,,,,,,,,,,,,,,,,,,,,,,,,,,,,,,,,,,,,,46,001,0,19,390,450,2022_Dec_08_1058,Experiment,2021.1.4,359.8507339244707,
images\S3_F_H_02.png,images\S3_F_H_02_scrambled.png,3,happy,20,female,5,,554,on,2,0.5,0.75,0.5,0.826,3,553,1,1,1,2,2,32,128,165,,,,,,0,12,12,12,,,,,,,,,,,,,,,,,,,,,,,,,,,,,,,,,,,,,,,,,,,,,,,,,,,,,,,,,374.6273156999996,375.1300094999997,375.1300094999997,375.8797263999995,375.8797263999995,376.3823199999997,376.3823199999997,377.2154534000001,377.2154534000001,None,num_6,0.49266939999961323,377.2154534000001,None,happy,0,Happy,377.7292134000001,None,None,377.7292134000001,None,,,,,,,,,,,,,,,,,,,,,,,,,,,,,,,,,,,,,,,,,,,,,,,,,,,,,46,001,0,19,390,450,2022_Dec_08_1058,Experiment,2021.1.4,359.8507339244707,
images\S8_M_S_03.png,images\S8_M_S_03_scrambled.png,8,sad,-30,male,1,,48,off,1,0.5,0.75,0.5,0.753,3,47,1,1,1,0,0,0,0,1,,,,,,0,13,13,13,,,,,,,,,,,,,,,,,,,,,,,,,,,,,,,,,,,,,,,,,,,,,,,,,,,,,,,,,377.8429718999996,378.3456428999998,378.3456428999998,379.09820169999966,379.09820169999966,379.60081059999993,379.60081059999993,380.35609380000005,380.35609380000005,None,num_4,0.5595886999999493,380.35609380000005,None,sad,0,Sad,380.93091110000006,None,None,380.93091110000006,None,,,,,,,,,,,,,,,,,,,,,,,,,,,,,,,,,,,,,,,,,,,,,,,,,,,,,46,001,0,19,390,450,2022_Dec_08_1058,Experiment,2021.1.4,359.8507339244707,
images\blank.jpg,images\blank.jpg,none,none,none,none,0,,604,on,2,0.5,0.75,0.5,0.878,0,603,1,1,1,3,3,48,192,240,,,,,,0,14,14,14,,,,,,,,,,,,,,,,,,,,,,,,,,,,,,,,,,,,,,,,,,,,,,,,,,,,,,,,,381.05891079999947,381.56418249999933,381.56418249999933,382.31381469999997,382.31381469999997,382.8164651999996,382.8164651999996,383.69395689999965,383.69395689999965,383.69395689999965,None,,383.69395689999965,None,miss,0,,386.6930636999993,None,None,386.6930636999993,None,,,,,,,,,,,,,,,,,,,,,,,,,,,,,,,,,,,,,,,,,,,,,,,,,,,,,46,001,0,19,390,450,2022_Dec_08_1058,Experiment,2021.1.4,359.8507339244707,
images\S3_F_H_02.png,images\S3_F_H_02_scrambled.png,3,happy,20,female,5,,134,off,1,0.5,0.75,0.5,0.947,3,133,1,1,1,0,0,0,0,5,,,,,,0,15,15,15,,,,,,,,,,,,,,,,,,,,,,,,,,,,,,,,,,,,,,,,,,,,,,,,,,,,,,,,,386.8126324999994,387.31508379999923,387.31508379999923,388.07042809999984,388.07042809999984,388.5702210999998,388.5702210999998,389.5200073999995,389.5200073999995,None,num_4,0.3634824999999182,389.5200073999995,386.8126324999994,sad,0,Happy,389.8892319999999,None,None,389.8892319999999,None,,,,,,,,,,,,,,,,,,,,,,,,,,,,,,,,,,,,,,,,,,,,,,,,,,,,,46,001,0,19,390,450,2022_Dec_08_1058,Experiment,2021.1.4,359.8507339244707,
images\S9_F_S_03.png,images\S9_F_S_03_scrambled.png,9,sad,-30,female,1,,234,on,2,0.5,0.75,0.5,0.822,3,233,1,1,1,2,2,32,128,161,,,,,,0,16,16,16,,,,,,,,,,,,,,,,,,,,,,,,,,,,,,,,,,,,,,,,,,,,,,,,,,,,,,,,,390.0003349999997,390.5057535999995,390.5057535999995,391.2610743999994,391.2610743999994,391.7608836999998,391.7608836999998,392.5856641999999,392.5856641999999,None,num_4,0.2818260999993072,392.5856641999999,None,sad,0,Sad,392.8799503999997,None,None,392.8799503999997,None,,,,,,,,,,,,,,,,,,,,,,,,,,,,,,,,,,,,,,,,,,,,,,,,,,,,,46,001,0,19,390,450,2022_Dec_08_1058,Experiment,2021.1.4,359.8507339244707,
images\S4_M_S_03.png,images\S4_M_S_03_scrambled.png,4,sad,-30,male,1,,564,on,2,0.5,0.75,0.5,0.895,3,563,2,1,2,2,2,32,128,161,,,,,,0,17,17,17,,,,,,,,,,,,,,,,,,,,,,,,,,,,,,,,,,,,,,,,,,,,,,,,,,,,,,,,,392.9966227999994,393.4993721000001,393.4993721000001,394.2518092,394.2518092,394.7543963999997,394.7543963999997,395.6513832999999,395.6513832999999,None,num_4,0.6643031000003248,395.6513832999999,None,sad,0,Sad,396.3262084999995,None,None,396.3262084999995,None,,,,,,,,,,,,,,,,,,,,,,,,,,,,,,,,,,,,,,,,,,,,,,,,,,,,,46,001,0,19,390,450,2022_Dec_08_1058,Experiment,2021.1.4,359.8507339244707,
images\S10_M_H_02.png,images\S10_M_H_02_scrambled.png,10,happy,20,male,5,,536,off,1,0.5,0.75,0.5,0.893,3,535,1,1,1,0,0,0,0,5,,,,,,0,18,18,18,,,,,,,,,,,,,,,,,,,,,,,,,,,,,,,,,,,,,,,,,,,,,,,,,,,,,,,,,396.4094556,396.91493719999926,396.91493719999926,397.67023249999966,397.67023249999966,398.1756091999996,398.1756091999996,399.0725287999994,399.0725287999994,None,num_6,0.4991018000000622,399.0725287999994,None,happy,0,Happy,399.58621509999995,None,None,399.58621509999995,None,,,,,,,,,,,,,,,,,,,,,,,,,,,,,,,,,,,,,,,,,,,,,,,,,,,,,46,001,0,19,390,450,2022_Dec_08_1058,Experiment,2021.1.4,359.8507339244707,
images\S4_M_H_01.png,images\S4_M_H_01_scrambled.png,4,happy,10,male,4,,559,on,2,0.5,0.75,0.5,0.95,3,558,1,1,1,2,2,32,128,164,,,,,,0,19,19,19,,,,,,,,,,,,,,,,,,,,,,,,,,,,,,,,,,,,,,,,,,,,,,,,,,,,,,,,,399.6723339,400.1749831999996,400.1749831999996,400.9303332999998,400.9303332999998,401.43012069999986,401.43012069999986,402.3798235999993,402.3798235999993,None,num_4,0.5838332000002993,402.3798235999993,None,sad,0,Happy,402.96852479999995,None,None,402.96852479999995,None,,,,,,,,,,,,,,,,,,,,,,,,,,,,,,,,,,,,,,,,,,,,,,,,,,,,,46,001,0,19,390,450,2022_Dec_08_1058,Experiment,2021.1.4,359.8507339244707,
images\blank.jpg,images\blank.jpg,none,none,none,none,0,,636,on,2,0.5,0.75,0.5,0.804,0,635,2,1,1,3,3,48,192,240,,,,,,0,20,20,20,,,,,,,,,,,,,,,,,,,,,,,,,,,,,,,,,,,,,,,,,,,,,,,,,,,,,,,,,403.05209149999973,403.55448089999936,403.55448089999936,404.3042250999997,404.3042250999997,404.8041033999998,404.8041033999998,405.6094005999994,405.6094005999994,405.6094005999994,None,,405.6094005999994,None,miss,0,,408.61126809999985,None,None,408.61126809999985,None,,,,,,,,,,,,,,,,,,,,,,,,,,,,,,,,,,,,,,,,,,,,,,,,,,,,,46,001,0,19,390,450,2022_Dec_08_1058,Experiment,2021.1.4,359.8507339244707,
images\S10_M_S_02.png,images\S10_M_S_02_scrambled.png,10,sad,-20,male,2,,119,on,2,0.5,0.75,0.5,0.901,3,118,3,1,1,2,2,32,128,162,,,,,,0,21,21,21,,,,,,,,,,,,,,,,,,,,,,,,,,,,,,,,,,,,,,,,,,,,,,,,,,,,,,,,,408.7668131999999,409.2694894999995,409.2694894999995,410.01915409999947,410.01915409999947,410.5246443999995,410.5246443999995,411.4299493999997,411.4299493999997,None,num_6,0.33353250000072876,411.4299493999997,408.7668131999999,happy,0,Sad,411.77411969999963,None,None,411.77411969999963,None,,,,,,,,,,,,,,,,,,,,,,,,,,,,,,,,,,,,,,,,,,,,,,,,,,,,,46,001,0,19,390,450,2022_Dec_08_1058,Experiment,2021.1.4,359.8507339244707,
images\S10_M_H_03.png,images\S10_M_H_03_scrambled.png,10,happy,30,male,6,,417,off,1,0.5,0.75,0.5,0.88,3,416,1,2,1,0,0,0,0,6,,,,,,0,22,22,22,,,,,,,,,,,,,,,,,,,,,,,,,,,,,,,,,,,,,,,,,,,,,,,,,,,,,,,,,411.86578649999956,412.37119939999957,412.37119939999957,413.1265254,413.1265254,413.63191539999934,413.63191539999934,414.51496939999925,414.51496939999925,None,num_6,0.5368085999998584,414.51496939999925,None,happy,0,Happy,415.07320649999946,None,None,415.07320649999946,None,,,,,,,,,,,,,,,,,,,,,,,,,,,,,,,,,,,,,,,,,,,,,,,,,,,,,46,001,0,19,390,450,2022_Dec_08_1058,Experiment,2021.1.4,359.8507339244707,
images\S3_F_H_02.png,images\S3_F_H_02_scrambled.png,3,happy,20,female,5,,14,off,1,0.5,0.75,0.5,0.766,3,13,2,1,1,0,0,0,0,5,,,,,,0,23,23,23,,,,,,,,,,,,,,,,,,,,,,,,,,,,,,,,,,,,,,,,,,,,,,,,,,,,,,,,,415.12588119999964,415.6313044999997,415.6313044999997,416.38384869999936,416.38384869999936,416.8893515,416.8893515,417.6612301999994,417.6612301999994,None,num_6,0.27037689999997383,417.6612301999994,None,happy,0,Happy,417.9584008999999,None,None,417.9584008999999,None,,,,,,,,,,,,,,,,,,,,,,,,,,,,,,,,,,,,,,,,,,,,,,,,,,,,,46,001,0,19,390,450,2022_Dec_08_1058,Experiment,2021.1.4,359.8507339244707,
images\S6_M_S_01.png,images\S6_M_S_01_scrambled.png,6,sad,-10,male,3,,454,on,2,0.5,0.75,0.5,0.874,3,453,1,1,1,2,2,32,128,163,,,,,,0,24,24,24,,,,,,,,,,,,,,,,,,,,,,,,,,,,,,,,,,,,,,,,,,,,,,,,,,,,,,,,,418.0721874000001,418.57490400000006,418.57490400000006,419.32459819999985,419.32459819999985,419.82722699999977,419.82722699999977,420.7047606999995,420.7047606999995,None,num_4,0.3388952999994217,420.7047606999995,None,sad,0,Sad,421.0573649999995,None,None,421.0573649999995,None,,,,,,,,,,,,,,,,,,,,,,,,,,,,,,,,,,,,,,,,,,,,,,,,,,,,,46,001,0,19,390,450,2022_Dec_08_1058,Experiment,2021.1.4,359.8507339244707,
images\S10_M_H_01.png,images\S10_M_H_01_scrambled.png,10,happy,10,male,4,,175,off,1,0.5,0.75,0.5,0.916,3,174,1,1,1,0,0,0,0,4,,,,,,0,25,25,25,,,,,,,,,,,,,,,,,,,,,,,,,,,,,,,,,,,,,,,,,,,,,,,,,,,,,,,,,421.1434636999993,421.6461077999993,421.6461077999993,422.39865029999964,422.39865029999964,422.9012490999994,422.9012490999994,423.8204603999993,423.8204603999993,None,num_6,0.32706529999995837,423.8204603999993,None,happy,0,Happy,424.16193749999985,None,None,424.16193749999985,None,,,,,,,,,,,,,,,,,,,,,,,,,,,,,,,,,,,,,,,,,,,,,,,,,,,,,46,001,0,19,390,450,2022_Dec_08_1058,Experiment,2021.1.4,359.8507339244707,
images\S5_F_H_02.png,images\S5_F_H_02_scrambled.png,5,happy,20,female,5,,266,off,1,0.5,0.75,0.5,0.828,3,265,2,1,1,0,0,0,0,5,,,,,,0,26,26,26,,,,,,,,,,,,,,,,,,,,,,,,,,,,,,,,,,,,,,,,,,,,,,,,,,,,,,,,,424.2480595999996,424.75072139999975,424.75072139999975,425.50601499999993,425.50601499999993,426.0086470999995,426.0086470999995,426.83904170000005,426.83904170000005,None,num_6,0.5166541999997207,426.83904170000005,None,happy,0,Happy,427.3692650000001,None,None,427.3692650000001,None,,,,,,,,,,,,,,,,,,,,,,,,,,,,,,,,,,,,,,,,,,,,,,,,,,,,,46,001,0,19,390,450,2022_Dec_08_1058,Experiment,2021.1.4,359.8507339244707,
images\S10_M_S_03.png,images\S10_M_S_03_scrambled.png,10,sad,-30,male,1,,420,off,1,0.5,0.75,0.5,0.813,3,419,3,1,1,0,0,0,0,1,,,,,,0,27,27,27,,,,,,,,,,,,,,,,,,,,,,,,,,,,,,,,,,,,,,,,,,,,,,,,,,,,,,,,,427.48039869999957,427.98582129999977,427.98582129999977,428.7411042999993,428.7411042999993,429.24384949999967,429.24384949999967,430.06019299999934,430.06019299999934,None,num_4,0.3031498999998803,430.06019299999934,None,sad,0,Sad,430.3739499000001,None,None,430.3739499000001,None,,,,,,,,,,,,,,,,,,,,,,,,,,,,,,,,,,,,,,,,,,,,,,,,,,,,,46,001,0,19,390,450,2022_Dec_08_1058,Experiment,2021.1.4,359.8507339244707,
images\S10_M_H_03.png,images\S10_M_H_03_scrambled.png,10,happy,30,male,6,,537,off,1,0.5,0.75,0.5,0.852,3,536,4,2,1,0,0,0,0,6,,,,,,0,28,28,28,,,,,,,,,,,,,,,,,,,,,,,,,,,,,,,,,,,,,,,,,,,,,,,,,,,,,,,,,430.4211353999999,430.92390179999984,430.92390179999984,431.6791771999997,431.6791771999997,432.1817317999994,432.1817317999994,433.0398557999997,433.0398557999997,None,num_6,0.5717483999997057,433.0398557999997,None,happy,0,Happy,433.62569499999955,None,None,433.62569499999955,None,,,,,,,,,,,,,,,,,,,,,,,,,,,,,,,,,,,,,,,,,,,,,,,,,,,,,46,001,0,19,390,450,2022_Dec_08_1058,Experiment,2021.1.4,359.8507339244707,
images\S10_M_S_01.png,images\S10_M_S_01_scrambled.png,10,sad,-10,male,3,,478,on,2,0.5,0.75,0.5,0.925,3,477,1,3,1,2,2,32,128,163,,,,,,0,29,29,29,,,,,,,,,,,,,,,,,,,,,,,,,,,,,,,,,,,,,,,,,,,,,,,,,,,,,,,,,433.70901199999935,434.2088561999999,434.2088561999999,434.95865700000013,434.95865700000013,435.4640439999994,435.4640439999994,436.3915403000001,436.3915403000001,None,num_4,0.22812489999978425,436.3915403000001,None,sad,0,Sad,436.63872459999993,None,None,436.63872459999993,None,,,,,,,,,,,,,,,,,,,,,,,,,,,,,,,,,,,,,,,,,,,,,,,,,,,,,46,001,0,19,390,450,2022_Dec_08_1058,Experiment,2021.1.4,359.8507339244707,
images\S1_F_H_03.png,images\S1_F_H_03_scrambled.png,1,happy,30,female,6,,123,off,1,0.5,0.75,0.5,0.78,3,122,1,1,1,0,0,0,0,6,,,,,,0,30,30,30,,,,,,,,,,,,,,,,,,,,,,,,,,,,,,,,,,,,,,,,,,,,,,,,,,,,,,,,,436.7275246999998,437.2301598999993,437.2301598999993,437.97990559999926,437.97990559999926,438.47975509999924,438.47975509999924,439.26566229999935,439.26566229999935,None,num_6,0.3140019000002212,439.26566229999935,None,happy,0,Happy,439.5932715999996,None,None,439.5932715999996,None,,,,,,,,,,,,,,,,,,,,,,,,,,,,,,,,,,,,,,,,,,,,,,,,,,,,,46,001,0,19,390,450,2022_Dec_08_1058,Experiment,2021.1.4,359.8507339244707,
images\S4_M_H_01.png,images\S4_M_H_01_scrambled.png,4,happy,10,male,4,,139,off,1,0.5,0.75,0.5,0.91,3,138,2,1,1,0,0,0,0,4,,,,,,0,31,31,31,,,,,,,,,,,,,,,,,,,,,,,,,,,,,,,,,,,,,,,,,,,,,,,,,,,,,,,,,439.6405058,440.1403542999997,440.1403542999997,440.8901158999997,440.8901158999997,441.39557239999976,441.39557239999976,442.3091236,442.3091236,None,num_4,0.25449979999939387,442.3091236,None,sad,0,Happy,442.57289979999985,None,None,442.57289979999985,None,,,,,,,,,,,,,,,,,,,,,,,,,,,,,,,,,,,,,,,,,,,,,,,,,,,,,46,001,0,19,390,450,2022_Dec_08_1058,Experiment,2021.1.4,359.8507339244707,
images\S5_F_S_02.png,images\S5_F_S_02_scrambled.png,5,sad,-20,female,2,,389,off,1,0.5,0.75,0.5,0.843,3,388,3,1,1,0,0,0,0,2,,,,,,0,32,32,32,,,,,,,,,,,,,,,,,,,,,,,,,,,,,,,,,,,,,,,,,,,,,,,,,,,,,,,,,442.65624449999996,443.1616573000001,443.1616573000001,443.9169803999994,443.9169803999994,444.41970799999945,444.41970799999945,445.26944599999933,445.26944599999933,None,num_4,0.4623295000001235,445.26944599999933,None,sad,0,Sad,445.74691969999986,None,None,445.74691969999986,None,,,,,,,,,,,,,,,,,,,,,,,,,,,,,,,,,,,,,,,,,,,,,,,,,,,,,46,001,0,19,390,450,2022_Dec_08_1058,Experiment,2021.1.4,359.8507339244707,
images\S5_F_S_01.png,images\S5_F_S_01_scrambled.png,5,sad,-10,female,3,,508,off,1,0.5,0.75,0.5,0.818,3,507,4,2,1,0,0,0,0,3,,,,,,0,33,33,33,,,,,,,,,,,,,,,,,,,,,,,,,,,,,,,,,,,,,,,,,,,,,,,,,,,,,,,,,445.83303849999993,446.3357003000001,446.3357003000001,447.0910178999993,447.0910178999993,447.5937315000001,447.5937315000001,448.41556839999976,448.41556839999976,None,num_6,0.32383589999972173,448.41556839999976,None,happy,0,Sad,448.7487673999998,None,None,448.7487673999998,None,,,,,,,,,,,,,,,,,,,,,,,,,,,,,,,,,,,,,,,,,,,,,,,,,,,,,46,001,0,19,390,450,2022_Dec_08_1058,Experiment,2021.1.4,359.8507339244707,
images\S10_M_S_02.png,images\S10_M_S_02_scrambled.png,10,sad,-20,male,2,,599,on,2,0.5,0.75,0.5,0.822,3,598,1,1,1,2,2,32,128,162,,,,,,0,34,34,34,,,,,,,,,,,,,,,,,,,,,,,,,,,,,,,,,,,,,,,,,,,,,,,,,,,,,,,,,448.7960035999995,449.2958450999995,449.2958450999995,450.04851099999996,450.04851099999996,450.55104459999984,450.55104459999984,451.37580009999965,451.37580009999965,None,num_4,0.21947809999983292,451.37580009999965,None,sad,0,Sad,451.6090543999997,None,None,451.6090543999997,None,,,,,,,,,,,,,,,,,,,,,,,,,,,,,,,,,,,,,,,,,,,,,,,,,,,,,46,001,0,19,390,450,2022_Dec_08_1058,Experiment,2021.1.4,359.8507339244707,
images\S4_M_S_03.png,images\S4_M_S_03_scrambled.png,4,sad,-30,male,1,,144,off,1,0.5,0.75,0.5,0.931,3,143,1,1,1,0,0,0,0,1,,,,,,0,35,35,35,,,,,,,,,,,,,,,,,,,,,,,,,,,,,,,,,,,,,,,,,,,,,,,,,,,,,,,,,451.6562299999996,452.1589863999998,452.1589863999998,452.9086448999997,452.9086448999997,453.4141501999993,453.4141501999993,454.3499219999994,454.3499219999994,None,num_4,0.43806879999920056,454.3499219999994,None,sad,0,Sad,454.8081057000001,None,None,454.8081057000001,None,,,,,,,,,,,,,,,,,,,,,,,,,,,,,,,,,,,,,,,,,,,,,,,,,,,,,46,001,0,19,390,450,2022_Dec_08_1058,Experiment,2021.1.4,359.8507339244707,
images\S1_F_S_01.png,images\S1_F_S_01_scrambled.png,1,sad,-10,female,3,,184,on,2,0.5,0.75,0.5,0.826,3,183,1,1,1,2,2,32,128,163,,,,,,0,36,36,36,,,,,,,,,,,,,,,,,,,,,,,,,,,,,,,,,,,,,,,,,,,,,,,,,,,,,,,,,454.9107801,455.4162030999996,455.4162030999996,456.17151809999996,456.17151809999996,456.6769168000001,456.6769168000001,457.51003129999935,457.51003129999935,None,num_6,0.40517929999987246,457.51003129999935,None,happy,0,Sad,457.9265486999994,None,None,457.9265486999994,None,,,,,,,,,,,,,,,,,,,,,,,,,,,,,,,,,,,,,,,,,,,,,,,,,,,,,46,001,0,19,390,450,2022_Dec_08_1058,Experiment,2021.1.4,359.8507339244707,
images\S6_M_S_02.png,images\S6_M_S_02_scrambled.png,6,sad,-20,male,2,,215,on,2,0.5,0.75,0.5,0.844,3,214,2,1,1,2,2,32,128,162,,,,,,0,37,37,37,,,,,,,,,,,,,,,,,,,,,,,,,,,,,,,,,,,,,,,,,,,,,,,,,,,,,,,,,457.9848321999998,458.48745729999973,458.48745729999973,459.2400484,459.2400484,459.7398352,459.7398352,460.5896580999997,460.5896580999997,None,num_4,0.24569330000031187,460.5896580999997,None,sad,0,Sad,460.8505687999994,None,None,460.8505687999994,None,,,,,,,,,,,,,,,,,,,,,,,,,,,,,,,,,,,,,,,,,,,,,,,,,,,,,46,001,0,19,390,450,2022_Dec_08_1058,Experiment,2021.1.4,359.8507339244707,
images\S8_M_S_02.png,images\S8_M_S_02_scrambled.png,8,sad,-20,male,2,,167,off,1,0.5,0.75,0.5,0.855,3,166,1,1,2,0,0,0,0,2,,,,,,0,38,38,38,,,,,,,,,,,,,,,,,,,,,,,,,,,,,,,,,,,,,,,,,,,,,,,,,,,,,,,,,460.9311391000001,461.4365515999998,461.4365515999998,462.1892005999998,462.1892005999998,462.69459539999934,462.69459539999934,463.55255769999985,463.55255769999985,None,num_4,0.33088930000030814,463.55255769999985,None,sad,0,Sad,463.89690989999946,None,None,463.89690989999946,None,,,,,,,,,,,,,,,,,,,,,,,,,,,,,,,,,,,,,,,,,,,,,,,,,,,,,46,001,0,19,390,450,2022_Dec_08_1058,Experiment,2021.1.4,359.8507339244707,
images\S5_F_H_02.png,images\S5_F_H_02_scrambled.png,5,happy,20,female,5,,386,off,1,0.5,0.75,0.5,0.895,3,385,2,1,1,0,0,0,0,5,,,,,,0,39,39,39,,,,,,,,,,,,,,,,,,,,,,,,,,,,,,,,,,,,,,,,,,,,,,,,,,,,,,,,,463.9440924999999,464.4467307999994,464.4467307999994,465.1993846999994,465.1993846999994,465.7018819999994,465.7018819999994,466.59895979999965,466.59895979999965,None,num_6,0.37251930000002176,466.59895979999965,None,happy,0,Happy,466.98760789999943,None,None,466.98760789999943,None,,,,,,,,,,,,,,,,,,,,,,,,,,,,,,,,,,,,,,,,,,,,,,,,,,,,,46,001,0,19,390,450,2022_Dec_08_1058,Experiment,2021.1.4,359.8507339244707,
images\S7_F_H_01.png,images\S7_F_H_01_scrambled.png,7,happy,10,female,4,,37,off,1,0.5,0.75,0.5,0.851,3,36,3,1,1,0,0,0,0,4,,,,,,0,40,40,40,,,,,,,,,,,,,,,,,,,,,,,,,,,,,,,,,,,,,,,,,,,,,,,,,,,,,,,,,467.07090249999965,467.5763059000001,467.5763059000001,468.3289337999995,468.3289337999995,468.83438209999986,468.83438209999986,469.69231619999937,469.69231619999937,None,num_6,0.4632156000006944,469.69231619999937,None,happy,0,Happy,470.17822259999946,None,None,470.17822259999946,None,,,,,,,,,,,,,,,,,,,,,,,,,,,,,,,,,,,,,,,,,,,,,,,,,,,,,46,001,0,19,390,450,2022_Dec_08_1058,Experiment,2021.1.4,359.8507339244707,
images\S6_M_H_02.png,images\S6_M_H_02_scrambled.png,6,happy,20,male,5,,32,off,1,0.5,0.75,0.5,0.941,3,31,4,1,1,0,0,0,0,5,,,,,,0,41,41,41,,,,,,,,,,,,,,,,,,,,,,,,,,,,,,,,,,,,,,,,,,,,,,,,,,,,,,,,,470.28934630000003,470.79484129999946,470.79484129999946,471.5501226999995,471.5501226999995,472.0527468999999,472.0527468999999,472.9996989000001,472.9996989000001,None,num_6,0.3476282000001447,472.9996989000001,None,happy,0,Happy,473.3578692999998,None,None,473.3578692999998,None,,,,,,,,,,,,,,,,,,,,,,,,,,,,,,,,,,,,,,,,,,,,,,,,,,,,,46,001,0,19,390,450,2022_Dec_08_1058,Experiment,2021.1.4,359.8507339244707,
images\S7_F_S_02.png,images\S7_F_S_02_scrambled.png,7,sad,-20,female,2,,41,off,1,0.5,0.75,0.5,0.841,3,40,5,1,1,0,0,0,0,2,,,,,,0,42,42,42,,,,,,,,,,,,,,,,,,,,,,,,,,,,,,,,,,,,,,,,,,,,,,,,,,,,,,,,,473.4439268999995,473.94945669999925,473.94945669999925,474.70473969999966,474.70473969999966,475.21010380000007,475.21010380000007,476.05436759999975,476.05436759999975,None,num_4,0.37309300000015355,476.05436759999975,None,sad,0,Sad,476.4402299999997,None,None,476.4402299999997,None,,,,,,,,,,,,,,,,,,,,,,,,,,,,,,,,,,,,,,,,,,,,,,,,,,,,,46,001,0,19,390,450,2022_Dec_08_1058,Experiment,2021.1.4,359.8507339244707,
images\S9_F_S_02.png,images\S9_F_S_02_scrambled.png,9,sad,-20,female,2,,173,off,1,0.5,0.75,0.5,0.948,3,172,6,1,2,0,0,0,0,2,,,,,,0,43,43,43,,,,,,,,,,,,,,,,,,,,,,,,,,,,,,,,,,,,,,,,,,,,,,,,,,,,,,,,,476.52630469999986,477.0289226999994,477.0289226999994,477.7814998999993,477.7814998999993,478.2842150999995,478.2842150999995,479.2394850999999,479.2394850999999,None,num_6,0.2360048000000461,479.2394850999999,None,happy,0,Sad,479.48094029999936,None,None,479.48094029999936,None,,,,,,,,,,,,,,,,,,,,,,,,,,,,,,,,,,,,,,,,,,,,,,,,,,,,,46,001,0,19,390,450,2022_Dec_08_1058,Experiment,2021.1.4,359.8507339244707,
images\S2_M_H_03.png,images\S2_M_H_03_scrambled.png,2,happy,30,male,6,,249,off,1,0.5,0.75,0.5,0.794,3,248,7,1,1,0,0,0,0,6,,,,,,0,44,44,44,,,,,,,,,,,,,,,,,,,,,,,,,,,,,,,,,,,,,,,,,,,,,,,,,,,,,,,,,479.52815549999923,480.02799349999987,480.02799349999987,480.7777734000001,480.7777734000001,481.2804249999999,481.2804249999999,482.0773843999996,482.0773843999996,None,num_6,0.4221800000004805,482.0773843999996,None,happy,0,Happy,482.51330859999945,None,None,482.51330859999945,None,,,,,,,,,,,,,,,,,,,,,,,,,,,,,,,,,,,,,,,,,,,,,,,,,,,,,46,001,0,19,390,450,2022_Dec_08_1058,Experiment,2021.1.4,359.8507339244707,
images\S6_M_H_01.png,images\S6_M_H_01_scrambled.png,6,happy,10,male,4,,451,on,2,0.5,0.75,0.5,0.823,3,450,1,1,1,2,2,32,128,164,,,,,,0,45,45,45,,,,,,,,,,,,,,,,,,,,,,,,,,,,,,,,,,,,,,,,,,,,,,,,,,,,,,,,,482.59665439999935,483.09928599999967,483.09928599999967,483.84906619999947,483.84906619999947,484.3488811999996,484.3488811999996,485.1764312999994,485.1764312999994,None,num_4,0.6990074999994249,485.1764312999994,None,sad,0,Happy,485.88449270000007,None,None,485.88449270000007,None,,,,,,,,,,,,,,,,,,,,,,,,,,,,,,,,,,,,,,,,,,,,,,,,,,,,,46,001,0,19,390,450,2022_Dec_08_1058,Experiment,2021.1.4,359.8507339244707,
images\S5_F_S_02.png,images\S5_F_S_02_scrambled.png,5,sad,-20,female,2,,209,on,2,0.5,0.75,0.5,0.779,3,208,2,1,1,2,2,32,128,162,,,,,,0,46,46,46,,,,,,,,,,,,,,,,,,,,,,,,,,,,,,,,,,,,,,,,,,,,,,,,,,,,,,,,,485.95116269999926,486.45657929999925,486.45657929999925,487.2091047999993,487.2091047999993,487.70898039999975,487.70898039999975,488.4948936999999,488.4948936999999,None,num_6,0.26059079999959067,488.4948936999999,None,happy,0,Sad,488.76417869999966,None,None,488.76417869999966,None,,,,,,,,,,,,,,,,,,,,,,,,,,,,,,,,,,,,,,,,,,,,,,,,,,,,,46,001,0,19,390,450,2022_Dec_08_1058,Experiment,2021.1.4,359.8507339244707,
images\S9_F_S_03.png,images\S9_F_S_03_scrambled.png,9,sad,-30,female,1,,294,off,1,0.5,0.75,0.5,0.85,3,293,1,1,1,0,0,0,0,1,,,,,,0,47,47,47,,,,,,,,,,,,,,,,,,,,,,,,,,,,,,,,,,,,,,,,,,,,,,,,,,,,,,,,,488.8113886000001,489.3168090999998,489.3168090999998,490.0721227999993,490.0721227999993,490.5748102999996,490.5748102999996,491.42725449999944,491.42725449999944,None,num_4,0.45617300000049,491.42725449999944,None,sad,0,Sad,491.8993168999994,None,None,491.8993168999994,None,,,,,,,,,,,,,,,,,,,,,,,,,,,,,,,,,,,,,,,,,,,,,,,,,,,,,46,001,0,19,390,450,2022_Dec_08_1058,Experiment,2021.1.4,359.8507339244707,
images\S3_F_H_02.png,images\S3_F_H_02_scrambled.png,3,happy,20,female,5,,434,on,2,0.5,0.75,0.5,0.897,3,433,1,1,1,2,2,32,128,165,,,,,,0,48,48,48,,,,,,,,,,,,,,,,,,,,,,,,,,,,,,,,,,,,,,,,,,,,,,,,,,,,,,,,,491.9465305999993,492.4492288000001,492.4492288000001,493.19891949999965,493.19891949999965,493.6987595999999,493.6987595999999,494.5985230999995,494.5985230999995,None,num_4,0.1732742000003782,494.5985230999995,None,sad,0,Happy,494.78184759999965,None,None,494.78184759999965,None,,,,,,,,,,,,,,,,,,,,,,,,,,,,,,,,,,,,,,,,,,,,,,,,,,,,,46,001,0,19,390,450,2022_Dec_08_1058,Experiment,2021.1.4,359.8507339244707,
images\S8_M_S_03.png,images\S8_M_S_03_scrambled.png,8,sad,-30,male,1,,168,off,1,0.5,0.75,0.5,0.89,3,167,1,1,1,0,0,0,0,1,,,,,,0,49,49,49,,,,,,,,,,,,,,,,,,,,,,,,,,,,,,,,,,,,,,,,,,,,,,,,,,,,,,,,,494.83731779999925,495.3399823,495.3399823,496.08970919999956,496.08970919999956,496.5951441999996,496.5951441999996,497.49204609999924,497.49204609999924,None,num_4,0.2797201999992467,497.49204609999924,None,sad,0,Sad,497.78638200000006,None,None,497.78638200000006,None,,,,,,,,,,,,,,,,,,,,,,,,,,,,,,,,,,,,,,,,,,,,,,,,,,,,,46,001,0,19,390,450,2022_Dec_08_1058,Experiment,2021.1.4,359.8507339244707,
images\S3_F_S_03.png,images\S3_F_S_03_scrambled.png,3,sad,-30,female,1,,318,on,2,0.5,0.75,0.5,0.911,3,317,1,1,2,2,2,32,128,161,,,,,,0,50,50,50,,,,,,,,,,,,,,,,,,,,,,,,,,,,,,,,,,,,,,,,,,,,,,,,,,,,,,,,,497.8946871999997,498.4001411999998,498.4001411999998,499.1526847999994,499.1526847999994,499.65530769999987,499.65530769999987,500.5688541999998,500.5688541999998,None,num_4,0.33021000000007916,500.5688541999998,None,sad,0,Sad,500.9131918000001,None,None,500.9131918000001,None,,,,,,,,,,,,,,,,,,,,,,,,,,,,,,,,,,,,,,,,,,,,,,,,,,,,,46,001,0,19,390,450,2022_Dec_08_1058,Experiment,2021.1.4,359.8507339244707,
images\S5_F_H_03.png,images\S5_F_H_03_scrambled.png,5,happy,30,female,6,,207,on,2,0.5,0.75,0.5,0.801,3,206,2,1,1,2,2,32,128,166,,,,,,0,51,51,51,,,,,,,,,,,,,,,,,,,,,,,,,,,,,,,,,,,,,,,,,,,,,,,,,,,,,,,,,501.02427199999966,501.5297389999996,501.5297389999996,502.28503550000005,502.28503550000005,502.7876723999998,502.7876723999998,503.5957368999998,503.5957368999998,None,num_6,0.47161880000021483,503.5957368999998,None,happy,0,Happy,504.0816659,None,None,504.0816659,None,,,,,,,,,,,,,,,,,,,,,,,,,,,,,,,,,,,,,,,,,,,,,,,,,,,,,46,001,0,19,390,450,2022_Dec_08_1058,Experiment,2021.1.4,359.8507339244707,
images\blank.jpg,images\blank.jpg,none,none,none,none,0,,615,on,2,0.5,0.75,0.5,0.9,0,614,3,1,1,3,3,48,192,240,,,,,,0,52,52,52,,,,,,,,,,,,,,,,,,,,,,,,,,,,,,,,,,,,,,,,,,,,,,,,,,,,,,,,,504.16522519999944,504.66482129999986,504.66482129999986,505.41736259999925,505.41736259999925,505.91721400000006,505.91721400000006,506.8169275999999,506.8169275999999,506.8169275999999,None,,506.8169275999999,None,miss,0,,509.8216261000001,None,None,509.8216261000001,None,,,,,,,,,,,,,,,,,,,,,,,,,,,,,,,,,,,,,,,,,,,,,,,,,,,,,46,001,0,19,390,450,2022_Dec_08_1058,Experiment,2021.1.4,359.8507339244707,
images\blank.jpg,images\blank.jpg,none,none,none,none,0,,632,on,2,0.5,0.75,0.5,0.781,0,631,4,2,2,3,3,48,192,240,,,,,,0,53,53,53,,,,,,,,,,,,,,,,,,,,,,,,,,,,,,,,,,,,,,,,,,,,,,,,,,,,,,,,,509.85210449999977,510.35477059999994,510.35477059999994,511.1044790999995,511.1044790999995,511.6098822999993,511.6098822999993,512.3902428000001,512.3902428000001,512.3902428000001,None,,512.3902428000001,509.85210449999977,miss,0,,515.3921023999997,None,None,515.3921023999997,None,,,,,,,,,,,,,,,,,,,,,,,,,,,,,,,,,,,,,,,,,,,,,,,,,,,,,46,001,0,19,390,450,2022_Dec_08_1058,Experiment,2021.1.4,359.8507339244707,
images\S2_M_S_01.png,images\S2_M_S_01_scrambled.png,2,sad,-10,male,3,,10,off,1,0.5,0.75,0.5,0.947,3,9,1,1,1,0,0,0,0,3,,,,,,0,54,54,54,,,,,,,,,,,,,,,,,,,,,,,,,,,,,,,,,,,,,,,,,,,,,,,,,,,,,,,,,515.5504031,516.0557654999993,516.0557654999993,516.8082711999996,516.8082711999996,517.3138089999993,517.3138089999993,518.2661792999997,518.2661792999997,None,num_4,0.36140900000009424,518.2661792999997,515.5504031,sad,0,Sad,518.6410052999998,None,None,518.6410052999998,None,,,,,,,,,,,,,,,,,,,,,,,,,,,,,,,,,,,,,,,,,,,,,,,,,,,,,46,001,0,19,390,450,2022_Dec_08_1058,Experiment,2021.1.4,359.8507339244707,
images\S2_M_S_03.png,images\S2_M_S_03_scrambled.png,2,sad,-30,male,1,,132,off,1,0.5,0.75,0.5,0.817,3,131,2,2,1,0,0,0,0,1,,,,,,0,55,55,55,,,,,,,,,,,,,,,,,,,,,,,,,,,,,,,,,,,,,,,,,,,,,,,,,,,,,,,,,518.7271322999995,519.2297769999996,519.2297769999996,519.9851288,519.9851288,520.4877437999994,520.4877437999994,521.3068801,521.3068801,None,num_4,0.5283640999996351,521.3068801,None,sad,0,Sad,521.8483408999999,None,None,521.8483408999999,None,,,,,,,,,,,,,,,,,,,,,,,,,,,,,,,,,,,,,,,,,,,,,,,,,,,,,46,001,0,19,390,450,2022_Dec_08_1058,Experiment,2021.1.4,359.8507339244707,
images\S8_M_S_01.png,images\S8_M_S_01_scrambled.png,8,sad,-10,male,3,,106,on,2,0.5,0.75,0.5,0.857,3,105,1,1,1,2,2,32,128,163,,,,,,0,56,56,56,,,,,,,,,,,,,,,,,,,,,,,,,,,,,,,,,,,,,,,,,,,,,,,,,,,,,,,,,521.9344722999995,522.4399272999999,522.4399272999999,523.1896486999995,523.1896486999995,523.6894938999994,523.6894938999994,524.5503584999997,524.5503584999997,None,num_4,0.3329364000001078,524.5503584999997,None,sad,0,Sad,524.8946808,None,None,524.8946808,None,,,,,,,,,,,,,,,,,,,,,,,,,,,,,,,,,,,,,,,,,,,,,,,,,,,,,46,001,0,19,390,450,2022_Dec_08_1058,Experiment,2021.1.4,359.8507339244707,
images\S10_M_S_02.png,images\S10_M_S_02_scrambled.png,10,sad,-20,male,2,,59,off,1,0.5,0.75,0.5,0.81,3,58,1,1,1,0,0,0,0,2,,,,,,0,57,57,57,,,,,,,,,,,,,,,,,,,,,,,,,,,,,,,,,,,,,,,,,,,,,,,,,,,,,,,,,524.9418633999994,525.4417033,525.4417033,526.1943824,526.1943824,526.6997449999999,526.6997449999999,527.5160952999995,527.5160952999995,None,num_6,0.5112916000007317,527.5160952999995,None,happy,0,Sad,528.0353657999996,None,None,528.0353657999996,None,,,,,,,,,,,,,,,,,,,,,,,,,,,,,,,,,,,,,,,,,,,,,,,,,,,,,46,001,0,19,390,450,2022_Dec_08_1058,Experiment,2021.1.4,359.8507339244707,
images\S8_M_S_01.png,images\S8_M_S_01_scrambled.png,8,sad,-10,male,3,,166,off,1,0.5,0.75,0.5,0.872,3,165,2,1,1,0,0,0,0,3,,,,,,0,58,58,58,,,,,,,,,,,,,,,,,,,,,,,,,,,,,,,,,,,,,,,,,,,,,,,,,,,,,,,,,528.0992239999996,528.6047138999993,528.6047138999993,529.3544120999995,529.3544120999995,529.8570067,529.8570067,530.7345335999998,530.7345335999998,None,num_4,0.35679549999986193,530.7345335999998,None,sad,0,Sad,531.1065874999994,None,None,531.1065874999994,None,,,,,,,,,,,,,,,,,,,,,,,,,,,,,,,,,,,,,,,,,,,,,,,,,,,,,46,001,0,19,390,450,2022_Dec_08_1058,Experiment,2021.1.4,359.8507339244707,
images\S10_M_S_02.png,images\S10_M_S_02_scrambled.png,10,sad,-20,male,2,,539,off,1,0.5,0.75,0.5,0.776,3,538,3,1,1,0,0,0,0,2,,,,,,0,59,59,59,,,,,,,,,,,,,,,,,,,,,,,,,,,,,,,,,,,,,,,,,,,,,,,,,,,,,,,,,531.1538285999995,531.6536735,531.6536735,532.4034693999993,532.4034693999993,532.9033229999995,532.9033229999995,533.6837264999995,533.6837264999995,None,num_6,0.5194290999997975,533.6837264999995,None,happy,0,Sad,534.2084510999998,None,None,534.2084510999998,None,,,,,,,,,,,,,,,,,,,,,,,,,,,,,,,,,,,,,,,,,,,,,,,,,,,,,46,001,0,19,390,450,2022_Dec_08_1058,Experiment,2021.1.4,359.8507339244707,
images\S2_M_H_01.png,images\S2_M_H_01_scrambled.png,2,happy,10,male,4,,487,off,1,0.5,0.75,0.5,0.926,3,486,4,1,1,0,0,0,0,4,,,,,,0,60,60,60,,,,,,,,,,,,,,,,,,,,,,,,,,,,,,,,,,,,,,,,,,,,,,,,,,,,,,,,,534.2917591999994,534.797157,534.797157,535.5497213999997,535.5497213999997,536.0551480999993,536.0551480999993,536.9854046999999,536.9854046999999,None,num_4,0.48982989999967685,536.9854046999999,None,sad,0,Happy,537.4908105999995,None,None,537.4908105999995,None,,,,,,,,,,,,,,,,,,,,,,,,,,,,,,,,,,,,,,,,,,,,,,,,,,,,,46,001,0,19,390,450,2022_Dec_08_1058,Experiment,2021.1.4,359.8507339244707,
images\S2_M_H_02.png,images\S2_M_H_02_scrambled.png,2,happy,20,male,5,,368,off,1,0.5,0.75,0.5,0.775,3,367,5,2,1,0,0,0,0,5,,,,,,0,61,61,61,,,,,,,,,,,,,,,,,,,,,,,,,,,,,,,,,,,,,,,,,,,,,,,,,,,,,,,,,537.6018409999997,538.1045432999999,538.1045432999999,538.8542401999994,538.8542401999994,539.3597027999995,539.3597027999995,540.1399910999999,540.1399910999999,None,num_4,0.31979080000019167,540.1399910999999,None,sad,0,Happy,540.4703781,None,None,540.4703781,None,,,,,,,,,,,,,,,,,,,,,,,,,,,,,,,,,,,,,,,,,,,,,,,,,,,,,46,001,0,19,390,450,2022_Dec_08_1058,Experiment,2021.1.4,359.8507339244707,
images\S2_M_H_02.png,images\S2_M_H_02_scrambled.png,2,happy,20,male,5,,548,on,2,0.5,0.75,0.5,0.785,3,547,1,3,2,2,2,32,128,165,,,,,,0,62,62,62,,,,,,,,,,,,,,,,,,,,,,,,,,,,,,,,,,,,,,,,,,,,,,,,,,,,,,,,,540.5342591999997,541.034122,541.034122,541.7866654,541.7866654,542.2894317,542.2894317,543.0807215999994,543.0807215999994,None,num_6,0.4426610000000437,543.0807215999994,None,happy,0,Happy,543.5555807999999,None,None,543.5555807999999,None,,,,,,,,,,,,,,,,,,,,,,,,,,,,,,,,,,,,,,,,,,,,,,,,,,,,,46,001,0,19,390,450,2022_Dec_08_1058,Experiment,2021.1.4,359.8507339244707,
images\S9_F_S_03.png,images\S9_F_S_03_scrambled.png,9,sad,-30,female,1,,354,on,2,0.5,0.75,0.5,0.853,3,353,2,1,1,2,2,32,128,161,,,,,,0,63,63,63,,,,,,,,,,,,,,,,,,,,,,,,,,,,,,,,,,,,,,,,,,,,,,,,,,,,,,,,,543.6194161999993,544.1248691999999,544.1248691999999,544.8801883999995,544.8801883999995,545.3827510000001,545.3827510000001,546.2408491999995,546.2408491999995,None,num_4,0.42629570000008243,546.2408491999995,None,sad,0,Sad,546.6795409999994,None,None,546.6795409999994,None,,,,,,,,,,,,,,,,,,,,,,,,,,,,,,,,,,,,,,,,,,,,,,,,,,,,,46,001,0,19,390,450,2022_Dec_08_1058,Experiment,2021.1.4,359.8507339244707,
images\S10_M_S_03.png,images\S10_M_S_03_scrambled.png,10,sad,-30,male,1,,300,off,1,0.5,0.75,0.5,0.874,3,299,1,1,2,0,0,0,0,1,,,,,,0,64,64,64,,,,,,,,,,,,,,,,,,,,,,,,,,,,,,,,,,,,,,,,,,,,,,,,,,,,,,,,,546.7434491999993,547.2460977999999,547.2460977999999,547.9986289999997,547.9986289999997,548.4984249999998,548.4984249999998,549.3760019000001,549.3760019000001,None,num_4,0.31514939999942726,549.3760019000001,None,sad,0,Sad,549.7036282999997,None,None,549.7036282999997,None,,,,,,,,,,,,,,,,,,,,,,,,,,,,,,,,,,,,,,,,,,,,,,,,,,,,,46,001,0,19,390,450,2022_Dec_08_1058,Experiment,2021.1.4,359.8507339244707,
images\S2_M_S_02.png,images\S2_M_S_02_scrambled.png,2,sad,-20,male,2,,251,off,1,0.5,0.75,0.5,0.839,3,250,2,1,1,0,0,0,0,2,,,,,,0,65,65,65,,,,,,,,,,,,,,,,,,,,,,,,,,,,,,,,,,,,,,,,,,,,,,,,,,,,,,,,,549.7536236999995,550.2562669999998,550.2562669999998,551.0088157,551.0088157,551.5143449999996,551.5143449999996,552.3528239999996,552.3528239999996,None,num_4,0.4903929000001881,552.3528239999996,None,sad,0,Sad,552.8581849000001,None,None,552.8581849000001,None,,,,,,,,,,,,,,,,,,,,,,,,,,,,,,,,,,,,,,,,,,,,,,,,,,,,,46,001,0,19,390,450,2022_Dec_08_1058,Experiment,2021.1.4,359.8507339244707,
images\S7_F_H_01.png,images\S7_F_H_01_scrambled.png,7,happy,10,female,4,,577,on,2,0.5,0.75,0.5,0.858,3,576,1,1,1,2,2,32,128,164,,,,,,0,66,66,66,,,,,,,,,,,,,,,,,,,,,,,,,,,,,,,,,,,,,,,,,,,,,,,,,,,,,,,,,552.9136939999999,553.4164139999993,553.4164139999993,554.1717271999996,554.1717271999996,554.6771329999992,554.6771329999992,555.5379563999995,555.5379563999995,None,num_6,0.30588600000010047,555.5379563999995,None,happy,0,Happy,555.8712605999996,None,None,555.8712605999996,None,,,,,,,,,,,,,,,,,,,,,,,,,,,,,,,,,,,,,,,,,,,,,,,,,,,,,46,001,0,19,390,450,2022_Dec_08_1058,Experiment,2021.1.4,359.8507339244707,
images\S8_M_H_02.png,images\S8_M_H_02_scrambled.png,8,happy,20,male,5,,344,on,2,0.5,0.75,0.5,0.793,3,343,2,1,1,2,2,32,128,165,,,,,,0,67,67,67,,,,,,,,,,,,,,,,,,,,,,,,,,,,,,,,,,,,,,,,,,,,,,,,,,,,,,,,,555.9683694999994,556.4710264999994,556.4710264999994,557.2207539999999,557.2207539999999,557.7261951999999,557.7261951999999,558.5259654000001,558.5259654000001,None,num_6,0.42987259999972594,558.5259654000001,None,happy,0,Happy,558.9730278999998,None,None,558.9730278999998,None,,,,,,,,,,,,,,,,,,,,,,,,,,,,,,,,,,,,,,,,,,,,,,,,,,,,,46,001,0,19,390,450,2022_Dec_08_1058,Experiment,2021.1.4,359.8507339244707,
images\S2_M_H_02.png,images\S2_M_H_02_scrambled.png,2,happy,20,male,5,,488,off,1,0.5,0.75,0.5,0.94,3,487,1,1,2,0,0,0,0,5,,,,,,0,68,68,68,,,,,,,,,,,,,,,,,,,,,,,,,,,,,,,,,,,,,,,,,,,,,,,,,,,,,,,,,559.0257523,559.5283823999998,559.5283823999998,560.2836969,560.2836969,560.7863570999998,560.7863570999998,561.7305521999997,561.7305521999997,None,num_4,0.39274550000027375,561.7305521999997,None,sad,0,Happy,562.1330893999994,None,None,562.1330893999994,None,,,,,,,,,,,,,,,,,,,,,,,,,,,,,,,,,,,,,,,,,,,,,,,,,,,,,46,001,0,19,390,450,2022_Dec_08_1058,Experiment,2021.1.4,359.8507339244707,
images\S3_F_H_02.png,images\S3_F_H_02_scrambled.png,3,happy,20,female,5,,194,on,2,0.5,0.75,0.5,0.879,3,193,1,1,3,2,2,32,128,165,,,,,,0,69,69,69,,,,,,,,,,,,,,,,,,,,,,,,,,,,,,,,,,,,,,,,,,,,,,,,,,,,,,,,,562.1914336999998,562.6940684000001,562.6940684000001,563.4466347999996,563.4466347999996,563.9464514000001,563.9464514000001,564.8296477999993,564.8296477999993,None,num_6,0.317653899999641,564.8296477999993,None,happy,0,Happy,565.1627464000002,None,None,565.1627464000002,None,,,,,,,,,,,,,,,,,,,,,,,,,,,,,,,,,,,,,,,,,,,,,,,,,,,,,46,001,0,19,390,450,2022_Dec_08_1058,Experiment,2021.1.4,359.8507339244707,
images\S5_F_H_01.png,images\S5_F_H_01_scrambled.png,5,happy,10,female,4,,445,on,2,0.5,0.75,0.5,0.815,3,444,2,1,1,2,2,32,128,164,,,,,,0,70,70,70,,,,,,,,,,,,,,,,,,,,,,,,,,,,,,,,,,,,,,,,,,,,,,,,,,,,,,,,,565.2460548999998,565.7486671999995,565.7486671999995,566.5012551,566.5012551,567.0066459,567.0066459,567.8258591999993,567.8258591999993,None,num_6,0.24119250000057946,567.8258591999993,None,happy,0,Happy,568.0812697999999,None,None,568.0812697999999,None,,,,,,,,,,,,,,,,,,,,,,,,,,,,,,,,,,,,,,,,,,,,,,,,,,,,,46,001,0,19,390,450,2022_Dec_08_1058,Experiment,2021.1.4,359.8507339244707,
images\blank.jpg,images\blank.jpg,none,none,none,none,0,,614,on,2,0.5,0.75,0.5,0.881,0,613,3,1,1,3,3,48,192,240,,,,,,0,71,71,71,,,,,,,,,,,,,,,,,,,,,,,,,,,,,,,,,,,,,,,,,,,,,,,,,,,,,,,,,568.1648620999995,568.6672241999995,568.6672241999995,569.4169727999997,569.4169727999997,569.9197219999996,569.9197219999996,570.8055433999998,570.8055433999998,570.8055433999998,None,,570.8055433999998,None,miss,0,,573.8101341999995,None,None,573.8101341999995,None,,,,,,,,,,,,,,,,,,,,,,,,,,,,,,,,,,,,,,,,,,,,,,,,,,,,,46,001,0,19,390,450,2022_Dec_08_1058,Experiment,2021.1.4,359.8507339244707,
images\S7_F_S_03.png,images\S7_F_S_03_scrambled.png,7,sad,-30,female,1,,222,on,2,0.5,0.75,0.5,0.813,3,221,4,1,1,2,2,32,128,161,,,,,,0,72,72,72,,,,,,,,,,,,,,,,,,,,,,,,,,,,,,,,,,,,,,,,,,,,,,,,,,,,,,,,,573.9324735,574.4348671999996,574.4348671999996,575.1846404999997,575.1846404999997,575.6901816,575.6901816,576.5064511999999,576.5064511999999,None,num_4,0.3045957999993334,576.5064511999999,573.9324735,sad,0,Sad,576.8230281000001,None,None,576.8230281000001,None,,,,,,,,,,,,,,,,,,,,,,,,,,,,,,,,,,,,,,,,,,,,,,,,,,,,,46,001,0,19,390,450,2022_Dec_08_1058,Experiment,2021.1.4,359.8507339244707,
images\S5_F_H_02.png,images\S5_F_H_02_scrambled.png,5,happy,20,female,5,,566,on,2,0.5,0.75,0.5,0.769,3,565,5,1,1,2,2,32,128,165,,,,,,0,73,73,73,,,,,,,,,,,,,,,,,,,,,,,,,,,,,,,,,,,,,,,,,,,,,,,,,,,,,,,,,576.8702282999993,577.3700920000001,577.3700920000001,578.1226344999995,578.1226344999995,578.6253732999994,578.6253732999994,579.4028754999999,579.4028754999999,None,num_6,0.43263279999973747,579.4028754999999,None,happy,0,Happy,579.8554044999994,None,None,579.8554044999994,None,,,,,,,,,,,,,,,,,,,,,,,,,,,,,,,,,,,,,,,,,,,,,,,,,,,,,46,001,0,19,390,450,2022_Dec_08_1058,Experiment,2021.1.4,359.8507339244707,
images\S7_F_S_03.png,images\S7_F_S_03_scrambled.png,7,sad,-30,female,1,,162,off,1,0.5,0.75,0.5,0.813,3,161,1,1,1,0,0,0,0,1,,,,,,0,74,74,74,,,,,,,,,,,,,,,,,,,,,,,,,,,,,,,,,,,,,,,,,,,,,,,,,,,,,,,,,579.9026249999997,580.4053704999997,580.4053704999997,581.1606440999994,581.1606440999994,581.6660204,581.6660204,582.4795945999995,582.4795945999995,None,num_4,0.3153744999999617,582.4795945999995,None,sad,0,Sad,582.8128298999995,None,None,582.8128298999995,None,,,,,,,,,,,,,,,,,,,,,,,,,,,,,,,,,,,,,,,,,,,,,,,,,,,,,46,001,0,19,390,450,2022_Dec_08_1058,Experiment,2021.1.4,359.8507339244707,
images\S2_M_S_03.png,images\S2_M_S_03_scrambled.png,2,sad,-30,male,1,,12,off,1,0.5,0.75,0.5,0.776,3,11,2,1,2,0,0,0,0,1,,,,,,0,75,75,75,,,,,,,,,,,,,,,,,,,,,,,,,,,,,,,,,,,,,,,,,,,,,,,,,,,,,,,,,582.8600403,583.3655642999993,583.3655642999993,584.1151990999997,584.1151990999997,584.6206579999998,584.6206579999998,585.4009713999994,585.4009713999994,None,num_4,0.4182074999998804,585.4009713999994,None,sad,0,Sad,585.8340815999999,None,None,585.8340815999999,None,,,,,,,,,,,,,,,,,,,,,,,,,,,,,,,,,,,,,,,,,,,,,,,,,,,,,46,001,0,19,390,450,2022_Dec_08_1058,Experiment,2021.1.4,359.8507339244707,
images\S9_F_S_01.png,images\S9_F_S_01_scrambled.png,9,sad,-10,female,3,,112,on,2,0.5,0.75,0.5,0.906,3,111,1,1,1,2,2,32,128,163,,,,,,0,76,76,76,,,,,,,,,,,,,,,,,,,,,,,,,,,,,,,,,,,,,,,,,,,,,,,,,,,,,,,,,585.9146522000001,586.4172742999999,586.4172742999999,587.1699410000001,587.1699410000001,587.6724563999996,587.6724563999996,588.5805776999996,588.5805776999996,None,num_6,0.24637409999922966,588.5805776999996,None,happy,0,Sad,588.8359292,None,None,588.8359292,None,,,,,,,,,,,,,,,,,,,,,,,,,,,,,,,,,,,,,,,,,,,,,,,,,,,,,46,001,0,19,390,450,2022_Dec_08_1058,Experiment,2021.1.4,359.8507339244707,
images\S10_M_S_01.png,images\S10_M_S_01_scrambled.png,10,sad,-10,male,3,,298,off,1,0.5,0.75,0.5,0.903,3,297,1,1,2,0,0,0,0,3,,,,,,0,77,77,77,,,,,,,,,,,,,,,,,,,,,,,,,,,,,,,,,,,,,,,,,,,,,,,,,,,,,,,,,588.8831694999999,589.3857966999994,589.3857966999994,590.1355881999998,590.1355881999998,590.6354261999995,590.6354261999995,591.5407350999994,591.5407350999994,None,num_6,0.4303570000001855,591.5407350999994,None,happy,0,Sad,591.9766711999996,None,None,591.9766711999996,None,,,,,,,,,,,,,,,,,,,,,,,,,,,,,,,,,,,,,,,,,,,,,,,,,,,,,46,001,0,19,390,450,2022_Dec_08_1058,Experiment,2021.1.4,359.8507339244707,
images\S7_F_H_03.png,images\S7_F_H_03_scrambled.png,7,happy,30,female,6,,99,on,2,0.5,0.75,0.5,0.813,3,98,1,1,1,2,2,32,128,166,,,,,,0,78,78,78,,,,,,,,,,,,,,,,,,,,,,,,,,,,,,,,,,,,,,,,,,,,,,,,,,,,,,,,,592.0877425999997,592.5875744999994,592.5875744999994,593.3402071,593.3402071,593.8427681999992,593.8427681999992,594.6619639,594.6619639,None,num_6,0.46132179999949585,594.6619639,None,happy,0,Happy,595.1506705999997,None,None,595.1506705999997,None,,,,,,,,,,,,,,,,,,,,,,,,,,,,,,,,,,,,,,,,,,,,,,,,,,,,,46,001,0,19,390,450,2022_Dec_08_1058,Experiment,2021.1.4,359.8507339244707,
images\S2_M_H_01.png,images\S2_M_H_01_scrambled.png,2,happy,10,male,4,,367,off,1,0.5,0.75,0.5,0.882,3,366,1,1,1,0,0,0,0,4,,,,,,0,79,79,79,,,,,,,,,,,,,,,,,,,,,,,,,,,,,,,,,,,,,,,,,,,,,,,,,,,,,,,,,595.2034316999998,595.7061041999996,595.7061041999996,596.4586100999995,596.4586100999995,596.9585048999998,596.9585048999998,597.8443075999994,597.8443075999994,None,num_6,0.38297359999978653,597.8443075999994,None,happy,0,Happy,598.2386410999997,None,None,598.2386410999997,None,,,,,,,,,,,,,,,,,,,,,,,,,,,,,,,,,,,,,,,,,,,,,,,,,,,,,46,001,0,19,390,450,2022_Dec_08_1058,Experiment,2021.1.4,359.8507339244707,
images\S4_M_S_02.png,images\S4_M_S_02_scrambled.png,4,sad,-20,male,2,,323,on,2,0.5,0.75,0.5,0.911,3,322,1,1,1,2,2,32,128,162,,,,,,0,80,80,80,,,,,,,,,,,,,,,,,,,,,,,,,,,,,,,,,,,,,,,,,,,,,,,,,,,,,,,,,598.3219118999996,598.8273327999996,598.8273327999996,599.5799996999995,599.5799996999995,600.0853093999995,600.0853093999995,601.0016714999992,601.0016714999992,None,num_4,0.3141392999996242,601.0016714999992,None,sad,0,Sad,601.3266586999997,None,None,601.3266586999997,None,,,,,,,,,,,,,,,,,,,,,,,,,,,,,,,,,,,,,,,,,,,,,,,,,,,,,46,001,0,19,390,450,2022_Dec_08_1058,Experiment,2021.1.4,359.8507339244707,
images\S2_M_H_01.png,images\S2_M_H_01_scrambled.png,2,happy,10,male,4,,547,on,2,0.5,0.75,0.5,0.774,3,546,2,1,1,2,2,32,128,164,,,,,,0,81,81,81,,,,,,,,,,,,,,,,,,,,,,,,,,,,,,,,,,,,,,,,,,,,,,,,,,,,,,,,,601.3737504000001,601.8735874999993,601.8735874999993,602.6261791999996,602.6261791999996,603.1287594999994,603.1287594999994,603.9063323,603.9063323,None,num_6,0.3529775000006339,603.9063323,None,happy,0,Happy,604.2728151999999,None,None,604.2728151999999,None,,,,,,,,,,,,,,,,,,,,,,,,,,,,,,,,,,,,,,,,,,,,,,,,,,,,,46,001,0,19,390,450,2022_Dec_08_1058,Experiment,2021.1.4,359.8507339244707,
images\S9_F_H_03.png,images\S9_F_H_03_scrambled.png,9,happy,30,female,6,,171,off,1,0.5,0.75,0.5,0.853,3,170,1,1,1,0,0,0,0,6,,,,,,0,82,82,82,,,,,,,,,,,,,,,,,,,,,,,,,,,,,,,,,,,,,,,,,,,,,,,,,,,,,,,,,604.3561596,604.8560035999999,604.8560035999999,605.6057741999994,605.6057741999994,606.1112090999995,606.1112090999995,606.9693625999998,606.9693625999998,None,num_6,0.45811390000017127,606.9693625999998,None,happy,0,Happy,607.4412817000001,None,None,607.4412817000001,None,,,,,,,,,,,,,,,,,,,,,,,,,,,,,,,,,,,,,,,,,,,,,,,,,,,,,46,001,0,19,390,450,2022_Dec_08_1058,Experiment,2021.1.4,359.8507339244707,
images\S7_F_H_01.png,images\S7_F_H_01_scrambled.png,7,happy,10,female,4,,97,on,2,0.5,0.75,0.5,0.786,3,96,1,1,1,2,2,32,128,164,,,,,,0,83,83,83,,,,,,,,,,,,,,,,,,,,,,,,,,,,,,,,,,,,,,,,,,,,,,,,,,,,,,,,,607.4885213999996,607.9940483999999,607.9940483999999,608.7436775999995,608.7436775999995,609.2435287999997,609.2435287999997,610.0350873999996,610.0350873999996,None,num_6,0.27195750000009866,610.0350873999996,None,happy,0,Happy,610.3181815999995,None,None,610.3181815999995,None,,,,,,,,,,,,,,,,,,,,,,,,,,,,,,,,,,,,,,,,,,,,,,,,,,,,,46,001,0,19,390,450,2022_Dec_08_1058,Experiment,2021.1.4,359.8507339244707,
images\S6_M_S_03.png,images\S6_M_S_03_scrambled.png,6,sad,-30,male,1,,516,off,1,0.5,0.75,0.5,0.784,3,515,1,1,1,0,0,0,0,1,,,,,,0,84,84,84,,,,,,,,,,,,,,,,,,,,,,,,,,,,,,,,,,,,,,,,,,,,,,,,,,,,,,,,,610.4015067999999,610.9042635999995,610.9042635999995,611.6566997,611.6566997,612.1565121999993,612.1565121999993,612.9452973999996,612.9452973999996,None,num_4,0.5061114999998608,612.9452973999996,None,sad,0,Sad,613.4672832999997,None,None,613.4672832999997,None,,,,,,,,,,,,,,,,,,,,,,,,,,,,,,,,,,,,,,,,,,,,,,,,,,,,,46,001,0,19,390,450,2022_Dec_08_1058,Experiment,2021.1.4,359.8507339244707,
images\blank.jpg,images\blank.jpg,none,none,none,none,0,,607,on,2,0.5,0.75,0.5,0.925,0,606,1,1,1,3,3,48,192,240,,,,,,0,85,85,85,,,,,,,,,,,,,,,,,,,,,,,,,,,,,,,,,,,,,,,,,,,,,,,,,,,,,,,,,613.5535363999998,614.0531597999998,614.0531597999998,614.8084838999994,614.8084838999994,615.3083220999997,615.3083220999997,616.2330004999994,616.2330004999994,616.2330004999994,None,,616.2330004999994,None,miss,0,,619.2349541999997,None,None,619.2349541999997,None,,,,,,,,,,,,,,,,,,,,,,,,,,,,,,,,,,,,,,,,,,,,,,,,,,,,,46,001,0,19,390,450,2022_Dec_08_1058,Experiment,2021.1.4,359.8507339244707,
images\blank.jpg,images\blank.jpg,none,none,none,none,0,,609,on,2,0.5,0.75,0.5,0.786,0,608,2,2,2,3,3,48,192,240,,,,,,0,86,86,86,,,,,,,,,,,,,,,,,,,,,,,,,,,,,,,,,,,,,,,,,,,,,,,,,,,,,,,,,619.2654472999993,619.7708859999993,619.7708859999993,620.5206001999995,620.5206001999995,621.0260439999993,621.0260439999993,621.8146655999999,621.8146655999999,621.8146655999999,None,,621.8146655999999,619.2654472999993,miss,0,,624.8193630999999,None,None,624.8193630999999,None,,,,,,,,,,,,,,,,,,,,,,,,,,,,,,,,,,,,,,,,,,,,,,,,,,,,,46,001,0,19,390,450,2022_Dec_08_1058,Experiment,2021.1.4,359.8507339244707,
images\S9_F_H_03.png,images\S9_F_H_03_scrambled.png,9,happy,30,female,6,,531,off,1,0.5,0.75,0.5,0.868,3,530,1,1,1,0,0,0,0,6,,,,,,0,87,87,87,,,,,,,,,,,,,,,,,,,,,,,,,,,,,,,,,,,,,,,,,,,,,,,,,,,,,,,,,624.9471714000001,625.4497731000001,625.4497731000001,626.2021863,626.2021863,626.7047847999993,626.7047847999993,627.5796586999995,627.5796586999995,None,num_6,0.3594244999994771,627.5796586999995,624.9471714000001,happy,0,Happy,627.9655664999997,None,None,627.9655664999997,None,,,,,,,,,,,,,,,,,,,,,,,,,,,,,,,,,,,,,,,,,,,,,,,,,,,,,46,001,0,19,390,450,2022_Dec_08_1058,Experiment,2021.1.4,359.8507339244707,
images\S8_M_S_03.png,images\S8_M_S_03_scrambled.png,8,sad,-30,male,1,,588,on,2,0.5,0.75,0.5,0.851,3,587,1,1,1,2,2,32,128,161,,,,,,0,88,88,88,,,,,,,,,,,,,,,,,,,,,,,,,,,,,,,,,,,,,,,,,,,,,,,,,,,,,,,,,628.0182715000001,628.5208996000001,628.5208996000001,629.2734461,629.2734461,629.7733430999997,629.7733430999997,630.6313987999993,630.6313987999993,None,num_4,0.4756208999997398,630.6313987999993,None,sad,0,Sad,631.1200552999998,None,None,631.1200552999998,None,,,,,,,,,,,,,,,,,,,,,,,,,,,,,,,,,,,,,,,,,,,,,,,,,,,,,46,001,0,19,390,450,2022_Dec_08_1058,Experiment,2021.1.4,359.8507339244707,
images\S5_F_S_01.png,images\S5_F_S_01_scrambled.png,5,sad,-10,female,3,,388,off,1,0.5,0.75,0.5,0.917,3,387,1,1,1,0,0,0,0,3,,,,,,0,89,89,89,,,,,,,,,,,,,,,,,,,,,,,,,,,,,,,,,,,,,,,,,,,,,,,,,,,,,,,,,631.1673000999999,631.6727109999993,631.6727109999993,632.4252613999997,632.4252613999997,632.9278615999992,632.9278615999992,633.8498771999994,633.8498771999994,None,num_6,0.5453181000002587,633.8498771999994,None,happy,0,Sad,634.4023764999997,None,None,634.4023764999997,None,,,,,,,,,,,,,,,,,,,,,,,,,,,,,,,,,,,,,,,,,,,,,,,,,,,,,46,001,0,19,390,450,2022_Dec_08_1058,Experiment,2021.1.4,359.8507339244707,
images\S4_M_H_03.png,images\S4_M_H_03_scrambled.png,4,happy,30,male,6,,81,on,2,0.5,0.75,0.5,0.813,3,80,1,1,1,2,2,32,128,166,,,,,,0,90,90,90,,,,,,,,,,,,,,,,,,,,,,,,,,,,,,,,,,,,,,,,,,,,,,,,,,,,,,,,,634.4857195999994,634.9911515999993,634.9911515999993,635.7436971999996,635.7436971999996,636.2435509999996,636.2435509999996,637.0600577999994,637.0600577999994,None,num_4,0.4870504999998957,637.0600577999994,None,sad,0,Happy,637.5569818999998,None,None,637.5569818999998,None,,,,,,,,,,,,,,,,,,,,,,,,,,,,,,,,,,,,,,,,,,,,,,,,,,,,,46,001,0,19,390,450,2022_Dec_08_1058,Experiment,2021.1.4,359.8507339244707,
images\S9_F_H_03.png,images\S9_F_H_03_scrambled.png,9,happy,30,female,6,,291,off,1,0.5,0.75,0.5,0.901,3,290,1,1,2,0,0,0,0,6,,,,,,0,91,91,91,,,,,,,,,,,,,,,,,,,,,,,,,,,,,,,,,,,,,,,,,,,,,,,,,,,,,,,,,637.6041938999997,638.1068458,638.1068458,638.8621518,638.8621518,639.3649013999993,639.3649013999993,640.2729067999999,640.2729067999999,None,num_6,0.4582399999999325,640.2729067999999,None,happy,0,Happy,640.7448515999994,None,None,640.7448515999994,None,,,,,,,,,,,,,,,,,,,,,,,,,,,,,,,,,,,,,,,,,,,,,,,,,,,,,46,001,0,19,390,450,2022_Dec_08_1058,Experiment,2021.1.4,359.8507339244707,
images\S3_F_H_03.png,images\S3_F_H_03_scrambled.png,3,happy,30,female,6,,135,off,1,0.5,0.75,0.5,0.764,3,134,2,1,3,0,0,0,0,6,,,,,,0,92,92,92,,,,,,,,,,,,,,,,,,,,,,,,,,,,,,,,,,,,,,,,,,,,,,,,,,,,,,,,,640.8282008999995,641.3335963999998,641.3335963999998,642.0833610999998,642.0833610999998,642.5860282999993,642.5860282999993,643.3552704999993,643.3552704999993,None,num_6,0.5037470999996003,643.3552704999993,None,happy,0,Happy,643.8716671999999,None,None,643.8716671999999,None,,,,,,,,,,,,,,,,,,,,,,,,,,,,,,,,,,,,,,,,,,,,,,,,,,,,,46,001,0,19,390,450,2022_Dec_08_1058,Experiment,2021.1.4,359.8507339244707,
images\S10_M_S_01.png,images\S10_M_S_01_scrambled.png,10,sad,-10,male,3,,58,off,1,0.5,0.75,0.5,0.854,3,57,3,1,1,0,0,0,0,3,,,,,,0,93,93,93,,,,,,,,,,,,,,,,,,,,,,,,,,,,,,,,,,,,,,,,,,,,,,,,,,,,,,,,,643.9189177999997,644.4215525,644.4215525,645.1741081,645.1741081,645.6767241999996,645.6767241999996,646.5348992999998,646.5348992999998,None,num_4,0.5721992999997383,646.5348992999998,None,sad,0,Sad,647.1373315000001,None,None,647.1373315000001,None,,,,,,,,,,,,,,,,,,,,,,,,,,,,,,,,,,,,,,,,,,,,,,,,,,,,,46,001,0,19,390,450,2022_Dec_08_1058,Experiment,2021.1.4,359.8507339244707,
images\S3_F_S_02.png,images\S3_F_S_02_scrambled.png,3,sad,-20,female,2,,317,on,2,0.5,0.75,0.5,0.927,3,316,1,1,1,2,2,32,128,162,,,,,,0,94,94,94,,,,,,,,,,,,,,,,,,,,,,,,,,,,,,,,,,,,,,,,,,,,,,,,,,,,,,,,,647.2234324000001,647.7260951999997,647.7260951999997,648.4814170999998,648.4814170999998,648.9840410999996,648.9840410999996,649.9170667999997,649.9170667999997,None,num_4,0.5261200000004465,649.9170667999997,None,sad,0,Sad,650.4557371,None,None,650.4557371,None,,,,,,,,,,,,,,,,,,,,,,,,,,,,,,,,,,,,,,,,,,,,,,,,,,,,,46,001,0,19,390,450,2022_Dec_08_1058,Experiment,2021.1.4,359.8507339244707,
images\S6_M_S_03.png,images\S6_M_S_03_scrambled.png,6,sad,-30,male,1,,576,on,2,0.5,0.75,0.5,0.783,3,575,2,1,1,2,2,32,128,161,,,,,,0,95,95,95,,,,,,,,,,,,,,,,,,,,,,,,,,,,,,,,,,,,,,,,,,,,,,,,,,,,,,,,,650.5029951999995,651.0056519999998,651.0056519999998,651.7581531999995,651.7581531999995,652.2607902,652.2607902,653.0466723,653.0466723,None,num_4,0.5405538999993951,653.0466723,None,sad,0,Sad,653.6131199000001,None,None,653.6131199000001,None,,,,,,,,,,,,,,,,,,,,,,,,,,,,,,,,,,,,,,,,,,,,,,,,,,,,,46,001,0,19,390,450,2022_Dec_08_1058,Experiment,2021.1.4,359.8507339244707,
images\S2_M_S_03.png,images\S2_M_S_03_scrambled.png,2,sad,-30,male,1,,372,off,1,0.5,0.75,0.5,0.786,3,371,1,1,2,0,0,0,0,1,,,,,,0,96,96,96,,,,,,,,,,,,,,,,,,,,,,,,,,,,,,,,,,,,,,,,,,,,,,,,,,,,,,,,,653.6686602,654.1712864000001,654.1712864000001,654.9238709000001,654.9238709000001,655.4264464999997,655.4264464999997,656.2150978999998,656.2150978999998,None,num_4,0.3959208000005674,656.2150978999998,None,sad,0,Sad,656.6315932,None,None,656.6315932,None,,,,,,,,,,,,,,,,,,,,,,,,,,,,,,,,,,,,,,,,,,,,,,,,,,,,,46,001,0,19,390,450,2022_Dec_08_1058,Experiment,2021.1.4,359.8507339244707,
images\S10_M_H_02.png,images\S10_M_H_02_scrambled.png,10,happy,20,male,5,,56,off,1,0.5,0.75,0.5,0.898,3,55,2,1,1,0,0,0,0,5,,,,,,0,97,97,97,,,,,,,,,,,,,,,,,,,,,,,,,,,,,,,,,,,,,,,,,,,,,,,,,,,,,,,,,656.7066099999993,657.2093587999998,657.2093587999998,657.9618038999997,657.9618038999997,658.4645506999996,658.4645506999996,659.3669370999996,659.3669370999996,None,num_6,0.41220870000051946,659.3669370999996,None,happy,0,Happy,659.8029237999999,None,None,659.8029237999999,None,,,,,,,,,,,,,,,,,,,,,,,,,,,,,,,,,,,,,,,,,,,,,,,,,,,,,46,001,0,19,390,450,2022_Dec_08_1058,Experiment,2021.1.4,359.8507339244707,
images\S10_M_H_02.png,images\S10_M_H_02_scrambled.png,10,happy,20,male,5,,236,on,2,0.5,0.75,0.5,0.858,3,235,1,2,2,2,2,32,128,165,,,,,,0,98,98,98,,,,,,,,,,,,,,,,,,,,,,,,,,,,,,,,,,,,,,,,,,,,,,,,,,,,,,,,,659.8528579999993,660.3554949999998,660.3554949999998,661.1108414999999,661.1108414999999,661.6162366999997,661.6162366999997,662.4770730999999,662.4770730999999,None,num_6,0.46988340000007156,662.4770730999999,None,happy,0,Happy,662.9574616999997,None,None,662.9574616999997,None,,,,,,,,,,,,,,,,,,,,,,,,,,,,,,,,,,,,,,,,,,,,,,,,,,,,,46,001,0,19,390,450,2022_Dec_08_1058,Experiment,2021.1.4,359.8507339244707,
images\S9_F_S_01.png,images\S9_F_S_01_scrambled.png,9,sad,-10,female,3,,292,off,1,0.5,0.75,0.5,0.821,3,291,1,1,1,0,0,0,0,3,,,,,,0,99,99,99,,,,,,,,,,,,,,,,,,,,,,,,,,,,,,,,,,,,,,,,,,,,,,,,,,,,,,,,,663.0046585,663.5101913999997,663.5101913999997,664.2598432999994,664.2598432999994,664.7596970999994,664.7596970999994,665.5845340999995,665.5845340999995,None,num_6,0.5548592000004646,665.5845340999995,None,happy,0,Sad,666.1481252999997,None,None,666.1481252999997,None,,,,,,,,,,,,,,,,,,,,,,,,,,,,,,,,,,,,,,,,,,,,,,,,,,,,,46,001,0,19,390,450,2022_Dec_08_1058,Experiment,2021.1.4,359.8507339244707,
images\S5_F_S_03.png,images\S5_F_S_03_scrambled.png,5,sad,-30,female,1,,270,off,1,0.5,0.75,0.5,0.796,3,269,2,1,1,0,0,0,0,1,,,,,,0,100,100,100,,,,,,,,,,,,,,,,,,,,,,,,,,,,,,,,,,,,,,,,,,,,,,,,,,,,,,,,,666.2564302000001,666.7591888999996,666.7591888999996,667.5145106,667.5145106,668.0199001999999,668.0199001999999,668.8223197999996,668.8223197999996,None,num_4,0.4847196000000622,668.8223197999996,None,sad,0,Sad,669.3221184000002,None,None,669.3221184000002,None,,,,,,,,,,,,,,,,,,,,,,,,,,,,,,,,,,,,,,,,,,,,,,,,,,,,,46,001,0,19,390,450,2022_Dec_08_1058,Experiment,2021.1.4,359.8507339244707,
images\S2_M_H_02.png,images\S2_M_H_02_scrambled.png,2,happy,20,male,5,,188,on,2,0.5,0.75,0.5,0.925,3,187,1,1,1,2,2,32,128,165,,,,,,0,101,101,101,,,,,,,,,,,,,,,,,,,,,,,,,,,,,,,,,,,,,,,,,,,,,,,,,,,,,,,,,669.3693516999992,669.8691970999998,669.8691970999998,670.6245329999992,670.6245329999992,671.1300475999997,671.1300475999997,672.0602783999993,672.0602783999993,None,num_6,0.518874099999266,672.0602783999993,None,happy,0,Happy,672.5906044000002,None,None,672.5906044000002,None,,,,,,,,,,,,,,,,,,,,,,,,,,,,,,,,,,,,,,,,,,,,,,,,,,,,,46,001,0,19,390,450,2022_Dec_08_1058,Experiment,2021.1.4,359.8507339244707,
images\S3_F_H_03.png,images\S3_F_H_03_scrambled.png,3,happy,30,female,6,,375,off,1,0.5,0.75,0.5,0.805,3,374,1,1,1,0,0,0,0,6,,,,,,0,102,102,102,,,,,,,,,,,,,,,,,,,,,,,,,,,,,,,,,,,,,,,,,,,,,,,,,,,,,,,,,672.6544579000001,673.1570990999999,673.1570990999999,673.9097484999993,673.9097484999993,674.4151590000001,674.4151590000001,675.2259349999995,675.2259349999995,None,num_6,0.4572048999998515,675.2259349999995,None,happy,0,Happy,675.6979177000002,None,None,675.6979177000002,None,,,,,,,,,,,,,,,,,,,,,,,,,,,,,,,,,,,,,,,,,,,,,,,,,,,,,46,001,0,19,390,450,2022_Dec_08_1058,Experiment,2021.1.4,359.8507339244707,
images\S6_M_H_02.png,images\S6_M_H_02_scrambled.png,6,happy,20,male,5,,212,on,2,0.5,0.75,0.5,0.752,3,211,1,1,1,2,2,32,128,165,,,,,,0,103,103,103,,,,,,,,,,,,,,,,,,,,,,,,,,,,,,,,,,,,,,,,,,,,,,,,,,,,,,,,,675.7451574999996,676.2506171999994,676.2506171999994,677.0059328999996,677.0059328999996,677.5084997999993,677.5084997999993,678.2638505999994,678.2638505999994,None,num_6,0.48331249999955617,678.2638505999994,None,happy,0,Happy,678.7747666999998,None,None,678.7747666999998,None,,,,,,,,,,,,,,,,,,,,,,,,,,,,,,,,,,,,,,,,,,,,,,,,,,,,,46,001,0,19,390,450,2022_Dec_08_1058,Experiment,2021.1.4,359.8507339244707,
images\S2_M_S_01.png,images\S2_M_S_01_scrambled.png,2,sad,-10,male,3,,130,off,1,0.5,0.75,0.5,0.825,3,129,1,1,1,0,0,0,0,3,,,,,,0,104,104,104,,,,,,,,,,,,,,,,,,,,,,,,,,,,,,,,,,,,,,,,,,,,,,,,,,,,,,,,,678.8303104999995,679.3329444000001,679.3329444000001,680.0854869999994,680.0854869999994,680.5853225999999,680.5853225999999,681.4156865999994,681.4156865999994,None,num_4,0.523122699999476,681.4156865999994,None,sad,0,Sad,681.9710128999996,None,None,681.9710128999996,None,,,,,,,,,,,,,,,,,,,,,,,,,,,,,,,,,,,,,,,,,,,,,,,,,,,,,46,001,0,19,390,450,2022_Dec_08_1058,Experiment,2021.1.4,359.8507339244707,
images\S1_F_H_02.png,images\S1_F_H_02_scrambled.png,1,happy,20,female,5,,62,on,2,0.5,0.75,0.5,0.788,3,61,1,1,1,2,2,32,128,165,,,,,,0,105,105,105,,,,,,,,,,,,,,,,,,,,,,,,,,,,,,,,,,,,,,,,,,,,,,,,,,,,,,,,,682.0709760999998,682.5735971999993,682.5735971999993,683.3261858999995,683.3261858999995,683.8287676999998,683.8287676999998,684.6203198999992,684.6203198999992,None,num_6,0.5266276999991533,684.6203198999992,None,happy,0,Happy,685.1616535000002,None,None,685.1616535000002,None,,,,,,,,,,,,,,,,,,,,,,,,,,,,,,,,,,,,,,,,,,,,,,,,,,,,,46,001,0,19,390,450,2022_Dec_08_1058,Experiment,2021.1.4,359.8507339244707,
images\S7_F_S_02.png,images\S7_F_S_02_scrambled.png,7,sad,-20,female,2,,341,on,2,0.5,0.75,0.5,0.886,3,340,2,1,1,2,2,32,128,162,,,,,,0,106,106,106,,,,,,,,,,,,,,,,,,,,,,,,,,,,,,,,,,,,,,,,,,,,,,,,,,,,,,,,,685.2088903999993,685.7115181999998,685.7115181999998,686.4612780999996,686.4612780999996,686.9667080999998,686.9667080999998,687.8554125,687.8554125,None,num_4,0.6036402999998245,687.8554125,None,sad,0,Sad,688.4745480999999,None,None,688.4745480999999,None,,,,,,,,,,,,,,,,,,,,,,,,,,,,,,,,,,,,,,,,,,,,,,,,,,,,,46,001,0,19,390,450,2022_Dec_08_1058,Experiment,2021.1.4,359.8507339244707,
images\S2_M_S_03.png,images\S2_M_S_03_scrambled.png,2,sad,-30,male,1,,312,on,2,0.5,0.75,0.5,0.95,3,311,3,1,1,2,2,32,128,161,,,,,,0,107,107,107,,,,,,,,,,,,,,,,,,,,,,,,,,,,,,,,,,,,,,,,,,,,,,,,,,,,,,,,,688.5217550999996,689.0271646000001,689.0271646000001,689.7797260999996,689.7797260999996,690.2823426999994,690.2823426999994,691.2349294999995,691.2349294999995,None,num_4,0.496149399999922,691.2349294999995,None,sad,0,Sad,691.7541496,None,None,691.7541496,None,,,,,,,,,,,,,,,,,,,,,,,,,,,,,,,,,,,,,,,,,,,,,,,,,,,,,46,001,0,19,390,450,2022_Dec_08_1058,Experiment,2021.1.4,359.8507339244707,
images\S5_F_H_01.png,images\S5_F_H_01_scrambled.png,5,happy,10,female,4,,265,off,1,0.5,0.75,0.5,0.803,3,264,1,1,1,0,0,0,0,4,,,,,,0,108,108,108,,,,,,,,,,,,,,,,,,,,,,,,,,,,,,,,,,,,,,,,,,,,,,,,,,,,,,,,,691.8068483999996,692.3122674999995,692.3122674999995,693.0649445999998,693.0649445999998,693.5674321999995,693.5674321999995,694.3755505999998,694.3755505999998,None,num_6,0.43552419999923586,694.3755505999998,None,happy,0,Happy,694.8336687000001,None,None,694.8336687000001,None,,,,,,,,,,,,,,,,,,,,,,,,,,,,,,,,,,,,,,,,,,,,,,,,,,,,,46,001,0,19,390,450,2022_Dec_08_1058,Experiment,2021.1.4,359.8507339244707,
images\S6_M_H_02.png,images\S6_M_H_02_scrambled.png,6,happy,20,male,5,,452,on,2,0.5,0.75,0.5,0.923,3,451,1,1,1,2,2,32,128,165,,,,,,0,109,109,109,,,,,,,,,,,,,,,,,,,,,,,,,,,,,,,,,,,,,,,,,,,,,,,,,,,,,,,,,694.88645,695.3918807,695.3918807,696.1443906999993,696.1443906999993,696.6499248999999,696.6499248999999,697.5801412999999,697.5801412999999,None,num_4,0.3189981000004991,697.5801412999999,None,sad,0,Happy,697.9077058999997,None,None,697.9077058999997,None,,,,,,,,,,,,,,,,,,,,,,,,,,,,,,,,,,,,,,,,,,,,,,,,,,,,,46,001,0,19,390,450,2022_Dec_08_1058,Experiment,2021.1.4,359.8507339244707,
images\S8_M_H_02.png,images\S8_M_H_02_scrambled.png,8,happy,20,male,5,,404,off,1,0.5,0.75,0.5,0.795,3,403,1,1,2,0,0,0,0,5,,,,,,0,110,110,110,,,,,,,,,,,,,,,,,,,,,,,,,,,,,,,,,,,,,,,,,,,,,,,,,,,,,,,,,697.9521694999994,698.4548969999996,698.4548969999996,699.2102085999995,699.2102085999995,699.7155624999996,699.7155624999996,700.5153260999996,700.5153260999996,None,num_6,0.391827700000249,700.5153260999996,None,happy,0,Happy,700.9206627000002,None,None,700.9206627000002,None,,,,,,,,,,,,,,,,,,,,,,,,,,,,,,,,,,,,,,,,,,,,,,,,,,,,,46,001,0,19,390,450,2022_Dec_08_1058,Experiment,2021.1.4,359.8507339244707,
images\blank.jpg,images\blank.jpg,none,none,none,none,0,,647,on,2,0.5,0.75,0.5,0.796,0,646,1,1,1,3,3,48,192,240,,,,,,0,111,111,111,,,,,,,,,,,,,,,,,,,,,,,,,,,,,,,,,,,,,,,,,,,,,,,,,,,,,,,,,701.0042720000001,701.5038402999999,701.5038402999999,702.2592844000001,702.2592844000001,702.7618200999996,702.7618200999996,703.5588027999993,703.5588027999993,703.5588027999993,None,,703.5588027999993,None,miss,0,,706.5634992999999,None,None,706.5634992999999,None,,,,,,,,,,,,,,,,,,,,,,,,,,,,,,,,,,,,,,,,,,,,,,,,,,,,,46,001,0,19,390,450,2022_Dec_08_1058,Experiment,2021.1.4,359.8507339244707,
images\S5_F_H_03.png,images\S5_F_H_03_scrambled.png,5,happy,30,female,6,,327,on,2,0.5,0.75,0.5,0.789,3,326,2,1,1,2,2,32,128,166,,,,,,0,112,112,112,,,,,,,,,,,,,,,,,,,,,,,,,,,,,,,,,,,,,,,,,,,,,,,,,,,,,,,,,706.6885523000001,707.1910107999993,707.1910107999993,707.9407440999994,707.9407440999994,708.4461803999993,708.4461803999993,709.2375666999997,709.2375666999997,None,num_6,0.3654268999998749,709.2375666999997,706.6885523000001,happy,0,Happy,709.6179691999995,None,None,709.6179691999995,None,,,,,,,,,,,,,,,,,,,,,,,,,,,,,,,,,,,,,,,,,,,,,,,,,,,,,46,001,0,19,390,450,2022_Dec_08_1058,Experiment,2021.1.4,359.8507339244707,
images\blank.jpg,images\blank.jpg,none,none,none,none,0,,621,on,2,0.5,0.75,0.5,0.827,0,620,3,1,1,3,3,48,192,240,,,,,,0,113,113,113,,,,,,,,,,,,,,,,,,,,,,,,,,,,,,,,,,,,,,,,,,,,,,,,,,,,,,,,,709.7014930999994,710.2011511000001,710.2011511000001,710.9537143999996,710.9537143999996,711.4592330999994,711.4592330999994,712.2895346999994,712.2895346999994,712.2895346999994,None,,712.2895346999994,None,miss,0,,715.2913144999998,None,None,715.2913144999998,None,,,,,,,,,,,,,,,,,,,,,,,,,,,,,,,,,,,,,,,,,,,,,,,,,,,,,46,001,0,19,390,450,2022_Dec_08_1058,Experiment,2021.1.4,359.8507339244707,
images\blank.jpg,images\blank.jpg,none,none,none,none,0,,646,on,2,0.5,0.75,0.5,0.802,0,645,4,2,2,3,3,48,192,240,,,,,,0,114,114,114,,,,,,,,,,,,,,,,,,,,,,,,,,,,,,,,,,,,,,,,,,,,,,,,,,,,,,,,,715.3217955,715.8272225000001,715.8272225000001,716.5825353,716.5825353,717.0852574,717.0852574,717.8877816999993,717.8877816999993,717.8877816999993,num_4,0.23566029999983584,717.8877816999993,715.3217955,sad,0,,718.1320166999999,None,None,718.1320166999999,None,,,,,,,,,,,,,,,,,,,,,,,,,,,,,,,,,,,,,,,,,,,,,,,,,,,,,46,001,0,19,390,450,2022_Dec_08_1058,Experiment,2021.1.4,359.8507339244707,
images\S4_M_H_01.png,images\S4_M_H_01_scrambled.png,4,happy,10,male,4,,19,off,1,0.5,0.75,0.5,0.934,3,18,1,1,1,0,0,0,0,4,,,,,,0,115,115,115,,,,,,,,,,,,,,,,,,,,,,,,,,,,,,,,,,,,,,,,,,,,,,,,,,,,,,,,,718.2655189999996,718.7651925999999,718.7651925999999,719.5177448999993,719.5177448999993,720.0231338999993,720.0231338999993,720.9617616999994,720.9617616999994,None,num_4,0.35305479999988165,720.9617616999994,None,sad,0,Happy,721.3199134000001,None,None,721.3199134000001,None,,,,,,,,,,,,,,,,,,,,,,,,,,,,,,,,,,,,,,,,,,,,,,,,,,,,,46,001,0,19,390,450,2022_Dec_08_1058,Experiment,2021.1.4,359.8507339244707,
images\S1_F_S_01.png,images\S1_F_S_01_scrambled.png,1,sad,-10,female,3,,544,on,2,0.5,0.75,0.5,0.916,3,543,1,1,1,2,2,32,128,163,,,,,,0,116,116,116,,,,,,,,,,,,,,,,,,,,,,,,,,,,,,,,,,,,,,,,,,,,,,,,,,,,,,,,,721.3671365999999,721.8725641000001,721.8725641000001,722.6251212999996,722.6251212999996,723.1277302999997,723.1277302999997,724.0468987999993,724.0468987999993,None,num_6,0.3482964000004358,724.0468987999993,None,happy,0,Sad,724.4078578999998,None,None,724.4078578999998,None,,,,,,,,,,,,,,,,,,,,,,,,,,,,,,,,,,,,,,,,,,,,,,,,,,,,,46,001,0,19,390,450,2022_Dec_08_1058,Experiment,2021.1.4,359.8507339244707,
images\S10_M_H_02.png,images\S10_M_H_02_scrambled.png,10,happy,20,male,5,,596,on,2,0.5,0.75,0.5,0.94,3,595,2,1,1,2,2,32,128,165,,,,,,0,117,117,117,,,,,,,,,,,,,,,,,,,,,,,,,,,,,,,,,,,,,,,,,,,,,,,,,,,,,,,,,724.4717314999998,724.9771314999998,724.9771314999998,725.7324804999998,725.7324804999998,726.2378677999995,726.2378677999995,727.1820383999993,727.1820383999993,None,num_6,0.4447851000004448,727.1820383999993,None,happy,0,Happy,727.6374268999997,None,None,727.6374268999997,None,,,,,,,,,,,,,,,,,,,,,,,,,,,,,,,,,,,,,,,,,,,,,,,,,,,,,46,001,0,19,390,450,2022_Dec_08_1058,Experiment,2021.1.4,359.8507339244707,
images\S6_M_H_01.png,images\S6_M_H_01_scrambled.png,6,happy,10,male,4,,151,off,1,0.5,0.75,0.5,0.775,3,150,1,1,1,0,0,0,0,4,,,,,,0,118,118,118,,,,,,,,,,,,,,,,,,,,,,,,,,,,,,,,,,,,,,,,,,,,,,,,,,,,,,,,,727.6846173999993,728.1872758,728.1872758,728.9425965,728.9425965,729.4453317999996,729.4453317999996,730.2255322999999,730.2255322999999,None,num_6,0.32125900000028196,730.2255322999999,None,happy,0,Happy,730.5614803999996,None,None,730.5614803999996,None,,,,,,,,,,,,,,,,,,,,,,,,,,,,,,,,,,,,,,,,,,,,,,,,,,,,,46,001,0,19,390,450,2022_Dec_08_1058,Experiment,2021.1.4,359.8507339244707,
images\S7_F_H_02.png,images\S7_F_H_02_scrambled.png,7,happy,20,female,5,,458,on,2,0.5,0.75,0.5,0.846,3,457,1,1,1,2,2,32,128,165,,,,,,0,119,119,119,,,,,,,,,,,,,,,,,,,,,,,,,,,,,,,,,,,,,,,,,,,,,,,,,,,,,,,,,730.6448402999995,731.1474693,731.1474693,731.9027931,731.9027931,732.4053815999996,732.4053815999996,733.2579299999998,733.2579299999998,None,num_6,0.23286610000013752,733.2579299999998,None,happy,0,Happy,733.5022843999994,None,None,733.5022843999994,None,,,,,,,,,,,,,,,,,,,,,,,,,,,,,,,,,,,,,,,,,,,,,,,,,,,,,46,001,0,19,390,450,2022_Dec_08_1058,Experiment,2021.1.4,359.8507339244707,
images\S4_M_H_03.png,images\S4_M_H_03_scrambled.png,4,happy,30,male,6,,201,on,2,0.5,0.75,0.5,0.903,3,200,2,1,1,2,2,32,128,166,,,,,,0,120,120,120,,,,,,,,,,,,,,,,,,,,,,,,,,,,,,,,,,,,,,,,,,,,,,,,,,,,,,,,,733.5577450000001,734.0632273000001,734.0632273000001,734.8158442999993,734.8158442999993,735.3212407999999,735.3212407999999,736.2264804999995,736.2264804999995,None,num_6,0.4169495000005554,736.2264804999995,None,happy,0,Happy,736.6567988999994,None,None,736.6567988999994,None,,,,,,,,,,,,,,,,,,,,,,,,,,,,,,,,,,,,,,,,,,,,,,,,,,,,,46,001,0,19,390,450,2022_Dec_08_1058,Experiment,2021.1.4,359.8507339244707,
images\S2_M_S_01.png,images\S2_M_S_01_scrambled.png,2,sad,-10,male,3,,430,on,2,0.5,0.75,0.5,0.928,3,429,3,1,1,2,2,32,128,163,,,,,,0,121,121,121,,,,,,,,,,,,,,,,,,,,,,,,,,,,,,,,,,,,,,,,,,,,,,,,,,,,,,,,,736.7207129999997,737.2205567000001,737.2205567000001,737.9759606999996,737.9759606999996,738.4813659000001,738.4813659000001,739.4115762000001,739.4115762000001,None,num_4,0.33525009999993927,739.4115762000001,None,sad,0,Sad,739.7614070999997,None,None,739.7614070999997,None,,,,,,,,,,,,,,,,,,,,,,,,,,,,,,,,,,,,,,,,,,,,,,,,,,,,,46,001,0,19,390,450,2022_Dec_08_1058,Experiment,2021.1.4,359.8507339244707,
images\S1_F_S_01.png,images\S1_F_S_01_scrambled.png,1,sad,-10,female,3,,304,on,2,0.5,0.75,0.5,0.782,3,303,4,1,2,2,2,32,128,163,,,,,,0,122,122,122,,,,,,,,,,,,,,,,,,,,,,,,,,,,,,,,,,,,,,,,,,,,,,,,,,,,,,,,,739.8086550999997,740.3113469,740.3113469,741.0610502999998,741.0610502999998,741.5636551999996,741.5636551999996,742.3495219999995,742.3495219999995,None,num_6,0.42166569999972126,742.3495219999995,None,happy,0,Sad,742.7799163999994,None,None,742.7799163999994,None,,,,,,,,,,,,,,,,,,,,,,,,,,,,,,,,,,,,,,,,,,,,,,,,,,,,,46,001,0,19,390,450,2022_Dec_08_1058,Experiment,2021.1.4,359.8507339244707,
images\S8_M_S_03.png,images\S8_M_S_03_scrambled.png,8,sad,-30,male,1,,288,off,1,0.5,0.75,0.5,0.884,3,287,1,1,1,0,0,0,0,1,,,,,,0,123,123,123,,,,,,,,,,,,,,,,,,,,,,,,,,,,,,,,,,,,,,,,,,,,,,,,,,,,,,,,,742.8271577999994,743.3325761999995,743.3325761999995,744.0851296999999,744.0851296999999,744.5849441999999,744.5849441999999,745.4707792999998,745.4707792999998,None,num_4,0.4042263000001185,745.4707792999998,None,sad,0,Sad,745.8900973999997,None,None,745.8900973999997,None,,,,,,,,,,,,,,,,,,,,,,,,,,,,,,,,,,,,,,,,,,,,,,,,,,,,,46,001,0,19,390,450,2022_Dec_08_1058,Experiment,2021.1.4,359.8507339244707,
images\S7_F_S_02.png,images\S7_F_S_02_scrambled.png,7,sad,-20,female,2,,161,off,1,0.5,0.75,0.5,0.93,3,160,2,1,1,0,0,0,0,2,,,,,,0,124,124,124,,,,,,,,,,,,,,,,,,,,,,,,,,,,,,,,,,,,,,,,,,,,,,,,,,,,,,,,,745.9373064000001,746.4371474999998,746.4371474999998,747.1924994000001,747.1924994000001,747.6952344000001,747.6952344000001,748.6338554999993,748.6338554999993,None,num_4,0.45752340000035474,748.6338554999993,None,sad,0,Sad,749.1141694999997,None,None,749.1141694999997,None,,,,,,,,,,,,,,,,,,,,,,,,,,,,,,,,,,,,,,,,,,,,,,,,,,,,,46,001,0,19,390,450,2022_Dec_08_1058,Experiment,2021.1.4,359.8507339244707,
images\blank.jpg,images\blank.jpg,none,none,none,none,0,,619,on,2,0.5,0.75,0.5,0.922,0,618,1,1,1,3,3,48,192,240,,,,,,0,125,125,125,,,,,,,,,,,,,,,,,,,,,,,,,,,,,,,,,,,,,,,,,,,,,,,,,,,,,,,,,749.2031693999998,749.7055781999998,749.7055781999998,750.4553455999994,750.4553455999994,750.9608985999994,750.9608985999994,751.8855805999992,751.8855805999992,751.8855805999992,None,,751.8855805999992,None,miss,0,,754.8901578999998,None,None,754.8901578999998,None,,,,,,,,,,,,,,,,,,,,,,,,,,,,,,,,,,,,,,,,,,,,,,,,,,,,,46,001,0,19,390,450,2022_Dec_08_1058,Experiment,2021.1.4,359.8507339244707,
images\blank.jpg,images\blank.jpg,none,none,none,none,0,,637,on,2,0.5,0.75,0.5,0.851,0,636,2,2,2,3,3,48,192,240,,,,,,0,126,126,126,,,,,,,,,,,,,,,,,,,,,,,,,,,,,,,,,,,,,,,,,,,,,,,,,,,,,,,,,754.9206488,755.4261274999999,755.4261274999999,756.1785749999999,756.1785749999999,756.6812838999995,756.6812838999995,757.5337104999999,757.5337104999999,757.5337104999999,None,,757.5337104999999,754.9206488,miss,0,,760.5384116,None,None,760.5384116,None,,,,,,,,,,,,,,,,,,,,,,,,,,,,,,,,,,,,,,,,,,,,,,,,,,,,,46,001,0,19,390,450,2022_Dec_08_1058,Experiment,2021.1.4,359.8507339244707,
images\S9_F_S_02.png,images\S9_F_S_02_scrambled.png,9,sad,-20,female,2,,413,off,1,0.5,0.75,0.5,0.791,3,412,1,1,1,0,0,0,0,2,,,,,,0,127,127,127,,,,,,,,,,,,,,,,,,,,,,,,,,,,,,,,,,,,,,,,,,,,,,,,,,,,,,,,,760.6607519999998,761.1660118,761.1660118,761.9157220999996,761.9157220999996,762.4211593,762.4211593,763.2154307999999,763.2154307999999,None,num_4,0.45146290000047884,763.2154307999999,760.6607519999998,sad,0,Sad,763.6817776999995,None,None,763.6817776999995,None,,,,,,,,,,,,,,,,,,,,,,,,,,,,,,,,,,,,,,,,,,,,,,,,,,,,,46,001,0,19,390,450,2022_Dec_08_1058,Experiment,2021.1.4,359.8507339244707,
images\S6_M_S_01.png,images\S6_M_S_01_scrambled.png,6,sad,-10,male,3,,514,off,1,0.5,0.75,0.5,0.803,3,513,2,1,1,0,0,0,0,3,,,,,,0,128,128,128,,,,,,,,,,,,,,,,,,,,,,,,,,,,,,,,,,,,,,,,,,,,,,,,,,,,,,,,,763.7290212999997,764.2316772999993,764.2316772999993,764.9870013999998,764.9870013999998,765.4923840000001,765.4923840000001,766.2976933,766.2976933,None,num_4,0.33717429999978776,766.2976933,None,sad,0,Sad,766.6448019999997,None,None,766.6448019999997,None,,,,,,,,,,,,,,,,,,,,,,,,,,,,,,,,,,,,,,,,,,,,,,,,,,,,,46,001,0,19,390,450,2022_Dec_08_1058,Experiment,2021.1.4,359.8507339244707,
images\S10_M_H_02.png,images\S10_M_H_02_scrambled.png,10,happy,20,male,5,,416,off,1,0.5,0.75,0.5,0.827,3,415,3,1,1,0,0,0,0,5,,,,,,0,129,129,129,,,,,,,,,,,,,,,,,,,,,,,,,,,,,,,,,,,,,,,,,,,,,,,,,,,,,,,,,766.6919918999993,767.1974130999997,767.1974130999997,767.9527441999999,767.9527441999999,768.4553575,768.4553575,769.2857565999993,769.2857565999993,None,num_6,0.5332304000003205,769.2857565999993,None,happy,0,Happy,769.8382869000002,None,None,769.8382869000002,None,,,,,,,,,,,,,,,,,,,,,,,,,,,,,,,,,,,,,,,,,,,,,,,,,,,,,46,001,0,19,390,450,2022_Dec_08_1058,Experiment,2021.1.4,359.8507339244707,
images\S9_F_S_01.png,images\S9_F_S_01_scrambled.png,9,sad,-10,female,3,,592,on,2,0.5,0.75,0.5,0.804,3,591,1,1,1,2,2,32,128,163,,,,,,0,130,130,130,,,,,,,,,,,,,,,,,,,,,,,,,,,,,,,,,,,,,,,,,,,,,,,,,,,,,,,,,769.8909949999997,770.3964608999995,770.3964608999995,771.1517508999996,771.1517508999996,771.6543487999998,771.6543487999998,772.4624522999993,772.4624522999993,None,num_6,0.36458779999975377,772.4624522999993,None,happy,0,Sad,772.8345190999999,None,space,772.8345190999999,None,102.97567059999983,,,,,,,,,,,,,,,,,,,,,,,,,,,,,,,,,,,,,,,,,,,,,,,,,,,,46,001,0,19,390,450,2022_Dec_08_1058,Experiment,2021.1.4,359.8507339244707,
images\S2_M_H_03.png,images\S2_M_H_03_scrambled.png,2,happy,30,male,6,,369,off,1,0.5,0.75,0.5,0.85,3,368,1,1,1,0,0,0,0,6,,,,,,0,131,131,131,,,,,,,,,,,,,,,,,,,,,,,,,,,,,,,,,,,,,,,,,,,,,,,,,,,,,,,,,875.8664476999993,876.3691271999996,876.3691271999996,877.1245737999998,877.1245737999998,877.6243348999997,877.6243348999997,878.47685,878.47685,None,num_6,0.3818297999996503,878.47685,None,happy,0,Happy,878.8739089999998,None,None,878.8739089999998,None,,,,,,,,,,,,,,,,,,,,,,,,,,,,,,,,,,,,,,,,,,,,,,,,,,,,,46,001,0,19,390,450,2022_Dec_08_1058,Experiment,2021.1.4,359.8507339244707,
images\S2_M_H_02.png,images\S2_M_H_02_scrambled.png,2,happy,20,male,5,,428,on,2,0.5,0.75,0.5,0.837,3,427,1,2,1,2,2,32,128,165,,,,,,0,132,132,132,,,,,,,,,,,,,,,,,,,,,,,,,,,,,,,,,,,,,,,,,,,,,,,,,,,,,,,,,878.9211173999993,879.4265539999997,879.4265539999997,880.1762910999996,880.1762910999996,880.676125,880.676125,881.5175632999999,881.5175632999999,None,num_4,0.42112749999978405,881.5175632999999,None,sad,0,Happy,881.9479302999994,None,None,881.9479302999994,None,,,,,,,,,,,,,,,,,,,,,,,,,,,,,,,,,,,,,,,,,,,,,,,,,,,,,46,001,0,19,390,450,2022_Dec_08_1058,Experiment,2021.1.4,359.8507339244707,
images\S3_F_S_01.png,images\S3_F_S_01_scrambled.png,3,sad,-10,female,3,,196,on,2,0.5,0.75,0.5,0.876,3,195,2,1,1,2,2,32,128,163,,,,,,0,133,133,133,,,,,,,,,,,,,,,,,,,,,,,,,,,,,,,,,,,,,,,,,,,,,,,,,,,,,,,,,882.0284924999996,882.5283531999994,882.5283531999994,883.2809711,883.2809711,883.7863331999997,883.7863331999997,884.6666001999993,884.6666001999993,None,num_4,0.30390239999996993,884.6666001999993,None,sad,0,Sad,884.9859586999994,None,None,884.9859586999994,None,,,,,,,,,,,,,,,,,,,,,,,,,,,,,,,,,,,,,,,,,,,,,,,,,,,,,46,001,0,19,390,450,2022_Dec_08_1058,Experiment,2021.1.4,359.8507339244707,
images\S7_F_H_01.png,images\S7_F_H_01_scrambled.png,7,happy,10,female,4,,457,on,2,0.5,0.75,0.5,0.846,3,456,3,1,1,2,2,32,128,164,,,,,,0,134,134,134,,,,,,,,,,,,,,,,,,,,,,,,,,,,,,,,,,,,,,,,,,,,,,,,,,,,,,,,,885.0331145,885.5358871999997,885.5358871999997,886.2882739999995,886.2882739999995,886.7909911999996,886.7909911999996,887.6407395999995,887.6407395999995,None,num_6,0.35371909999958007,887.6407395999995,None,happy,0,Happy,888.0071612999999,None,None,888.0071612999999,None,,,,,,,,,,,,,,,,,,,,,,,,,,,,,,,,,,,,,,,,,,,,,,,,,,,,,46,001,0,19,390,450,2022_Dec_08_1058,Experiment,2021.1.4,359.8507339244707,
images\S4_M_H_02.png,images\S4_M_H_02_scrambled.png,4,happy,20,male,5,,140,off,1,0.5,0.75,0.5,0.887,3,139,1,1,1,0,0,0,0,5,,,,,,0,135,135,135,,,,,,,,,,,,,,,,,,,,,,,,,,,,,,,,,,,,,,,,,,,,,,,,,,,,,,,,,888.0905008,888.5959763000001,888.5959763000001,889.3456904999994,889.3456904999994,889.8482842999992,889.8482842999992,890.7424857999995,890.7424857999995,None,num_4,0.3161286000004111,890.7424857999995,None,sad,0,Happy,891.0646105000001,None,None,891.0646105000001,None,,,,,,,,,,,,,,,,,,,,,,,,,,,,,,,,,,,,,,,,,,,,,,,,,,,,,46,001,0,19,390,450,2022_Dec_08_1058,Experiment,2021.1.4,359.8507339244707,
images\blank.jpg,images\blank.jpg,none,none,none,none,0,,643,on,2,0.5,0.75,0.5,0.929,0,642,1,1,1,3,3,48,192,240,,,,,,0,136,136,136,,,,,,,,,,,,,,,,,,,,,,,,,,,,,,,,,,,,,,,,,,,,,,,,,,,,,,,,,891.1481028999997,891.6532969999998,891.6532969999998,892.4030622999999,892.4030622999999,892.9057536,892.9057536,893.8387766999995,893.8387766999995,893.8387766999995,None,,893.8387766999995,None,miss,0,,896.8433965999998,None,None,896.8433965999998,None,,,,,,,,,,,,,,,,,,,,,,,,,,,,,,,,,,,,,,,,,,,,,,,,,,,,,46,001,0,19,390,450,2022_Dec_08_1058,Experiment,2021.1.4,359.8507339244707,
images\S3_F_H_03.png,images\S3_F_H_03_scrambled.png,3,happy,30,female,6,,315,on,2,0.5,0.75,0.5,0.752,3,314,2,1,1,2,2,32,128,166,,,,,,0,137,137,137,,,,,,,,,,,,,,,,,,,,,,,,,,,,,,,,,,,,,,,,,,,,,,,,,,,,,,,,,896.9629068999993,897.4653689999996,897.4653689999996,898.2151700999993,898.2151700999993,898.7206698999998,898.7206698999998,899.4730947999997,899.4730947999997,None,num_6,0.32953319999978703,899.4730947999997,896.9629068999993,happy,0,Happy,899.8173796999998,None,None,899.8173796999998,None,,,,,,,,,,,,,,,,,,,,,,,,,,,,,,,,,,,,,,,,,,,,,,,,,,,,,46,001,0,19,390,450,2022_Dec_08_1058,Experiment,2021.1.4,359.8507339244707,
images\blank.jpg,images\blank.jpg,none,none,none,none,0,,635,on,2,0.5,0.75,0.5,0.766,0,634,3,1,1,3,3,48,192,240,,,,,,0,138,138,138,,,,,,,,,,,,,,,,,,,,,,,,,,,,,,,,,,,,,,,,,,,,,,,,,,,,,,,,,899.9009545999997,900.4061702999998,900.4061702999998,901.1558920999996,901.1558920999996,901.6613512999993,901.6613512999993,902.4306392999997,902.4306392999997,902.4306392999997,None,,902.4306392999997,None,miss,0,,905.4351456000002,None,None,905.4351456000002,None,,,,,,,,,,,,,,,,,,,,,,,,,,,,,,,,,,,,,,,,,,,,,,,,,,,,,46,001,0,19,390,450,2022_Dec_08_1058,Experiment,2021.1.4,359.8507339244707,
images\S10_M_S_03.png,images\S10_M_S_03_scrambled.png,10,sad,-30,male,1,,60,off,1,0.5,0.75,0.5,0.794,3,59,1,1,1,0,0,0,0,1,,,,,,0,139,139,139,,,,,,,,,,,,,,,,,,,,,,,,,,,,,,,,,,,,,,,,,,,,,,,,,,,,,,,,,905.5492042999995,906.0516315999994,906.0516315999994,906.8069526999998,906.8069526999998,907.3096872999995,907.3096872999995,908.1065583,908.1065583,None,num_4,0.3519963999997344,908.1065583,905.5492042999995,sad,0,Sad,908.4730395999994,None,None,908.4730395999994,None,,,,,,,,,,,,,,,,,,,,,,,,,,,,,,,,,,,,,,,,,,,,,,,,,,,,,46,001,0,19,390,450,2022_Dec_08_1058,Experiment,2021.1.4,359.8507339244707,
images\S8_M_H_02.png,images\S8_M_H_02_scrambled.png,8,happy,20,male,5,,164,off,1,0.5,0.75,0.5,0.921,3,163,2,1,1,0,0,0,0,5,,,,,,0,140,140,140,,,,,,,,,,,,,,,,,,,,,,,,,,,,,,,,,,,,,,,,,,,,,,,,,,,,,,,,,908.5230569999994,909.0284803999994,909.0284803999994,909.7837879999997,909.7837879999997,910.2864574999994,910.2864574999994,911.2111754999996,911.2111754999996,None,num_6,0.29547199999979057,911.2111754999996,None,happy,0,Happy,911.5221228999998,None,None,911.5221228999998,None,,,,,,,,,,,,,,,,,,,,,,,,,,,,,,,,,,,,,,,,,,,,,,,,,,,,,46,001,0,19,390,450,2022_Dec_08_1058,Experiment,2021.1.4,359.8507339244707,
