image_face,image_scram,avatar,emo,emotion,sex,trigeeg,dac,trial_no,NMES,stimtime,baseline,iti,face,scr_face,resp_time,index,count_NMES,count_avatar,count_emotion,dac1,dac2,dac1_output,dac2_output,trigs_out,nmes,practice_trials.thisRepN,practice_trials.thisTrialN,practice_trials.thisN,practice_trials.thisIndex,real_trials.thisRepN,real_trials.thisTrialN,real_trials.thisN,real_trials.thisIndex,trials.thisRepN,trials.thisTrialN,trials.thisN,trials.thisIndex,position,Welcome.started,Welcome.stopped,Welcome_resp.keys,Welcome_resp.rt,text_2.started,text_2.stopped,form_2.index,form_2.itemText,form_2.type,form_2.response,form_2.rt,key_resp_4.keys,key_resp_4.rt,key_resp_4.started,key_resp_4.stopped,instructions.started,instructions.stopped,end_instr.keys,end_instr.rt,instructions_2.started,instructions_2.stopped,end_instr_2.keys,end_instr_2.rt,end_instr_2.started,end_instr_2.stopped,instruct_keypress.started,instruct_keypress.stopped,end_instruct_keypress.keys,end_instruct_keypress.rt,start_practice.started,start_practice.stopped,start_practice_resp.keys,start_practice_resp.rt,prac_baseline.started,prac_baseline.stopped,prac_iti.started,prac_iti.stopped,prac_stimulus.started,prac_stimulus.stopped,prac_scram_stim.started,prac_scram_stim.stopped,prac_stimulus_resp.started,prac_stimulus_resp.stopped,prac_resp.keys,prac_resp.rt,prac_resp.started,prac_resp.stopped,transition_to_real.started,transition_to_real.stopped,end_transition_to_real.keys,end_transition_to_real.rt,fixation_cross.started,fixation_cross.stopped,tr_iti.started,tr_iti.stopped,stimulus.started,stimulus.stopped,scram_stim.started,scram_stim.stopped,response_txt.started,response_txt.stopped,response.keys,response.rt,response.started,response.stopped,participant_Resp,grouping,corAnswer,break_msg.started,break_msg.stopped,end_break.keys,end_break.started,end_break.stopped,text.started,text.stopped,key_resp_3.keys,key_resp_3.rt,key_resp_3.started,key_resp_3.stopped,fix_cross_comf.started,fix_cross_comf.stopped,stimulation_comf.started,stimulation_comf.stopped,rate_instr.started,rate_instr.stopped,comfort_rating.response,comfort_rating.rt,comfort_rating.started,comfort_rating.stopped,resp_form.keys,resp_form.rt,resp_form.started,resp_form.stopped,survey_instructions.started,survey_instructions.stopped,key_resp_2.keys,key_resp_2.rt,key_resp_2.started,key_resp_2.stopped,form.index,form.itemText,form.type,form.response,form.rt,key_resp.keys,key_resp.rt,key_resp.started,key_resp.stopped,text_3.started,text_3.stopped,rate_smile.response,rate_smile.rt,rate_smile.started,rate_smile.stopped,key_resp_5.keys,key_resp_5.rt,key_resp_5.started,key_resp_5.stopped,end_msg.started,end_msg.stopped,end_resp.keys,end_resp.rt,end_resp.started,end_resp.stopped,participant,session,gender,age,LEFT,RIGHT,date,expName,psychopyVersion,frameRate
,,,,,,,,,,,,,,,,,,,,,,,,,,,,,,,,,,,,,,H-S,38.2133487,None,num_add,3.3452821,,,,,,,,,,,,,,,,,,,,,,,,,,,,,,,,,,,,,,,,,,,,,,,,,,,,,,,,,,,,,,,,,,,,,,,,,,,,,,,,,,,,,,,,,,,,,,,,,,,,,,,,,,,,,,,,,,,,,,,,,47,1,1,22,500,500,2022_Dec_15_1503,Experiment,2021.1.4,360.6449775
,,,,,,,,,,,,,,,,,,,,,,,,,,,,,,,,,,,,,,,,,,,41.5677,43.5976341,1,"This scale consistes of a number of words that describe different feelings and emotion. Read each item and then list the number from the scale below each word. Indicate (by clicking) to what extend you feel this way RIGHT NOW, that is, AT THE PRESENT MOMENT.",description,,,,,,,,,,,,,,,,,,,,,,,,,,,,,,,,,,,,,,,,,,,,,,,,,,,,,,,,,,,,,,,,,,,,,,,,,,,,,,,,,,,,,,,,,,,,,,,,,,,,,,,,,,,,,,,,,,,,47,1,1,22,500,500,2022_Dec_15_1503,Experiment,2021.1.4,360.6449775
,,,,,,,,,,,,,,,,,,,,,,,,,,,,,,,,,,,,,,,,,,,,,2,Interested,rating,3,28.309902,,,,,,,,,,,,,,,,,,,,,,,,,,,,,,,,,,,,,,,,,,,,,,,,,,,,,,,,,,,,,,,,,,,,,,,,,,,,,,,,,,,,,,,,,,,,,,,,,,,,,,,,,,,,,,,,,,47,1,1,22,500,500,2022_Dec_15_1503,Experiment,2021.1.4,360.6449775
,,,,,,,,,,,,,,,,,,,,,,,,,,,,,,,,,,,,,,,,,,,,,3,Distressed,rating,1,33.5721583,,,,,,,,,,,,,,,,,,,,,,,,,,,,,,,,,,,,,,,,,,,,,,,,,,,,,,,,,,,,,,,,,,,,,,,,,,,,,,,,,,,,,,,,,,,,,,,,,,,,,,,,,,,,,,,,,,47,1,1,22,500,500,2022_Dec_15_1503,Experiment,2021.1.4,360.6449775
,,,,,,,,,,,,,,,,,,,,,,,,,,,,,,,,,,,,,,,,,,,,,4,Excited,rating,2,40.8558847,,,,,,,,,,,,,,,,,,,,,,,,,,,,,,,,,,,,,,,,,,,,,,,,,,,,,,,,,,,,,,,,,,,,,,,,,,,,,,,,,,,,,,,,,,,,,,,,,,,,,,,,,,,,,,,,,,47,1,1,22,500,500,2022_Dec_15_1503,Experiment,2021.1.4,360.6449775
,,,,,,,,,,,,,,,,,,,,,,,,,,,,,,,,,,,,,,,,,,,,,5,Upset,rating,1,43.378318,,,,,,,,,,,,,,,,,,,,,,,,,,,,,,,,,,,,,,,,,,,,,,,,,,,,,,,,,,,,,,,,,,,,,,,,,,,,,,,,,,,,,,,,,,,,,,,,,,,,,,,,,,,,,,,,,,47,1,1,22,500,500,2022_Dec_15_1503,Experiment,2021.1.4,360.6449775
,,,,,,,,,,,,,,,,,,,,,,,,,,,,,,,,,,,,,,,,,,,,,6,Strong,rating,1,47.768764,,,,,,,,,,,,,,,,,,,,,,,,,,,,,,,,,,,,,,,,,,,,,,,,,,,,,,,,,,,,,,,,,,,,,,,,,,,,,,,,,,,,,,,,,,,,,,,,,,,,,,,,,,,,,,,,,,47,1,1,22,500,500,2022_Dec_15_1503,Experiment,2021.1.4,360.6449775
,,,,,,,,,,,,,,,,,,,,,,,,,,,,,,,,,,,,,,,,,,,,,7,Guilty,rating,1,12.176425,,,,,,,,,,,,,,,,,,,,,,,,,,,,,,,,,,,,,,,,,,,,,,,,,,,,,,,,,,,,,,,,,,,,,,,,,,,,,,,,,,,,,,,,,,,,,,,,,,,,,,,,,,,,,,,,,,47,1,1,22,500,500,2022_Dec_15_1503,Experiment,2021.1.4,360.6449775
,,,,,,,,,,,,,,,,,,,,,,,,,,,,,,,,,,,,,,,,,,,,,8,Scared,rating,1,13.0675867,,,,,,,,,,,,,,,,,,,,,,,,,,,,,,,,,,,,,,,,,,,,,,,,,,,,,,,,,,,,,,,,,,,,,,,,,,,,,,,,,,,,,,,,,,,,,,,,,,,,,,,,,,,,,,,,,,47,1,1,22,500,500,2022_Dec_15_1503,Experiment,2021.1.4,360.6449775
,,,,,,,,,,,,,,,,,,,,,,,,,,,,,,,,,,,,,,,,,,,,,9,Hostile,rating,1,3.531227,,,,,,,,,,,,,,,,,,,,,,,,,,,,,,,,,,,,,,,,,,,,,,,,,,,,,,,,,,,,,,,,,,,,,,,,,,,,,,,,,,,,,,,,,,,,,,,,,,,,,,,,,,,,,,,,,,47,1,1,22,500,500,2022_Dec_15_1503,Experiment,2021.1.4,360.6449775
,,,,,,,,,,,,,,,,,,,,,,,,,,,,,,,,,,,,,,,,,,,,,10,Enthusiastic,rating,2,6.7881299,,,,,,,,,,,,,,,,,,,,,,,,,,,,,,,,,,,,,,,,,,,,,,,,,,,,,,,,,,,,,,,,,,,,,,,,,,,,,,,,,,,,,,,,,,,,,,,,,,,,,,,,,,,,,,,,,,47,1,1,22,500,500,2022_Dec_15_1503,Experiment,2021.1.4,360.6449775
,,,,,,,,,,,,,,,,,,,,,,,,,,,,,,,,,,,,,,,,,,,,,11,Proud,rating,1,7.1747222,,,,,,,,,,,,,,,,,,,,,,,,,,,,,,,,,,,,,,,,,,,,,,,,,,,,,,,,,,,,,,,,,,,,,,,,,,,,,,,,,,,,,,,,,,,,,,,,,,,,,,,,,,,,,,,,,,47,1,1,22,500,500,2022_Dec_15_1503,Experiment,2021.1.4,360.6449775
,,,,,,,,,,,,,,,,,,,,,,,,,,,,,,,,,,,,,,,,,,,,,12,Irritable,rating,1,5.8027842,,,,,,,,,,,,,,,,,,,,,,,,,,,,,,,,,,,,,,,,,,,,,,,,,,,,,,,,,,,,,,,,,,,,,,,,,,,,,,,,,,,,,,,,,,,,,,,,,,,,,,,,,,,,,,,,,,47,1,1,22,500,500,2022_Dec_15_1503,Experiment,2021.1.4,360.6449775
,,,,,,,,,,,,,,,,,,,,,,,,,,,,,,,,,,,,,,,,,,,,,13,Alert,rating,2,11.0212999,,,,,,,,,,,,,,,,,,,,,,,,,,,,,,,,,,,,,,,,,,,,,,,,,,,,,,,,,,,,,,,,,,,,,,,,,,,,,,,,,,,,,,,,,,,,,,,,,,,,,,,,,,,,,,,,,,47,1,1,22,500,500,2022_Dec_15_1503,Experiment,2021.1.4,360.6449775
,,,,,,,,,,,,,,,,,,,,,,,,,,,,,,,,,,,,,,,,,,,,,14,Ashamed,rating,1,10.7567427,,,,,,,,,,,,,,,,,,,,,,,,,,,,,,,,,,,,,,,,,,,,,,,,,,,,,,,,,,,,,,,,,,,,,,,,,,,,,,,,,,,,,,,,,,,,,,,,,,,,,,,,,,,,,,,,,,47,1,1,22,500,500,2022_Dec_15_1503,Experiment,2021.1.4,360.6449775
,,,,,,,,,,,,,,,,,,,,,,,,,,,,,,,,,,,,,,,,,,,,,15,Inspired,rating,1,6.1305076,,,,,,,,,,,,,,,,,,,,,,,,,,,,,,,,,,,,,,,,,,,,,,,,,,,,,,,,,,,,,,,,,,,,,,,,,,,,,,,,,,,,,,,,,,,,,,,,,,,,,,,,,,,,,,,,,,47,1,1,22,500,500,2022_Dec_15_1503,Experiment,2021.1.4,360.6449775
,,,,,,,,,,,,,,,,,,,,,,,,,,,,,,,,,,,,,,,,,,,,,16,Nervous,rating,2,9.6410424,,,,,,,,,,,,,,,,,,,,,,,,,,,,,,,,,,,,,,,,,,,,,,,,,,,,,,,,,,,,,,,,,,,,,,,,,,,,,,,,,,,,,,,,,,,,,,,,,,,,,,,,,,,,,,,,,,47,1,1,22,500,500,2022_Dec_15_1503,Experiment,2021.1.4,360.6449775
,,,,,,,,,,,,,,,,,,,,,,,,,,,,,,,,,,,,,,,,,,,,,17,Determined,rating,3,10.9226254,,,,,,,,,,,,,,,,,,,,,,,,,,,,,,,,,,,,,,,,,,,,,,,,,,,,,,,,,,,,,,,,,,,,,,,,,,,,,,,,,,,,,,,,,,,,,,,,,,,,,,,,,,,,,,,,,,47,1,1,22,500,500,2022_Dec_15_1503,Experiment,2021.1.4,360.6449775
,,,,,,,,,,,,,,,,,,,,,,,,,,,,,,,,,,,,,,,,,,,,,18,Attentive,rating,3,7.1878211,,,,,,,,,,,,,,,,,,,,,,,,,,,,,,,,,,,,,,,,,,,,,,,,,,,,,,,,,,,,,,,,,,,,,,,,,,,,,,,,,,,,,,,,,,,,,,,,,,,,,,,,,,,,,,,,,,47,1,1,22,500,500,2022_Dec_15_1503,Experiment,2021.1.4,360.6449775
,,,,,,,,,,,,,,,,,,,,,,,,,,,,,,,,,,,,,,,,,,,,,19,Jittery,rating,1,9.5717665,,,,,,,,,,,,,,,,,,,,,,,,,,,,,,,,,,,,,,,,,,,,,,,,,,,,,,,,,,,,,,,,,,,,,,,,,,,,,,,,,,,,,,,,,,,,,,,,,,,,,,,,,,,,,,,,,,47,1,1,22,500,500,2022_Dec_15_1503,Experiment,2021.1.4,360.6449775
,,,,,,,,,,,,,,,,,,,,,,,,,,,,,,,,,,,,,,,,,,,,,20,Active,rating,2,5.7691629,,,,,,,,,,,,,,,,,,,,,,,,,,,,,,,,,,,,,,,,,,,,,,,,,,,,,,,,,,,,,,,,,,,,,,,,,,,,,,,,,,,,,,,,,,,,,,,,,,,,,,,,,,,,,,,,,,47,1,1,22,500,500,2022_Dec_15_1503,Experiment,2021.1.4,360.6449775
,,,,,,,,,,,,,,,,,,,,,,,,,,,,,,,,,,,,,,,,,,,,,21,Afraid,rating,1,6.5212376,,,,,,,,,,,,,,,,,,,,,,,,,,,,,,,,,,,,,,,,,,,,,,,,,,,,,,,,,,,,,,,,,,,,,,,,,,,,,,,,,,,,,,,,,,,,,,,,,,,,,,,,,,,,,,,,,,47,1,1,22,500,500,2022_Dec_15_1503,Experiment,2021.1.4,360.6449775
,,,,,,,,,,,,,,,,,,,,,,,,,,,,,,,,,,,,,,,,,,,,,22,Press the + button to submit your answers,description,,,,,,,,,,,,,,,,,,,,,,,,,,,,,,,,,,,,,,,,,,,,,,,,,,,,,,,,,,,,,,,,,,,,,,,,,,,,,,,,,,,,,,,,,,,,,,,,,,,,,,,,,,,,,,,,,,,,47,1,1,22,500,500,2022_Dec_15_1503,Experiment,2021.1.4,360.6449775
,,,,,,,,,,,,,,,,,,,,,,,,,,,,,,,,,,,,,,,,,,,,,,,,,,num_add,75.7630549,53.9996125,None,,,,,,,,,,,,,,,,,,,,,,,,,,,,,,,,,,,,,,,,,,,,,,,,,,,,,,,,,,,,,,,,,,,,,,,,,,,,,,,,,,,,,,,,,,,,,,,,,,,,,,,,,,,,,,47,1,1,22,500,500,2022_Dec_15_1503,Experiment,2021.1.4,360.6449775
,,,,,,,,,,,,,,,,,,,,,,,,,,,,,,,,,,,,,,,,,,,,,,,,,,,,,,129.7735269,None,num_add,13.9168501,,,,,,,,,,,,,,,,,,,,,,,,,,,,,,,,,,,,,,,,,,,,,,,,,,,,,,,,,,,,,,,,,,,,,,,,,,,,,,,,,,,,,,,,,,,,,,,,,,,,,,,,,,47,1,1,22,500,500,2022_Dec_15_1503,Experiment,2021.1.4,360.6449775
,,,,,,,,,,,,,,,,,,,,,,,,,,,,,,,,,,,,,,,,,,,,,,,,,,,,,,,,,,143.6996304,None,num_add,11.9589152,143.6996304,None,,,,,,,,,,,,,,,,,,,,,,,,,,,,,,,,,,,,,,,,,,,,,,,,,,,,,,,,,,,,,,,,,,,,,,,,,,,,,,,,,,,,,,,,,,,,,,,,,,,,47,1,1,22,500,500,2022_Dec_15_1503,Experiment,2021.1.4,360.6449775
,,,,,,,,,,,,,,,,,,,,,,,,,,,,,,,,,,,,,,,,,,,,,,,,,,,,,,,,,,,,,,,,155.6765393,None,num_add,15.781865,,,,,,,,,,,,,,,,,,,,,,,,,,,,,,,,,,,,,,,,,,,,,,,,,,,,,,,,,,,,,,,,,,,,,,,,,,,,,,,,,,,,,,,,,,,,,,,,47,1,1,22,500,500,2022_Dec_15_1503,Experiment,2021.1.4,360.6449775
,,,,,,,,,,,,,,,,,,,,,,,,,,,,,,,,,,,,,,,,,,,,,,,,,,,,,,,,,,,,,,,,,,,,171.4688976,None,space,127.93349,,,,,,,,,,,,,,,,,,,,,,,,,,,,,,,,,,,,,,,,,,,,,,,,,,,,,,,,,,,,,,,,,,,,,,,,,,,,,,,,,,,,,,,,,,,,47,1,1,22,500,500,2022_Dec_15_1503,Experiment,2021.1.4,360.6449775
images\S21_F_H_01.png,images\S21_F_H_01_scrambled.png,21,Happy,-0.1,F,0,0,practice,off,1,0.5,0.75,0.5,0.853,3,,,,,,,,,,,0,0,0,0,,,,,,,,,,,,,,,,,,,,,,,,,,,,,,,,,,,,,,,,,,,299.5820775,300.0875748,300.0875748,300.8428949,300.8428949,301.3455177,301.3455177,302.2035759,302.2035759,None,num_4,0.6233625,302.2035759,None,,,,,,,,,,,,,,,,,,,,,,,,,,,,,,,,,,,,,,,,,,,,,,,,,,,,,,,,,,,,,,,,,,,,,,,,,,,,,,47,1,1,22,500,500,2022_Dec_15_1503,Experiment,2021.1.4,360.6449775
images\S22_M_S_03.png,images\S22_M_S_03_scrambled.png,22,Sad,0.3,M,0,0,practice,on,2,0.5,0.75,0.5,0.794,3,,,,,,,,,,,0,1,1,7,,,,,,,,,,,,,,,,,,,,,,,,,,,,,,,,,,,,,,,,,,,302.8922803,303.3949828,303.3949828,304.1502517,304.1502517,304.6555977,304.6555977,305.4525602,305.4525602,None,num_6,1.0301991,305.4525602,None,,,,,,,,,,,,,,,,,,,,,,,,,,,,,,,,,,,,,,,,,,,,,,,,,,,,,,,,,,,,,,,,,,,,,,,,,,,,,,47,1,1,22,500,500,2022_Dec_15_1503,Experiment,2021.1.4,360.6449775
images\S21_F_H_02.png,images\S21_F_H_02_scrambled.png,21,Happy,-0.2,F,0,0,practice,off,1,0.5,0.75,0.5,0.91,3,,,,,,,,,,,0,2,2,1,,,,,,,,,,,,,,,,,,,,,,,,,,,,,,,,,,,,,,,,,,,306.5466517,307.0465087,307.0465087,307.7962638,307.7962638,308.2989091,308.2989091,309.2124913,309.2124913,None,num_4,0.6222489,309.2124913,None,,,,,,,,,,,,,,,,,,,,,,,,,,,,,,,,,,,,,,,,,,,,,,,,,,,,,,,,,,,,,,,,,,,,,,,,,,,,,,47,1,1,22,500,500,2022_Dec_15_1503,Experiment,2021.1.4,360.6449775
images\S22_M_H_02.png,images\S22_M_H_02_scrambled.png,22,Happy,-0.2,M,0,0,practice,off,1,0.5,0.75,0.5,0.883,3,,,,,,,,,,,0,3,3,2,,,,,,,,,,,,,,,,,,,,,,,,,,,,,,,,,,,,,,,,,,,309.8956152,310.3982728,310.3982728,311.1508377,311.1508377,311.650672,311.650672,312.5364836,312.5364836,None,num_4,0.5942297,312.5364836,None,,,,,,,,,,,,,,,,,,,,,,,,,,,,,,,,,,,,,,,,,,,,,,,,,,,,,,,,,,,,,,,,,,,,,,,,,,,,,,47,1,1,22,500,500,2022_Dec_15_1503,Experiment,2021.1.4,360.6449775
images\S22_M_S_02.png,images\S22_M_S_02_scrambled.png,22,Sad,0.2,M,0,0,practice,off,1,0.5,0.75,0.5,0.751,3,,,,,,,,,,,0,4,4,3,,,,,,,,,,,,,,,,,,,,,,,,,,,,,,,,,,,,,,,,,,,313.1890409,313.6917129,313.6917129,314.4414429,314.4414429,314.9412727,314.9412727,315.69665,315.69665,None,num_6,0.5220916,315.69665,None,,,,,,,,,,,,,,,,,,,,,,,,,,,,,,,,,,,,,,,,,,,,,,,,,,,,,,,,,,,,,,,,,,,,,,,,,,,,,,47,1,1,22,500,500,2022_Dec_15_1503,Experiment,2021.1.4,360.6449775
images\S22_M_S_02.png,images\S22_M_S_02_scrambled.png,22,Sad,0.2,M,0,0,practice,on,2,0.5,0.75,0.5,0.783,3,,,,,,,,,,,0,5,5,6,,,,,,,,,,,,,,,,,,,,,,,,,,,,,,,,,,,,,,,,,,,316.274197,316.7740519,316.7740519,317.5265929,317.5265929,318.0292286,318.0292286,318.8152225,318.8152225,None,num_6,0.8354413,318.8152225,None,,,,,,,,,,,,,,,,,,,,,,,,,,,,,,,,,,,,,,,,,,,,,,,,,,,,,,,,,,,,,,,,,,,,,,,,,,,,,,47,1,1,22,500,500,2022_Dec_15_1503,Experiment,2021.1.4,360.6449775
images\S22_M_S_03.png,images\S22_M_S_03_scrambled.png,22,Sad,0.3,M,0,0,practice,on,2,0.5,0.75,0.5,0.87,3,,,,,,,,,,,0,6,6,4,,,,,,,,,,,,,,,,,,,,,,,,,,,,,,,,,,,,,,,,,,,319.7037204,320.2091835,320.2091835,320.9644698,320.9644698,321.4698567,321.4698567,322.3445988,322.3445988,None,num_6,0.5301197,322.3445988,None,,,,,,,,,,,,,,,,,,,,,,,,,,,,,,,,,,,,,,,,,,,,,,,,,,,,,,,,,,,,,,,,,,,,,,,,,,,,,,47,1,1,22,500,500,2022_Dec_15_1503,Experiment,2021.1.4,360.6449775
images\S22_M_S_01.png,images\S22_M_S_01_scrambled.png,22,Sad,0.1,M,0,0,practice,on,2,0.5,0.75,0.5,0.867,3,,,,,,,,,,,0,7,7,5,,,,,,,,,,,,,,,,,,,,,,,,,,,,,,,,,,,,,,,,,,,322.9610307,323.4664448,323.4664448,324.2190626,324.2190626,324.7244133,324.7244133,325.5935489,325.5935489,None,num_6,0.5372798,325.5935489,None,,,,,,,,,,,,,,,,,,,,,,,,,,,,,,,,,,,,,,,,,,,,,,,,,,,,,,,,,,,,,,,,,,,,,,,,,,,,,,47,1,1,22,500,500,2022_Dec_15_1503,Experiment,2021.1.4,360.6449775
,,,,,,,,,,,,,,,,,,,,,,,,,,,,,,,,,,,,,,,,,,,,,,,,,,,,,,,,,,,,,,,,,,,,,,,,,,,,,,,,,,,,,,326.1600491,None,space,33.6740629,,,,,,,,,,,,,,,,,,,,,,,,,,,,,,,,,,,,,,,,,,,,,,,,,,,,,,,,,,,,,,,,,,,,,,,,,,47,1,1,22,500,500,2022_Dec_15_1503,Experiment,2021.1.4,360.6449775
images\blank.jpg,images\blank.jpg,none,none,none,none,0,,618,on,2,0.5,0.75,0.5,0.947,0,617,1,1,1,3,3,48,192,240,,,,,,0,0,0,0,,,,,,,,,,,,,,,,,,,,,,,,,,,,,,,,,,,,,,,,,,,,,,,,,,,,,,,,,360.3106188,360.8132375,360.8132375,361.5659176,361.5659176,362.0712464,362.0712464,363.0181318,363.0181318,363.0181318,None,,363.0181318,None,miss,1,,366.0255642,None,None,366.0255642,None,,,,,,,,,,,,,,,,,,,,,,,,,,,,,,,,,,,,,,,,,,,,,,,,,,,,47,1,1,22,500,500,2022_Dec_15_1503,Experiment,2021.1.4,360.6449775
images\S7_F_S_03.png,images\S7_F_S_03_scrambled.png,7,sad,-30,female,1,,162,off,1,0.5,0.75,0.5,0.813,3,161,1,1,1,0,0,0,0,1,,,,,,0,1,1,1,,,,,,,,,,,,,,,,,,,,,,,,,,,,,,,,,,,,,,,,,,,,,,,,,,,,,,,,,366.1508386,366.6559194,366.6559194,367.4084284,367.4084284,367.9110897,367.9110897,368.7302662,368.7302662,None,num_6,0.2563883,368.7302662,366.1508386,sad,1,Sad,368.9968766,None,None,368.9968766,None,,,,,,,,,,,,,,,,,,,,,,,,,,,,,,,,,,,,,,,,,,,,,,,,,,,,47,1,1,22,500,500,2022_Dec_15_1503,Experiment,2021.1.4,360.6449775
images\S7_F_S_01.png,images\S7_F_S_01_scrambled.png,7,sad,-10,female,3,,340,on,2,0.5,0.75,0.5,0.923,3,339,1,2,1,2,2,32,128,163,,,,,,0,2,2,2,,,,,,,,,,,,,,,,,,,,,,,,,,,,,,,,,,,,,,,,,,,,,,,,,,,,,,,,,369.052363,369.5522169,369.5522169,370.3019988,370.3019988,370.8074257,370.8074257,371.7321807,371.7321807,None,num_4,0.4231142,371.7321807,None,happy,1,Sad,372.1654121,None,None,372.1654121,None,,,,,,,,,,,,,,,,,,,,,,,,,,,,,,,,,,,,,,,,,,,,,,,,,,,,47,1,1,22,500,500,2022_Dec_15_1503,Experiment,2021.1.4,360.6449775
images\S7_F_H_03.png,images\S7_F_H_03_scrambled.png,7,happy,30,female,6,,339,on,2,0.5,0.75,0.5,0.942,3,338,2,3,1,2,2,32,128,166,,,,,,0,3,3,3,,,,,,,,,,,,,,,,,,,,,,,,,,,,,,,,,,,,,,,,,,,,,,,,,,,,,,,,,372.2457868,372.7456699,372.7456699,373.498241,373.498241,374.0009857,374.0009857,374.9422149,374.9422149,None,num_4,0.3003993,374.9422149,None,happy,1,Happy,375.2560968,None,None,375.2560968,None,,,,,,,,,,,,,,,,,,,,,,,,,,,,,,,,,,,,,,,,,,,,,,,,,,,,47,1,1,22,500,500,2022_Dec_15_1503,Experiment,2021.1.4,360.6449775
images\S10_M_H_03.png,images\S10_M_H_03_scrambled.png,10,happy,30,male,6,,537,off,1,0.5,0.75,0.5,0.852,3,536,1,1,2,0,0,0,0,6,,,,,,0,4,4,4,,,,,,,,,,,,,,,,,,,,,,,,,,,,,,,,,,,,,,,,,,,,,,,,,,,,,,,,,375.3143203,375.8141699,375.8141699,376.5668454,376.5668454,377.0721703,377.0721703,377.9274569,377.9274569,None,num_4,0.2191176,377.9274569,None,happy,1,Happy,378.1607174,None,None,378.1607174,None,,,,,,,,,,,,,,,,,,,,,,,,,,,,,,,,,,,,,,,,,,,,,,,,,,,,47,1,1,22,500,500,2022_Dec_15_1503,Experiment,2021.1.4,360.6449775
images\blank.jpg,images\blank.jpg,none,none,none,none,0,,603,on,2,0.5,0.75,0.5,0.94,0,602,1,1,1,3,3,48,192,240,,,,,,0,5,5,5,,,,,,,,,,,,,,,,,,,,,,,,,,,,,,,,,,,,,,,,,,,,,,,,,,,,,,,,,378.2442137,378.7493875,378.7493875,379.504707,379.504707,380.004552,380.004552,380.9516132,380.9516132,380.9516132,None,,380.9516132,None,miss,1,,383.9561207,None,None,383.9561207,None,,,,,,,,,,,,,,,,,,,,,,,,,,,,,,,,,,,,,,,,,,,,,,,,,,,,47,1,1,22,500,500,2022_Dec_15_1503,Experiment,2021.1.4,360.6449775
images\S5_F_S_03.png,images\S5_F_S_03_scrambled.png,5,sad,-30,female,1,,30,off,1,0.5,0.75,0.5,0.82,3,29,1,1,1,0,0,0,0,1,,,,,,0,6,6,6,,,,,,,,,,,,,,,,,,,,,,,,,,,,,,,,,,,,,,,,,,,,,,,,,,,,,,,,,384.1035516,384.6087129,384.6087129,385.3640384,385.3640384,385.8666616,385.8666616,386.6886281,386.6886281,None,num_6,0.2585238,386.6886281,384.1035516,sad,1,Sad,386.9664068,None,None,386.9664068,None,,,,,,,,,,,,,,,,,,,,,,,,,,,,,,,,,,,,,,,,,,,,,,,,,,,,47,1,1,22,500,500,2022_Dec_15_1503,Experiment,2021.1.4,360.6449775
images\S10_M_S_02.png,images\S10_M_S_02_scrambled.png,10,sad,-20,male,2,,359,on,2,0.5,0.75,0.5,0.835,3,358,1,1,1,2,2,32,128,162,,,,,,0,7,7,7,,,,,,,,,,,,,,,,,,,,,,,,,,,,,,,,,,,,,,,,,,,,,,,,,,,,,,,,,387.0245963,387.5300176,387.5300176,388.285338,388.285338,388.7880306,388.7880306,389.6293747,389.6293747,None,num_4,0.6933177,389.6293747,None,happy,1,Sad,390.3346879,None,None,390.3346879,None,,,,,,,,,,,,,,,,,,,,,,,,,,,,,,,,,,,,,,,,,,,,,,,,,,,,47,1,1,22,500,500,2022_Dec_15_1503,Experiment,2021.1.4,360.6449775
images\S5_F_H_01.png,images\S5_F_H_01_scrambled.png,5,happy,10,female,4,,565,on,2,0.5,0.75,0.5,0.773,3,564,2,1,1,2,2,32,128,164,,,,,,0,8,8,8,,,,,,,,,,,,,,,,,,,,,,,,,,,,,,,,,,,,,,,,,,,,,,,,,,,,,,,,,390.4096609,390.9122818,390.9122818,391.6648532,391.6648532,392.1676118,392.1676118,392.9479051,392.9479051,None,num_4,1.1108684,392.9479051,None,happy,1,Happy,394.0724549,None,None,394.0724549,None,,,,,,,,,,,,,,,,,,,,,,,,,,,,,,,,,,,,,,,,,,,,,,,,,,,,47,1,1,22,500,500,2022_Dec_15_1503,Experiment,2021.1.4,360.6449775
images\S2_M_S_01.png,images\S2_M_S_01_scrambled.png,2,sad,-10,male,3,,430,on,2,0.5,0.75,0.5,0.928,3,429,3,1,1,2,2,32,128,163,,,,,,0,9,9,9,,,,,,,,,,,,,,,,,,,,,,,,,,,,,,,,,,,,,,,,,,,,,,,,,,,,,,,,,394.1251889,394.627815,394.627815,395.380353,395.380353,395.8830126,395.8830126,396.8132698,396.8132698,None,num_4,0.9411148,396.8132698,None,happy,1,Sad,397.7601949,None,None,397.7601949,None,,,,,,,,,,,,,,,,,,,,,,,,,,,,,,,,,,,,,,,,,,,,,,,,,,,,47,1,1,22,500,500,2022_Dec_15_1503,Experiment,2021.1.4,360.6449775
images\S10_M_S_03.png,images\S10_M_S_03_scrambled.png,10,sad,-30,male,1,,300,off,1,0.5,0.75,0.5,0.874,3,299,1,1,1,0,0,0,0,1,,,,,,0,10,10,10,,,,,,,,,,,,,,,,,,,,,,,,,,,,,,,,,,,,,,,,,,,,,,,,,,,,,,,,,397.8157094,398.3183757,398.3183757,399.0681024,399.0681024,399.5735441,399.5735441,400.4538317,400.4538317,None,num_6,0.4288536,400.4538317,None,sad,1,Sad,400.8925784,None,None,400.8925784,None,,,,,,,,,,,,,,,,,,,,,,,,,,,,,,,,,,,,,,,,,,,,,,,,,,,,47,1,1,22,500,500,2022_Dec_15_1503,Experiment,2021.1.4,360.6449775
images\S1_F_H_01.png,images\S1_F_H_01_scrambled.png,1,happy,10,female,4,,1,off,1,0.5,0.75,0.5,0.759,3,0,2,1,1,0,0,0,0,4,,,,,,0,11,11,11,,,,,,,,,,,,,,,,,,,,,,,,,,,,,,,,,,,,,,,,,,,,,,,,,,,,,,,,,400.9480794,401.4507394,401.4507394,402.2060613,402.2060613,402.7058686,402.7058686,403.4639637,403.4639637,None,num_4,0.2591789,403.4639637,None,happy,1,Happy,403.7445599,None,None,403.7445599,None,,,,,,,,,,,,,,,,,,,,,,,,,,,,,,,,,,,,,,,,,,,,,,,,,,,,47,1,1,22,500,500,2022_Dec_15_1503,Experiment,2021.1.4,360.6449775
images\S9_F_H_01.png,images\S9_F_H_01_scrambled.png,9,happy,10,female,4,,529,off,1,0.5,0.75,0.5,0.82,3,528,3,1,2,0,0,0,0,4,,,,,,0,12,12,12,,,,,,,,,,,,,,,,,,,,,,,,,,,,,,,,,,,,,,,,,,,,,,,,,,,,,,,,,403.8194182,404.3220553,404.3220553,405.0746157,405.0746157,405.57444,405.57444,406.3993084,406.3993084,None,num_6,1.1633558,406.3993084,None,sad,1,Happy,407.568269,None,None,407.568269,None,,,,,,,,,,,,,,,,,,,,,,,,,,,,,,,,,,,,,,,,,,,,,,,,,,,,47,1,1,22,500,500,2022_Dec_15_1503,Experiment,2021.1.4,360.6449775
images\S4_M_S_03.png,images\S4_M_S_03_scrambled.png,4,sad,-30,male,1,,84,on,2,0.5,0.75,0.5,0.9,3,83,1,1,1,2,2,32,128,161,,,,,,0,13,13,13,,,,,,,,,,,,,,,,,,,,,,,,,,,,,,,,,,,,,,,,,,,,,,,,,,,,,,,,,407.6293523,408.1320609,408.1320609,408.8873399,408.8873399,409.3927314,409.3927314,410.2951933,410.2951933,None,num_6,0.5000164,410.2951933,None,sad,1,Sad,410.8146201,None,None,410.8146201,None,,,,,,,,,,,,,,,,,,,,,,,,,,,,,,,,,,,,,,,,,,,,,,,,,,,,47,1,1,22,500,500,2022_Dec_15_1503,Experiment,2021.1.4,360.6449775
images\S1_F_S_03.png,images\S1_F_S_03_scrambled.png,1,sad,-30,female,1,,426,on,2,0.5,0.75,0.5,0.797,3,425,2,1,2,2,2,32,128,161,,,,,,0,14,14,14,,,,,,,,,,,,,,,,,,,,,,,,,,,,,,,,,,,,,,,,,,,,,,,,,,,,,,,,,410.8700147,411.3698569,411.3698569,412.1251771,412.1251771,412.6278471,412.6278471,413.4276006,413.4276006,None,num_6,0.4950358,413.4276006,None,sad,1,Sad,413.9357299,None,None,413.9357299,None,,,,,,,,,,,,,,,,,,,,,,,,,,,,,,,,,,,,,,,,,,,,,,,,,,,,47,1,1,22,500,500,2022_Dec_15_1503,Experiment,2021.1.4,360.6449775
images\S10_M_H_03.png,images\S10_M_H_03_scrambled.png,10,happy,30,male,6,,597,on,2,0.5,0.75,0.5,0.855,3,596,3,1,1,2,2,32,128,166,,,,,,0,15,15,15,,,,,,,,,,,,,,,,,,,,,,,,,,,,,,,,,,,,,,,,,,,,,,,,,,,,,,,,,413.9857283,414.4911468,414.4911468,415.2408927,415.2408927,415.7435385,415.7435385,416.601608,416.601608,None,num_4,0.4650978,416.601608,None,happy,1,Happy,417.0792554,None,None,417.0792554,None,,,,,,,,,,,,,,,,,,,,,,,,,,,,,,,,,,,,,,,,,,,,,,,,,,,,47,1,1,22,500,500,2022_Dec_15_1503,Experiment,2021.1.4,360.6449775
images\S4_M_H_02.png,images\S4_M_H_02_scrambled.png,4,happy,20,male,5,,320,on,2,0.5,0.75,0.5,0.811,3,319,4,1,1,2,2,32,128,165,,,,,,0,16,16,16,,,,,,,,,,,,,,,,,,,,,,,,,,,,,,,,,,,,,,,,,,,,,,,,,,,,,,,,,417.1375253,417.6401779,417.6401779,418.3954861,418.3954861,418.8982234,418.8982234,419.7145432,419.7145432,None,num_4,0.5446306,419.7145432,None,happy,1,Happy,420.2839189,None,None,420.2839189,None,,,,,,,,,,,,,,,,,,,,,,,,,,,,,,,,,,,,,,,,,,,,,,,,,,,,47,1,1,22,500,500,2022_Dec_15_1503,Experiment,2021.1.4,360.6449775
images\S7_F_S_01.png,images\S7_F_S_01_scrambled.png,7,sad,-10,female,3,,280,off,1,0.5,0.75,0.5,0.918,3,279,1,1,1,0,0,0,0,3,,,,,,0,17,17,17,,,,,,,,,,,,,,,,,,,,,,,,,,,,,,,,,,,,,,,,,,,,,,,,,,,,,,,,,420.3420326,420.8419343,420.8419343,421.5945224,421.5945224,422.0971242,422.0971242,423.019116,423.019116,None,num_6,1.1434119,423.019116,None,sad,1,Sad,424.1770138,None,None,424.1770138,None,,,,,,,,,,,,,,,,,,,,,,,,,,,,,,,,,,,,,,,,,,,,,,,,,,,,47,1,1,22,500,500,2022_Dec_15_1503,Experiment,2021.1.4,360.6449775
images\S2_M_S_03.png,images\S2_M_S_03_scrambled.png,2,sad,-30,male,1,,72,on,2,0.5,0.75,0.5,0.796,3,71,1,1,1,2,2,32,128,161,,,,,,0,18,18,18,,,,,,,,,,,,,,,,,,,,,,,,,,,,,,,,,,,,,,,,,,,,,,,,,,,,,,,,,424.23256,424.738005,424.738005,425.487727,425.487727,425.9903497,425.9903497,426.7929188,426.7929188,None,num_6,0.2656229,426.7929188,None,sad,1,Sad,427.0762323,None,None,427.0762323,None,,,,,,,,,,,,,,,,,,,,,,,,,,,,,,,,,,,,,,,,,,,,,,,,,,,,47,1,1,22,500,500,2022_Dec_15_1503,Experiment,2021.1.4,360.6449775
images\S4_M_H_01.png,images\S4_M_H_01_scrambled.png,4,happy,10,male,4,,79,on,2,0.5,0.75,0.5,0.943,3,78,2,1,1,2,2,32,128,164,,,,,,0,19,19,19,,,,,,,,,,,,,,,,,,,,,,,,,,,,,,,,,,,,,,,,,,,,,,,,,,,,,,,,,427.1455481,427.6481993,427.6481993,428.4007269,428.4007269,428.9006022,428.9006022,429.8475572,429.8475572,None,num_4,0.5070206,429.8475572,None,happy,1,Happy,430.3695887,None,None,430.3695887,None,,,,,,,,,,,,,,,,,,,,,,,,,,,,,,,,,,,,,,,,,,,,,,,,,,,,47,1,1,22,500,500,2022_Dec_15_1503,Experiment,2021.1.4,360.6449775
images\S4_M_S_02.png,images\S4_M_S_02_scrambled.png,4,sad,-20,male,2,,563,on,2,0.5,0.75,0.5,0.873,3,562,3,2,1,2,2,32,128,162,,,,,,0,20,20,20,,,,,,,,,,,,,,,,,,,,,,,,,,,,,,,,,,,,,,,,,,,,,,,,,,,,,,,,,430.4278841,430.930537,430.930537,431.6858516,431.6858516,432.1885828,432.1885828,433.0631645,433.0631645,None,num_6,0.6196897,433.0631645,None,sad,1,Sad,433.6963319,None,None,433.6963319,None,,,,,,,,,,,,,,,,,,,,,,,,,,,,,,,,,,,,,,,,,,,,,,,,,,,,47,1,1,22,500,500,2022_Dec_15_1503,Experiment,2021.1.4,360.6449775
images\S3_F_H_03.png,images\S3_F_H_03_scrambled.png,3,happy,30,female,6,,15,off,1,0.5,0.75,0.5,0.829,3,14,1,1,1,0,0,0,0,6,,,,,,0,21,21,21,,,,,,,,,,,,,,,,,,,,,,,,,,,,,,,,,,,,,,,,,,,,,,,,,,,,,,,,,433.7546257,434.2601014,434.2601014,435.015384,435.015384,435.5179777,435.5179777,436.3510644,436.3510644,None,num_4,0.315777,436.3510644,None,happy,1,Happy,436.692648,None,None,436.692648,None,,,,,,,,,,,,,,,,,,,,,,,,,,,,,,,,,,,,,,,,,,,,,,,,,,,,47,1,1,22,500,500,2022_Dec_15_1503,Experiment,2021.1.4,360.6449775
images\S9_F_S_02.png,images\S9_F_S_02_scrambled.png,9,sad,-20,female,2,,413,off,1,0.5,0.75,0.5,0.791,3,412,2,1,1,0,0,0,0,2,,,,,,0,22,22,22,,,,,,,,,,,,,,,,,,,,,,,,,,,,,,,,,,,,,,,,,,,,,,,,,,,,,,,,,436.7648025,437.2702483,437.2702483,438.0199902,438.0199902,438.5226077,438.5226077,439.3197096,439.3197096,None,num_6,0.4749145,439.3197096,None,sad,1,Sad,439.8056081,None,None,439.8056081,None,,,,,,,,,,,,,,,,,,,,,,,,,,,,,,,,,,,,,,,,,,,,,,,,,,,,47,1,1,22,500,500,2022_Dec_15_1503,Experiment,2021.1.4,360.6449775
images\S7_F_H_01.png,images\S7_F_H_01_scrambled.png,7,happy,10,female,4,,217,on,2,0.5,0.75,0.5,0.829,3,216,1,1,1,2,2,32,128,164,,,,,,0,23,23,23,,,,,,,,,,,,,,,,,,,,,,,,,,,,,,,,,,,,,,,,,,,,,,,,,,,,,,,,,439.8610666,440.3664965,440.3664965,441.1190425,441.1190425,441.6245574,441.6245574,442.4603087,442.4603087,None,num_4,0.3984217,442.4603087,None,happy,1,Happy,442.8907934,None,None,442.8907934,None,,,,,,,,,,,,,,,,,,,,,,,,,,,,,,,,,,,,,,,,,,,,,,,,,,,,47,1,1,22,500,500,2022_Dec_15_1503,Experiment,2021.1.4,360.6449775
images\S8_M_H_01.png,images\S8_M_H_01_scrambled.png,8,happy,10,male,4,,43,off,1,0.5,0.75,0.5,0.837,3,42,1,1,2,0,0,0,0,4,,,,,,0,24,24,24,,,,,,,,,,,,,,,,,,,,,,,,,,,,,,,,,,,,,,,,,,,,,,,,,,,,,,,,,442.9656647,443.4710907,443.4710907,444.2236119,444.2236119,444.7234836,444.7234836,445.5650033,445.5650033,None,num_4,0.5018924,445.5650033,None,happy,1,Happy,446.0842017,None,None,446.0842017,None,,,,,,,,,,,,,,,,,,,,,,,,,,,,,,,,,,,,,,,,,,,,,,,,,,,,47,1,1,22,500,500,2022_Dec_15_1503,Experiment,2021.1.4,360.6449775
images\S1_F_S_03.png,images\S1_F_S_03_scrambled.png,1,sad,-30,female,1,,486,off,1,0.5,0.75,0.5,0.875,3,485,2,1,1,0,0,0,0,1,,,,,,0,25,25,25,,,,,,,,,,,,,,,,,,,,,,,,,,,,,,,,,,,,,,,,,,,,,,,,,,,,,,,,,446.1313572,446.6367762,446.6367762,447.3893296,447.3893296,447.8948372,447.8948372,448.7750377,448.7750377,None,num_6,0.5796517,448.7750377,None,sad,1,Sad,449.3692372,None,None,449.3692372,None,,,,,,,,,,,,,,,,,,,,,,,,,,,,,,,,,,,,,,,,,,,,,,,,,,,,47,1,1,22,500,500,2022_Dec_15_1503,Experiment,2021.1.4,360.6449775
images\S5_F_S_01.png,images\S5_F_S_01_scrambled.png,5,sad,-10,female,3,,208,on,2,0.5,0.75,0.5,0.95,3,207,1,1,1,2,2,32,128,163,,,,,,0,26,26,26,,,,,,,,,,,,,,,,,,,,,,,,,,,,,,,,,,,,,,,,,,,,,,,,,,,,,,,,,449.4220113,449.9274367,449.9274367,450.6827507,450.6827507,451.1853531,451.1853531,452.1378554,452.1378554,None,num_4,0.6973155,452.1378554,None,happy,1,Sad,452.8460769,None,None,452.8460769,None,,,,,,,,,,,,,,,,,,,,,,,,,,,,,,,,,,,,,,,,,,,,,,,,,,,,47,1,1,22,500,500,2022_Dec_15_1503,Experiment,2021.1.4,360.6449775
images\S2_M_S_02.png,images\S2_M_S_02_scrambled.png,2,sad,-20,male,2,,551,on,2,0.5,0.75,0.5,0.773,3,550,2,1,1,2,2,32,128,162,,,,,,0,27,27,27,,,,,,,,,,,,,,,,,,,,,,,,,,,,,,,,,,,,,,,,,,,,,,,,,,,,,,,,,452.9098604,453.4124395,453.4124395,454.1622057,454.1622057,454.6649837,454.6649837,455.4423681,455.4423681,None,num_6,0.6404295,455.4423681,None,sad,1,Sad,456.1005541,None,None,456.1005541,None,,,,,,,,,,,,,,,,,,,,,,,,,,,,,,,,,,,,,,,,,,,,,,,,,,,,47,1,1,22,500,500,2022_Dec_15_1503,Experiment,2021.1.4,360.6449775
images\S10_M_S_01.png,images\S10_M_S_01_scrambled.png,10,sad,-10,male,3,,298,off,1,0.5,0.75,0.5,0.903,3,297,1,1,1,0,0,0,0,3,,,,,,0,28,28,28,,,,,,,,,,,,,,,,,,,,,,,,,,,,,,,,,,,,,,,,,,,,,,,,,,,,,,,,,456.1560431,456.6586676,456.6586676,457.4112358,457.4112358,457.916743,457.916743,458.8219734,458.8219734,None,num_4,0.3646816,458.8219734,None,happy,1,Sad,459.1996092,None,None,459.1996092,None,,,,,,,,,,,,,,,,,,,,,,,,,,,,,,,,,,,,,,,,,,,,,,,,,,,,47,1,1,22,500,500,2022_Dec_15_1503,Experiment,2021.1.4,360.6449775
images\S10_M_H_03.png,images\S10_M_H_03_scrambled.png,10,happy,30,male,6,,297,off,1,0.5,0.75,0.5,0.753,3,296,2,2,1,0,0,0,0,6,,,,,,0,29,29,29,,,,,,,,,,,,,,,,,,,,,,,,,,,,,,,,,,,,,,,,,,,,,,,,,,,,,,,,,459.2578646,459.7632871,459.7632871,460.5130262,460.5130262,461.018462,461.018462,461.7737705,461.7737705,None,num_4,0.2768061,461.7737705,None,happy,1,Happy,462.0681674,None,None,462.0681674,None,,,,,,,,,,,,,,,,,,,,,,,,,,,,,,,,,,,,,,,,,,,,,,,,,,,,47,1,1,22,500,500,2022_Dec_15_1503,Experiment,2021.1.4,360.6449775
images\S5_F_S_02.png,images\S5_F_S_02_scrambled.png,5,sad,-20,female,2,,569,on,2,0.5,0.75,0.5,0.903,3,568,1,1,1,2,2,32,128,162,,,,,,0,30,30,30,,,,,,,,,,,,,,,,,,,,,,,,,,,,,,,,,,,,,,,,,,,,,,,,,,,,,,,,,462.1264221,462.629088,462.629088,463.3815896,463.3815896,463.8842075,463.8842075,464.789505,464.789505,None,num_6,0.4449984,464.789505,None,sad,1,Sad,465.2476771,None,None,465.2476771,None,,,,,,,,,,,,,,,,,,,,,,,,,,,,,,,,,,,,,,,,,,,,,,,,,,,,47,1,1,22,500,500,2022_Dec_15_1503,Experiment,2021.1.4,360.6449775
images\S3_F_S_02.png,images\S3_F_S_02_scrambled.png,3,sad,-20,female,2,,557,on,2,0.5,0.75,0.5,0.927,3,556,2,1,2,2,2,32,128,162,,,,,,0,31,31,31,,,,,,,,,,,,,,,,,,,,,,,,,,,,,,,,,,,,,,,,,,,,,,,,,,,,,,,,,465.3032139,465.8030695,465.8030695,466.5556108,466.5556108,467.0610374,467.0610374,467.9913078,467.9913078,None,num_6,0.4353155,467.9913078,None,sad,1,Sad,468.4411353,None,None,468.4411353,None,,,,,,,,,,,,,,,,,,,,,,,,,,,,,,,,,,,,,,,,,,,,,,,,,,,,47,1,1,22,500,500,2022_Dec_15_1503,Experiment,2021.1.4,360.6449775
images\S2_M_H_03.png,images\S2_M_H_03_scrambled.png,2,happy,30,male,6,,369,off,1,0.5,0.75,0.5,0.85,3,368,1,1,1,0,0,0,0,6,,,,,,0,32,32,32,,,,,,,,,,,,,,,,,,,,,,,,,,,,,,,,,,,,,,,,,,,,,,,,,,,,,,,,,468.4966741,469.0021121,469.0021121,469.7574273,469.7574273,470.2601502,470.2601502,471.115341,471.115341,None,num_4,0.3355153,471.115341,None,happy,1,Happy,471.4764337,None,None,471.4764337,None,,,,,,,,,,,,,,,,,,,,,,,,,,,,,,,,,,,,,,,,,,,,,,,,,,,,47,1,1,22,500,500,2022_Dec_15_1503,Experiment,2021.1.4,360.6449775
images\S4_M_S_02.png,images\S4_M_S_02_scrambled.png,4,sad,-20,male,2,,143,off,1,0.5,0.75,0.5,0.898,3,142,2,1,1,0,0,0,0,2,,,,,,0,33,33,33,,,,,,,,,,,,,,,,,,,,,,,,,,,,,,,,,,,,,,,,,,,,,,,,,,,,,,,,,471.5290732,472.0289189,472.0289189,472.7814633,472.7814633,473.2869048,473.2869048,474.1921687,474.1921687,None,num_6,0.2984357,474.1921687,None,sad,1,Sad,474.5143045,None,None,474.5143045,None,,,,,,,,,,,,,,,,,,,,,,,,,,,,,,,,,,,,,,,,,,,,,,,,,,,,47,1,1,22,500,500,2022_Dec_15_1503,Experiment,2021.1.4,360.6449775
images\S8_M_S_03.png,images\S8_M_S_03_scrambled.png,8,sad,-30,male,1,,348,on,2,0.5,0.75,0.5,0.79,3,347,1,1,1,2,2,32,128,161,,,,,,0,34,34,34,,,,,,,,,,,,,,,,,,,,,,,,,,,,,,,,,,,,,,,,,,,,,,,,,,,,,,,,,474.5725762,475.0753386,475.0753386,475.8249994,475.8249994,476.3276132,476.3276132,477.1218321,477.1218321,None,num_6,2.3767344,477.1218321,None,sad,1,Sad,479.5127468,None,None,479.5127468,None,,,,,,,,,,,,,,,,,,,,,,,,,,,,,,,,,,,,,,,,,,,,,,,,,,,,47,1,1,22,500,500,2022_Dec_15_1503,Experiment,2021.1.4,360.6449775
images\S7_F_H_03.png,images\S7_F_H_03_scrambled.png,7,happy,30,female,6,,579,on,2,0.5,0.75,0.5,0.814,3,578,2,1,1,2,2,32,128,166,,,,,,0,35,35,35,,,,,,,,,,,,,,,,,,,,,,,,,,,,,,,,,,,,,,,,,,,,,,,,,,,,,,,,,479.5599282,480.062594,480.062594,480.8151427,480.8151427,481.3149986,481.3149986,482.1341558,482.1341558,None,num_4,0.2046151,482.1341558,None,happy,1,Happy,482.3535245,None,None,482.3535245,None,,,,,,,,,,,,,,,,,,,,,,,,,,,,,,,,,,,,,,,,,,,,,,,,,,,,47,1,1,22,500,500,2022_Dec_15_1503,Experiment,2021.1.4,360.6449775
images\S6_M_H_02.png,images\S6_M_H_02_scrambled.png,6,happy,20,male,5,,212,on,2,0.5,0.75,0.5,0.752,3,211,3,1,1,2,2,32,128,165,,,,,,0,36,36,36,,,,,,,,,,,,,,,,,,,,,,,,,,,,,,,,,,,,,,,,,,,,,,,,,,,,,,,,,482.4090543,482.9117922,482.9117922,483.6614875,483.6614875,484.1640898,484.1640898,484.9194145,484.9194145,None,num_4,0.2592583,484.9194145,None,happy,1,Happy,485.1944685,None,None,485.1944685,None,,,,,,,,,,,,,,,,,,,,,,,,,,,,,,,,,,,,,,,,,,,,,,,,,,,,47,1,1,22,500,500,2022_Dec_15_1503,Experiment,2021.1.4,360.6449775
images\S2_M_S_02.png,images\S2_M_S_02_scrambled.png,2,sad,-20,male,2,,431,on,2,0.5,0.75,0.5,0.775,3,430,4,1,1,2,2,32,128,162,,,,,,0,37,37,37,,,,,,,,,,,,,,,,,,,,,,,,,,,,,,,,,,,,,,,,,,,,,,,,,,,,,,,,,485.2470665,485.7525885,485.7525885,486.5022406,486.5022406,487.0077557,487.0077557,487.7880344,487.7880344,None,num_6,0.3104442,487.7880344,None,sad,1,Sad,488.1268391,None,None,488.1268391,None,,,,,,,,,,,,,,,,,,,,,,,,,,,,,,,,,,,,,,,,,,,,,,,,,,,,47,1,1,22,500,500,2022_Dec_15_1503,Experiment,2021.1.4,360.6449775
images\S6_M_S_01.png,images\S6_M_S_01_scrambled.png,6,sad,-10,male,3,,154,off,1,0.5,0.75,0.5,0.85,3,153,1,1,1,0,0,0,0,3,,,,,,0,38,38,38,,,,,,,,,,,,,,,,,,,,,,,,,,,,,,,,,,,,,,,,,,,,,,,,,,,,,,,,,488.1850485,488.6905577,488.6905577,489.4402417,489.4402417,489.9457413,489.9457413,490.7981498,490.7981498,None,num_6,0.4922289,490.7981498,None,sad,1,Sad,491.317432,None,None,491.317432,None,,,,,,,,,,,,,,,,,,,,,,,,,,,,,,,,,,,,,,,,,,,,,,,,,,,,47,1,1,22,500,500,2022_Dec_15_1503,Experiment,2021.1.4,360.6449775
images\S4_M_H_01.png,images\S4_M_H_01_scrambled.png,4,happy,10,male,4,,199,on,2,0.5,0.75,0.5,0.893,3,198,1,1,1,2,2,32,128,164,,,,,,0,39,39,39,,,,,,,,,,,,,,,,,,,,,,,,,,,,,,,,,,,,,,,,,,,,,,,,,,,,,,,,,491.3729506,491.8757017,491.8757017,492.6253715,492.6253715,493.1307951,493.1307951,494.0306176,494.0306176,None,num_4,0.4681532,494.0306176,None,happy,1,Happy,494.5248994,None,None,494.5248994,None,,,,,,,,,,,,,,,,,,,,,,,,,,,,,,,,,,,,,,,,,,,,,,,,,,,,47,1,1,22,500,500,2022_Dec_15_1503,Experiment,2021.1.4,360.6449775
images\S3_F_H_03.png,images\S3_F_H_03_scrambled.png,3,happy,30,female,6,,375,off,1,0.5,0.75,0.5,0.805,3,374,1,1,1,0,0,0,0,6,,,,,,0,40,40,40,,,,,,,,,,,,,,,,,,,,,,,,,,,,,,,,,,,,,,,,,,,,,,,,,,,,,,,,,494.5775192,495.0801393,495.0801393,495.8299068,495.8299068,496.3354163,496.3354163,497.1462241,497.1462241,None,num_4,0.3763315,497.1462241,None,happy,1,Happy,497.5377428,None,None,497.5377428,None,,,,,,,,,,,,,,,,,,,,,,,,,,,,,,,,,,,,,,,,,,,,,,,,,,,,47,1,1,22,500,500,2022_Dec_15_1503,Experiment,2021.1.4,360.6449775
images\S6_M_S_01.png,images\S6_M_S_01_scrambled.png,6,sad,-10,male,3,,574,on,2,0.5,0.75,0.5,0.943,3,573,1,1,1,2,2,32,128,163,,,,,,0,41,41,41,,,,,,,,,,,,,,,,,,,,,,,,,,,,,,,,,,,,,,,,,,,,,,,,,,,,,,,,,497.587699,498.0903412,498.0903412,498.84575,498.84575,499.3510878,499.3510878,500.3008366,500.3008366,None,num_6,0.6537994,500.3008366,None,sad,1,Sad,500.9672097,None,None,500.9672097,None,,,,,,,,,,,,,,,,,,,,,,,,,,,,,,,,,,,,,,,,,,,,,,,,,,,,47,1,1,22,500,500,2022_Dec_15_1503,Experiment,2021.1.4,360.6449775
images\blank.jpg,images\blank.jpg,none,none,none,none,0,,633,on,2,0.5,0.75,0.5,0.918,0,632,2,1,1,3,3,48,192,240,,,,,,0,42,42,42,,,,,,,,,,,,,,,,,,,,,,,,,,,,,,,,,,,,,,,,,,,,,,,,,,,,,,,,,501.0507653,501.5531701,501.5531701,502.3029019,502.3029019,502.8027523,502.8027523,503.7275107,503.7275107,503.7275107,None,,503.7275107,None,miss,1,,506.7265689,None,None,506.7265689,None,,,,,,,,,,,,,,,,,,,,,,,,,,,,,,,,,,,,,,,,,,,,,,,,,,,,47,1,1,22,500,500,2022_Dec_15_1503,Experiment,2021.1.4,360.6449775
images\blank.jpg,images\blank.jpg,none,none,none,none,0,,625,on,2,0.5,0.75,0.5,0.785,0,624,3,2,2,3,3,48,192,240,,,,,,0,43,43,43,,,,,,,,,,,,,,,,,,,,,,,,,,,,,,,,,,,,,,,,,,,,,,,,,,,,,,,,,506.751521,507.2542082,507.2542082,508.0039401,508.0039401,508.5093799,508.5093799,509.2981027,509.2981027,509.2981027,None,,509.2981027,506.751521,miss,1,,512.3026883,None,None,512.3026883,None,,,,,,,,,,,,,,,,,,,,,,,,,,,,,,,,,,,,,,,,,,,,,,,,,,,,47,1,1,22,500,500,2022_Dec_15_1503,Experiment,2021.1.4,360.6449775
images\S3_F_H_01.png,images\S3_F_H_01_scrambled.png,3,happy,10,female,4,,193,on,2,0.5,0.75,0.5,0.766,3,192,4,1,1,2,2,32,128,164,,,,,,0,44,44,44,,,,,,,,,,,,,,,,,,,,,,,,,,,,,,,,,,,,,,,,,,,,,,,,,,,,,,,,,512.4526365,512.9551887,512.9551887,513.7105351,513.7105351,514.215938,514.215938,514.985165,514.985165,None,num_4,0.5696052,514.985165,512.4526365,happy,1,Happy,515.5710652,None,None,515.5710652,None,,,,,,,,,,,,,,,,,,,,,,,,,,,,,,,,,,,,,,,,,,,,,,,,,,,,47,1,1,22,500,500,2022_Dec_15_1503,Experiment,2021.1.4,360.6449775
images\S3_F_H_02.png,images\S3_F_H_02_scrambled.png,3,happy,20,female,5,,134,off,1,0.5,0.75,0.5,0.947,3,133,1,2,1,0,0,0,0,5,,,,,,0,45,45,45,,,,,,,,,,,,,,,,,,,,,,,,,,,,,,,,,,,,,,,,,,,,,,,,,,,,,,,,,515.6460168,516.1487704,516.1487704,516.8984042,516.8984042,517.4010749,517.4010749,518.3479644,518.3479644,None,num_6,0.3585148,518.3479644,None,sad,1,Happy,518.7117681,None,None,518.7117681,None,,,,,,,,,,,,,,,,,,,,,,,,,,,,,,,,,,,,,,,,,,,,,,,,,,,,47,1,1,22,500,500,2022_Dec_15_1503,Experiment,2021.1.4,360.6449775
images\S1_F_H_02.png,images\S1_F_H_02_scrambled.png,1,happy,20,female,5,,122,off,1,0.5,0.75,0.5,0.751,3,121,2,1,2,0,0,0,0,5,,,,,,0,46,46,46,,,,,,,,,,,,,,,,,,,,,,,,,,,,,,,,,,,,,,,,,,,,,,,,,,,,,,,,,518.7644969,519.2671406,519.2671406,520.0198091,520.0198091,520.5251119,520.5251119,521.2804413,521.2804413,None,num_4,0.4261606,521.2804413,None,happy,1,Happy,521.7219472,None,None,521.7219472,None,,,,,,,,,,,,,,,,,,,,,,,,,,,,,,,,,,,,,,,,,,,,,,,,,,,,47,1,1,22,500,500,2022_Dec_15_1503,Experiment,2021.1.4,360.6449775
images\S4_M_S_02.png,images\S4_M_S_02_scrambled.png,4,sad,-20,male,2,,383,off,1,0.5,0.75,0.5,0.783,3,382,3,1,1,0,0,0,0,2,,,,,,0,47,47,47,,,,,,,,,,,,,,,,,,,,,,,,,,,,,,,,,,,,,,,,,,,,,,,,,,,,,,,,,521.7719063,522.2773574,522.2773574,523.0270815,523.0270815,523.5297533,523.5297533,524.318343,524.318343,None,num_6,0.0843487,524.318343,None,sad,1,Sad,524.4183271,None,None,524.4183271,None,,,,,,,,,,,,,,,,,,,,,,,,,,,,,,,,,,,,,,,,,,,,,,,,,,,,47,1,1,22,500,500,2022_Dec_15_1503,Experiment,2021.1.4,360.6449775
images\S9_F_H_02.png,images\S9_F_H_02_scrambled.png,9,happy,20,female,5,,170,off,1,0.5,0.75,0.5,0.937,3,169,4,1,1,0,0,0,0,5,,,,,,0,48,48,48,,,,,,,,,,,,,,,,,,,,,,,,,,,,,,,,,,,,,,,,,,,,,,,,,,,,,,,,,524.4877475,524.9931678,524.9931678,525.7484815,525.7484815,526.2512045,526.2512045,527.1924977,527.1924977,None,num_4,0.202127,527.1924977,None,happy,1,Happy,527.4147033,None,None,527.4147033,None,,,,,,,,,,,,,,,,,,,,,,,,,,,,,,,,,,,,,,,,,,,,,,,,,,,,47,1,1,22,500,500,2022_Dec_15_1503,Experiment,2021.1.4,360.6449775
images\S7_F_S_02.png,images\S7_F_S_02_scrambled.png,7,sad,-20,female,2,,341,on,2,0.5,0.75,0.5,0.886,3,340,1,1,1,2,2,32,128,162,,,,,,0,49,49,49,,,,,,,,,,,,,,,,,,,,,,,,,,,,,,,,,,,,,,,,,,,,,,,,,,,,,,,,,527.4868082,527.9922544,527.9922544,528.7447686,528.7447686,529.2474127,529.2474127,530.1361352,530.1361352,None,num_4,0.4265655,530.1361352,None,happy,1,Sad,530.5720945,None,None,530.5720945,None,,,,,,,,,,,,,,,,,,,,,,,,,,,,,,,,,,,,,,,,,,,,,,,,,,,,47,1,1,22,500,500,2022_Dec_15_1503,Experiment,2021.1.4,360.6449775
images\S4_M_H_01.png,images\S4_M_H_01_scrambled.png,4,happy,10,male,4,,439,on,2,0.5,0.75,0.5,0.913,3,438,2,1,1,2,2,32,128,164,,,,,,0,50,50,50,,,,,,,,,,,,,,,,,,,,,,,,,,,,,,,,,,,,,,,,,,,,,,,,,,,,,,,,,530.6330585,531.1357095,531.1357095,531.8854897,531.8854897,532.3880685,532.3880685,533.3072951,533.3072951,None,num_6,0.2398886,533.3072951,None,sad,1,Happy,533.5601539,None,None,533.5601539,None,,,,,,,,,,,,,,,,,,,,,,,,,,,,,,,,,,,,,,,,,,,,,,,,,,,,47,1,1,22,500,500,2022_Dec_15_1503,Experiment,2021.1.4,360.6449775
images\S7_F_H_03.png,images\S7_F_H_03_scrambled.png,7,happy,30,female,6,,99,on,2,0.5,0.75,0.5,0.813,3,98,3,1,1,2,2,32,128,166,,,,,,0,51,51,51,,,,,,,,,,,,,,,,,,,,,,,,,,,,,,,,,,,,,,,,,,,,,,,,,,,,,,,,,533.6182536,534.1208967,534.1208967,534.8706274,534.8706274,535.3732914,535.3732914,536.1869081,536.1869081,None,num_4,0.1758774,536.1869081,None,happy,1,Happy,536.378522,None,None,536.378522,None,,,,,,,,,,,,,,,,,,,,,,,,,,,,,,,,,,,,,,,,,,,,,,,,,,,,47,1,1,22,500,500,2022_Dec_15_1503,Experiment,2021.1.4,360.6449775
images\S2_M_H_03.png,images\S2_M_H_03_scrambled.png,2,happy,30,male,6,,549,on,2,0.5,0.75,0.5,0.795,3,548,4,1,2,2,2,32,128,166,,,,,,0,52,52,52,,,,,,,,,,,,,,,,,,,,,,,,,,,,,,,,,,,,,,,,,,,,,,,,,,,,,,,,,536.4284916,536.9339123,536.9339123,537.6864575,537.6864575,538.1919304,538.1919304,538.9917059,538.9917059,None,num_4,0.2347459,538.9917059,None,happy,1,Happy,539.2415052,None,None,539.2415052,None,,,,,,,,,,,,,,,,,,,,,,,,,,,,,,,,,,,,,,,,,,,,,,,,,,,,47,1,1,22,500,500,2022_Dec_15_1503,Experiment,2021.1.4,360.6449775
images\S8_M_H_01.png,images\S8_M_H_01_scrambled.png,8,happy,10,male,4,,583,on,2,0.5,0.75,0.5,0.857,3,582,5,1,1,2,2,32,128,164,,,,,,0,53,53,53,,,,,,,,,,,,,,,,,,,,,,,,,,,,,,,,,,,,,,,,,,,,,,,,,,,,,,,,,539.2915047,539.796982,539.796982,540.546683,540.546683,541.0521052,541.0521052,541.912951,541.912951,None,num_4,0.1540444,541.912951,None,happy,1,Happy,542.0879916,None,None,542.0879916,None,,,,,,,,,,,,,,,,,,,,,,,,,,,,,,,,,,,,,,,,,,,,,,,,,,,,47,1,1,22,500,500,2022_Dec_15_1503,Experiment,2021.1.4,360.6449775
images\S2_M_H_01.png,images\S2_M_H_01_scrambled.png,2,happy,10,male,4,,247,off,1,0.5,0.75,0.5,0.79,3,246,1,1,2,0,0,0,0,4,,,,,,0,54,54,54,,,,,,,,,,,,,,,,,,,,,,,,,,,,,,,,,,,,,,,,,,,,,,,,,,,,,,,,,542.1933791,542.6961411,542.6961411,543.4485762,543.4485762,543.9513015,543.9513015,544.7481731,544.7481731,None,num_4,0.1824911,544.7481731,None,happy,1,Happy,544.9481164,None,None,544.9481164,None,,,,,,,,,,,,,,,,,,,,,,,,,,,,,,,,,,,,,,,,,,,,,,,,,,,,47,1,1,22,500,500,2022_Dec_15_1503,Experiment,2021.1.4,360.6449775
images\S7_F_H_03.png,images\S7_F_H_03_scrambled.png,7,happy,30,female,6,,399,off,1,0.5,0.75,0.5,0.875,3,398,2,1,1,0,0,0,0,6,,,,,,0,55,55,55,,,,,,,,,,,,,,,,,,,,,,,,,,,,,,,,,,,,,,,,,,,,,,,,,,,,,,,,,544.9980787,545.497918,545.497918,546.2532665,546.2532665,546.7559887,546.7559887,547.6362614,547.6362614,None,num_4,0.1982319,547.6362614,None,happy,1,Happy,547.8471884,None,None,547.8471884,None,,,,,,,,,,,,,,,,,,,,,,,,,,,,,,,,,,,,,,,,,,,,,,,,,,,,47,1,1,22,500,500,2022_Dec_15_1503,Experiment,2021.1.4,360.6449775
images\S1_F_H_02.png,images\S1_F_H_02_scrambled.png,1,happy,20,female,5,,2,off,1,0.5,0.75,0.5,0.805,3,1,3,1,1,0,0,0,0,5,,,,,,0,56,56,56,,,,,,,,,,,,,,,,,,,,,,,,,,,,,,,,,,,,,,,,,,,,,,,,,,,,,,,,,547.8943899,548.3970274,548.3970274,549.1468003,549.1468003,549.6522358,549.6522358,550.4630766,550.4630766,None,num_4,0.3552787,550.4630766,None,happy,1,Happy,550.8435579,None,None,550.8435579,None,,,,,,,,,,,,,,,,,,,,,,,,,,,,,,,,,,,,,,,,,,,,,,,,,,,,47,1,1,22,500,500,2022_Dec_15_1503,Experiment,2021.1.4,360.6449775
images\S10_M_S_02.png,images\S10_M_S_02_scrambled.png,10,sad,-20,male,2,,599,on,2,0.5,0.75,0.5,0.822,3,598,1,1,1,2,2,32,128,162,,,,,,0,57,57,57,,,,,,,,,,,,,,,,,,,,,,,,,,,,,,,,,,,,,,,,,,,,,,,,,,,,,,,,,550.9045195,551.4100292,551.4100292,552.1654368,552.1654368,552.6708009,552.6708009,553.495593,553.495593,None,num_4,0.2031155,553.495593,None,happy,1,Sad,553.7121803,None,None,553.7121803,None,,,,,,,,,,,,,,,,,,,,,,,,,,,,,,,,,,,,,,,,,,,,,,,,,,,,47,1,1,22,500,500,2022_Dec_15_1503,Experiment,2021.1.4,360.6449775
images\S8_M_S_02.png,images\S8_M_S_02_scrambled.png,8,sad,-20,male,2,,527,off,1,0.5,0.75,0.5,0.836,3,526,1,1,2,0,0,0,0,2,,,,,,0,58,58,58,,,,,,,,,,,,,,,,,,,,,,,,,,,,,,,,,,,,,,,,,,,,,,,,,,,,,,,,,553.8203465,554.3258656,554.3258656,555.0755413,555.0755413,555.5753875,555.5753875,556.416806,556.416806,None,num_6,0.4097346,556.416806,None,sad,1,Sad,556.8416541,None,None,556.8416541,None,,,,,,,,,,,,,,,,,,,,,,,,,,,,,,,,,,,,,,,,,,,,,,,,,,,,47,1,1,22,500,500,2022_Dec_15_1503,Experiment,2021.1.4,360.6449775
images\blank.jpg,images\blank.jpg,none,none,none,none,0,,610,on,2,0.5,0.75,0.5,0.752,0,609,1,1,1,3,3,48,192,240,,,,,,0,59,59,59,,,,,,,,,,,,,,,,,,,,,,,,,,,,,,,,,,,,,,,,,,,,,,,,,,,,,,,,,556.9417988,557.4470338,557.4470338,558.1997017,558.1997017,558.7022026,558.7022026,559.4604058,559.4604058,559.4604058,None,,559.4604058,None,miss,1,,562.4622184,None,None,562.4622184,None,,,,,,,,,,,,,,,,,,,,,,,,,,,,,,,,,,,,,,,,,,,,,,,,,,,,47,1,1,22,500,500,2022_Dec_15_1503,Experiment,2021.1.4,360.6449775
images\S3_F_H_03.png,images\S3_F_H_03_scrambled.png,3,happy,30,female,6,,75,on,2,0.5,0.75,0.5,0.865,3,74,2,1,1,2,2,32,128,166,,,,,,0,60,60,60,,,,,,,,,,,,,,,,,,,,,,,,,,,,,,,,,,,,,,,,,,,,,,,,,,,,,,,,,562.5845467,563.0897566,563.0897566,563.8422933,563.8422933,564.3449208,564.3449208,565.2140927,565.2140927,None,num_4,0.2524456,565.2140927,562.5845467,happy,1,Happy,565.4779382,None,None,565.4779382,None,,,,,,,,,,,,,,,,,,,,,,,,,,,,,,,,,,,,,,,,,,,,,,,,,,,,47,1,1,22,500,500,2022_Dec_15_1503,Experiment,2021.1.4,360.6449775
images\S4_M_S_02.png,images\S4_M_S_02_scrambled.png,4,sad,-20,male,2,,263,off,1,0.5,0.75,0.5,0.775,3,262,1,1,1,0,0,0,0,2,,,,,,0,61,61,61,,,,,,,,,,,,,,,,,,,,,,,,,,,,,,,,,,,,,,,,,,,,,,,,,,,,,,,,,565.5445094,566.0472795,566.0472795,566.7968936,566.7968936,567.2995606,567.2995606,568.0798716,568.0798716,None,num_6,0.554747,568.0798716,None,sad,1,Sad,568.6491006,None,None,568.6491006,None,,,,,,,,,,,,,,,,,,,,,,,,,,,,,,,,,,,,,,,,,,,,,,,,,,,,47,1,1,22,500,500,2022_Dec_15_1503,Experiment,2021.1.4,360.6449775
images\S1_F_S_03.png,images\S1_F_S_03_scrambled.png,1,sad,-30,female,1,,246,off,1,0.5,0.75,0.5,0.837,3,245,2,1,1,0,0,0,0,1,,,,,,0,62,62,62,,,,,,,,,,,,,,,,,,,,,,,,,,,,,,,,,,,,,,,,,,,,,,,,,,,,,,,,,568.696321,569.1961552,569.1961552,569.9515752,569.9515752,570.4569584,570.4569584,571.2982863,571.2982863,None,num_6,0.3201259,571.2982863,None,sad,1,Sad,571.6482344,None,None,571.6482344,None,,,,,,,,,,,,,,,,,,,,,,,,,,,,,,,,,,,,,,,,,,,,,,,,,,,,47,1,1,22,500,500,2022_Dec_15_1503,Experiment,2021.1.4,360.6449775
images\S10_M_S_01.png,images\S10_M_S_01_scrambled.png,10,sad,-10,male,3,,118,on,2,0.5,0.75,0.5,0.832,3,117,1,1,1,2,2,32,128,163,,,,,,0,63,63,63,,,,,,,,,,,,,,,,,,,,,,,,,,,,,,,,,,,,,,,,,,,,,,,,,,,,,,,,,571.7009481,572.2035832,572.2035832,572.9561344,572.9561344,573.4616029,573.4616029,574.2974063,574.2974063,None,num_4,0.3457077,574.2974063,None,happy,1,Sad,574.6556997,None,None,574.6556997,None,,,,,,,,,,,,,,,,,,,,,,,,,,,,,,,,,,,,,,,,,,,,,,,,,,,,47,1,1,22,500,500,2022_Dec_15_1503,Experiment,2021.1.4,360.6449775
images\blank.jpg,images\blank.jpg,none,none,none,none,0,,638,on,2,0.5,0.75,0.5,0.824,0,637,2,1,1,3,3,48,192,240,,,,,,0,64,64,64,,,,,,,,,,,,,,,,,,,,,,,,,,,,,,,,,,,,,,,,,,,,,,,,,,,,,,,,,574.7557592,575.2582055,575.2582055,576.0108646,576.0108646,576.5133641,576.5133641,577.3410004,577.3410004,577.3410004,None,,577.3410004,None,miss,1,,580.3455211,None,None,580.3455211,None,,,,,,,,,,,,,,,,,,,,,,,,,,,,,,,,,,,,,,,,,,,,,,,,,,,,47,1,1,22,500,500,2022_Dec_15_1503,Experiment,2021.1.4,360.6449775
images\S2_M_H_02.png,images\S2_M_H_02_scrambled.png,2,happy,20,male,5,,128,off,1,0.5,0.75,0.5,0.928,3,127,1,1,1,0,0,0,0,5,,,,,,0,65,65,65,,,,,,,,,,,,,,,,,,,,,,,,,,,,,,,,,,,,,,,,,,,,,,,,,,,,,,,,,580.4899743,580.9953265,580.9953265,581.7478468,581.7478468,582.2505025,582.2505025,583.180772,583.180772,None,num_4,0.0138955,583.180772,580.4899743,happy,1,Happy,583.2113032,None,None,583.2113032,None,,,,,,,,,,,,,,,,,,,,,,,,,,,,,,,,,,,,,,,,,,,,,,,,,,,,47,1,1,22,500,500,2022_Dec_15_1503,Experiment,2021.1.4,360.6449775
images\S1_F_H_02.png,images\S1_F_H_02_scrambled.png,1,happy,20,female,5,,182,on,2,0.5,0.75,0.5,0.929,3,181,1,1,2,2,2,32,128,165,,,,,,0,66,66,66,,,,,,,,,,,,,,,,,,,,,,,,,,,,,,,,,,,,,,,,,,,,,,,,,,,,,,,,,583.2584895,583.7583329,583.7583329,584.5081066,584.5081066,585.0107636,585.0107636,585.943899,585.943899,None,num_4,0.2344855,585.943899,None,happy,1,Happy,586.1937123,None,None,586.1937123,None,,,,,,,,,,,,,,,,,,,,,,,,,,,,,,,,,,,,,,,,,,,,,,,,,,,,47,1,1,22,500,500,2022_Dec_15_1503,Experiment,2021.1.4,360.6449775
images\S2_M_H_01.png,images\S2_M_H_01_scrambled.png,2,happy,10,male,4,,487,off,1,0.5,0.75,0.5,0.926,3,486,1,1,1,0,0,0,0,4,,,,,,0,67,67,67,,,,,,,,,,,,,,,,,,,,,,,,,,,,,,,,,,,,,,,,,,,,,,,,,,,,,,,,,586.2409041,586.7463318,586.7463318,587.501643,587.501643,588.0042364,588.0042364,588.934632,588.934632,None,num_6,0.2757269,588.934632,None,sad,1,Happy,589.2177397,None,None,589.2177397,None,,,,,,,,,,,,,,,,,,,,,,,,,,,,,,,,,,,,,,,,,,,,,,,,,,,,47,1,1,22,500,500,2022_Dec_15_1503,Experiment,2021.1.4,360.6449775
images\S4_M_S_02.png,images\S4_M_S_02_scrambled.png,4,sad,-20,male,2,,443,on,2,0.5,0.75,0.5,0.894,3,442,1,1,1,2,2,32,128,162,,,,,,0,68,68,68,,,,,,,,,,,,,,,,,,,,,,,,,,,,,,,,,,,,,,,,,,,,,,,,,,,,,,,,,589.264964,589.7648063,589.7648063,590.514576,590.514576,591.0171985,591.0171985,591.9142061,591.9142061,None,num_6,0.3761474,591.9142061,None,sad,1,Sad,592.3141061,None,None,592.3141061,None,,,,,,,,,,,,,,,,,,,,,,,,,,,,,,,,,,,,,,,,,,,,,,,,,,,,47,1,1,22,500,500,2022_Dec_15_1503,Experiment,2021.1.4,360.6449775
images\S5_F_H_03.png,images\S5_F_H_03_scrambled.png,5,happy,30,female,6,,447,on,2,0.5,0.75,0.5,0.787,3,446,2,1,1,2,2,32,128,166,,,,,,0,69,69,69,,,,,,,,,,,,,,,,,,,,,,,,,,,,,,,,,,,,,,,,,,,,,,,,,,,,,,,,,592.4195496,592.9221467,592.9221467,593.6747527,593.6747527,594.1773856,594.1773856,594.9688556,594.9688556,None,num_4,0.305481,594.9688556,None,happy,1,Happy,595.2853621,None,None,595.2853621,None,,,,,,,,,,,,,,,,,,,,,,,,,,,,,,,,,,,,,,,,,,,,,,,,,,,,47,1,1,22,500,500,2022_Dec_15_1503,Experiment,2021.1.4,360.6449775
images\S7_F_H_02.png,images\S7_F_H_02_scrambled.png,7,happy,20,female,5,,278,off,1,0.5,0.75,0.5,0.941,3,277,1,1,1,0,0,0,0,5,,,,,,0,70,70,70,,,,,,,,,,,,,,,,,,,,,,,,,,,,,,,,,,,,,,,,,,,,,,,,,,,,,,,,,595.3436441,595.8490562,595.8490562,596.5988118,596.5988118,597.1042667,597.1042667,598.0485001,598.0485001,None,num_4,0.2740448,598.0485001,None,happy,1,Happy,598.3456736,None,None,598.3456736,None,,,,,,,,,,,,,,,,,,,,,,,,,,,,,,,,,,,,,,,,,,,,,,,,,,,,47,1,1,22,500,500,2022_Dec_15_1503,Experiment,2021.1.4,360.6449775
images\S10_M_S_03.png,images\S10_M_S_03_scrambled.png,10,sad,-30,male,1,,480,on,2,0.5,0.75,0.5,0.843,3,479,1,1,1,2,2,32,128,161,,,,,,0,71,71,71,,,,,,,,,,,,,,,,,,,,,,,,,,,,,,,,,,,,,,,,,,,,,,,,,,,,,,,,,598.3982588,598.9009001,598.9009001,599.6562161,599.6562161,600.1560685,600.1560685,601.0057841,601.0057841,None,num_6,0.2607109,601.0057841,None,sad,1,Sad,601.2835715,None,None,601.2835715,None,,,,,,,,,,,,,,,,,,,,,,,,,,,,,,,,,,,,,,,,,,,,,,,,,,,,47,1,1,22,500,500,2022_Dec_15_1503,Experiment,2021.1.4,360.6449775
images\blank.jpg,images\blank.jpg,none,none,none,none,0,,608,on,2,0.5,0.75,0.5,0.944,0,607,2,1,1,3,3,48,192,240,,,,,,0,72,72,72,,,,,,,,,,,,,,,,,,,,,,,,,,,,,,,,,,,,,,,,,,,,,,,,,,,,,,,,,601.3670232,601.8694482,601.8694482,602.624769,602.624769,603.1274015,603.1274015,604.0716062,604.0716062,604.0716062,None,,604.0716062,None,miss,1,,607.073386,None,None,607.073386,None,,,,,,,,,,,,,,,,,,,,,,,,,,,,,,,,,,,,,,,,,,,,,,,,,,,,47,1,1,22,500,500,2022_Dec_15_1503,Experiment,2021.1.4,360.6449775
images\S9_F_S_02.png,images\S9_F_S_02_scrambled.png,9,sad,-20,female,2,,593,on,2,0.5,0.75,0.5,0.773,3,592,3,1,1,2,2,32,128,162,,,,,,0,73,73,73,,,,,,,,,,,,,,,,,,,,,,,,,,,,,,,,,,,,,,,,,,,,,,,,,,,,,,,,,607.1874485,607.6870522,607.6870522,608.4368222,608.4368222,608.9422499,608.9422499,609.7198874,609.7198874,None,num_6,0.2026025,609.7198874,607.1874485,sad,1,Sad,609.93636,None,None,609.93636,None,,,,,,,,,,,,,,,,,,,,,,,,,,,,,,,,,,,,,,,,,,,,,,,,,,,,47,1,1,22,500,500,2022_Dec_15_1503,Experiment,2021.1.4,360.6449775
images\S8_M_H_03.png,images\S8_M_H_03_scrambled.png,8,happy,30,male,6,,585,on,2,0.5,0.75,0.5,0.869,3,584,4,1,1,2,2,32,128,166,,,,,,0,74,74,74,,,,,,,,,,,,,,,,,,,,,,,,,,,,,,,,,,,,,,,,,,,,,,,,,,,,,,,,,610.0169048,610.5167357,610.5167357,611.2721109,611.2721109,611.7747412,611.7747412,612.6467203,612.6467203,None,num_4,0.219781,612.6467203,None,happy,1,Happy,612.8798965,None,None,612.8798965,None,,,,,,,,,,,,,,,,,,,,,,,,,,,,,,,,,,,,,,,,,,,,,,,,,,,,47,1,1,22,500,500,2022_Dec_15_1503,Experiment,2021.1.4,360.6449775
images\S8_M_S_02.png,images\S8_M_S_02_scrambled.png,8,sad,-20,male,2,,287,off,1,0.5,0.75,0.5,0.854,3,286,1,2,1,0,0,0,0,2,,,,,,0,75,75,75,,,,,,,,,,,,,,,,,,,,,,,,,,,,,,,,,,,,,,,,,,,,,,,,,,,,,,,,,612.9298866,613.4325098,613.4325098,614.1850845,614.1850845,614.690476,614.690476,615.545744,615.545744,None,num_6,0.4086454,615.545744,None,sad,1,Sad,615.9678238,None,None,615.9678238,None,,,,,,,,,,,,,,,,,,,,,,,,,,,,,,,,,,,,,,,,,,,,,,,,,,,,47,1,1,22,500,500,2022_Dec_15_1503,Experiment,2021.1.4,360.6449775
images\S3_F_H_02.png,images\S3_F_H_02_scrambled.png,3,happy,20,female,5,,554,on,2,0.5,0.75,0.5,0.826,3,553,1,1,1,2,2,32,128,165,,,,,,0,76,76,76,,,,,,,,,,,,,,,,,,,,,,,,,,,,,,,,,,,,,,,,,,,,,,,,,,,,,,,,,616.0150468,616.5204805,616.5204805,617.2702104,617.2702104,617.7728538,617.7728538,618.6059255,618.6059255,None,num_4,0.3966545,618.6059255,None,happy,1,Happy,619.0168978,None,None,619.0168978,None,,,,,,,,,,,,,,,,,,,,,,,,,,,,,,,,,,,,,,,,,,,,,,,,,,,,47,1,1,22,500,500,2022_Dec_15_1503,Experiment,2021.1.4,360.6449775
images\S2_M_S_03.png,images\S2_M_S_03_scrambled.png,2,sad,-30,male,1,,492,off,1,0.5,0.75,0.5,0.886,3,491,1,1,1,0,0,0,0,1,,,,,,0,77,77,77,,,,,,,,,,,,,,,,,,,,,,,,,,,,,,,,,,,,,,,,,,,,,,,,,,,,,,,,,619.0668838,619.5723071,619.5723071,620.324847,620.324847,620.827477,620.827477,621.7161189,621.7161189,None,num_6,0.4543485,621.7161189,None,sad,1,Sad,622.1853904,None,None,622.1853904,None,,,,,,,,,,,,,,,,,,,,,,,,,,,,,,,,,,,,,,,,,,,,,,,,,,,,47,1,1,22,500,500,2022_Dec_15_1503,Experiment,2021.1.4,360.6449775
images\S1_F_H_03.png,images\S1_F_H_03_scrambled.png,1,happy,30,female,6,,543,on,2,0.5,0.75,0.5,0.848,3,542,1,1,1,2,2,32,128,166,,,,,,0,78,78,78,,,,,,,,,,,,,,,,,,,,,,,,,,,,,,,,,,,,,,,,,,,,,,,,,,,,,,,,,622.265906,622.7685327,622.7685327,623.5183055,623.5183055,624.023777,624.023777,624.8735573,624.8735573,None,num_4,0.4807918,624.8735573,None,happy,1,Happy,625.3649794,None,None,625.3649794,None,,,,,,,,,,,,,,,,,,,,,,,,,,,,,,,,,,,,,,,,,,,,,,,,,,,,47,1,1,22,500,500,2022_Dec_15_1503,Experiment,2021.1.4,360.6449775
images\S3_F_S_02.png,images\S3_F_S_02_scrambled.png,3,sad,-20,female,2,,17,off,1,0.5,0.75,0.5,0.917,3,16,1,1,1,0,0,0,0,2,,,,,,0,79,79,79,,,,,,,,,,,,,,,,,,,,,,,,,,,,,,,,,,,,,,,,,,,,,,,,,,,,,,,,,625.4149273,625.9175635,625.9175635,626.6702157,626.6702157,627.1699618,627.1699618,628.0919105,628.0919105,None,num_6,0.4944325,628.0919105,None,sad,1,Sad,628.6111982,None,None,628.6111982,None,,,,,,,,,,,,,,,,,,,,,,,,,,,,,,,,,,,,,,,,,,,,,,,,,,,,47,1,1,22,500,500,2022_Dec_15_1503,Experiment,2021.1.4,360.6449775
images\S4_M_S_03.png,images\S4_M_S_03_scrambled.png,4,sad,-30,male,1,,384,off,1,0.5,0.75,0.5,0.844,3,383,2,1,1,0,0,0,0,1,,,,,,0,80,80,80,,,,,,,,,,,,,,,,,,,,,,,,,,,,,,,,,,,,,,,,,,,,,,,,,,,,,,,,,628.6639152,629.1637577,629.1637577,629.9135314,629.9135314,630.4162269,630.4162269,631.2659456,631.2659456,None,num_6,0.5445777,631.2659456,None,sad,1,Sad,631.8268663,None,None,631.8268663,None,,,,,,,,,,,,,,,,,,,,,,,,,,,,,,,,,,,,,,,,,,,,,,,,,,,,47,1,1,22,500,500,2022_Dec_15_1503,Experiment,2021.1.4,360.6449775
images\S10_M_S_03.png,images\S10_M_S_03_scrambled.png,10,sad,-30,male,1,,360,on,2,0.5,0.75,0.5,0.907,3,359,1,1,2,2,2,32,128,161,,,,,,0,81,81,81,,,,,,,,,,,,,,,,,,,,,,,,,,,,,,,,,,,,,,,,,,,,,,,,,,,,,,,,,631.8740383,632.3766651,632.3766651,633.1320137,633.1320137,633.6346353,633.6346353,634.5455684,634.5455684,None,num_4,0.2726938,634.5455684,None,happy,1,Sad,634.8258911,None,None,634.8258911,None,,,,,,,,,,,,,,,,,,,,,,,,,,,,,,,,,,,,,,,,,,,,,,,,,,,,47,1,1,22,500,500,2022_Dec_15_1503,Experiment,2021.1.4,360.6449775
images\S3_F_H_01.png,images\S3_F_H_01_scrambled.png,3,happy,10,female,4,,253,off,1,0.5,0.75,0.5,0.776,3,252,1,1,1,0,0,0,0,4,,,,,,0,82,82,82,,,,,,,,,,,,,,,,,,,,,,,,,,,,,,,,,,,,,,,,,,,,,,,,,,,,,,,,,634.8731132,635.3758263,635.3758263,636.1282967,636.1282967,636.630962,636.630962,637.4112803,637.4112803,None,num_6,0.3113802,637.4112803,None,sad,1,Happy,637.7306787,None,None,637.7306787,None,,,,,,,,,,,,,,,,,,,,,,,,,,,,,,,,,,,,,,,,,,,,,,,,,,,,47,1,1,22,500,500,2022_Dec_15_1503,Experiment,2021.1.4,360.6449775
images\S4_M_S_03.png,images\S4_M_S_03_scrambled.png,4,sad,-30,male,1,,444,on,2,0.5,0.75,0.5,0.848,3,443,1,1,1,2,2,32,128,161,,,,,,0,83,83,83,,,,,,,,,,,,,,,,,,,,,,,,,,,,,,,,,,,,,,,,,,,,,,,,,,,,,,,,,637.7916879,638.2942827,638.2942827,639.046867,639.046867,639.5522644,639.5522644,640.404874,640.404874,None,num_6,0.6215351,640.404874,None,sad,1,Sad,641.0406458,None,None,641.0406458,None,,,,,,,,,,,,,,,,,,,,,,,,,,,,,,,,,,,,,,,,,,,,,,,,,,,,47,1,1,22,500,500,2022_Dec_15_1503,Experiment,2021.1.4,360.6449775
images\S5_F_H_01.png,images\S5_F_H_01_scrambled.png,5,happy,10,female,4,,145,off,1,0.5,0.75,0.5,0.833,3,144,1,1,1,0,0,0,0,4,,,,,,0,84,84,84,,,,,,,,,,,,,,,,,,,,,,,,,,,,,,,,,,,,,,,,,,,,,,,,,,,,,,,,,641.0878686,641.5906327,641.5906327,642.3458741,642.3458741,642.8456951,642.8456951,643.6815561,643.6815561,None,num_4,0.3288326,643.6815561,None,happy,1,Happy,644.0259649,None,None,644.0259649,None,,,,,,,,,,,,,,,,,,,,,,,,,,,,,,,,,,,,,,,,,,,,,,,,,,,,47,1,1,22,500,500,2022_Dec_15_1503,Experiment,2021.1.4,360.6449775
images\S10_M_S_02.png,images\S10_M_S_02_scrambled.png,10,sad,-20,male,2,,179,off,1,0.5,0.75,0.5,0.904,3,178,2,1,1,0,0,0,0,2,,,,,,0,85,85,85,,,,,,,,,,,,,,,,,,,,,,,,,,,,,,,,,,,,,,,,,,,,,,,,,,,,,,,,,644.0897135,644.5923739,644.5923739,645.3476717,645.3476717,645.8502963,645.8502963,646.7611682,646.7611682,None,num_4,0.481027,646.7611682,None,happy,1,Sad,647.2470961,None,None,647.2470961,None,,,,,,,,,,,,,,,,,,,,,,,,,,,,,,,,,,,,,,,,,,,,,,,,,,,,47,1,1,22,500,500,2022_Dec_15_1503,Experiment,2021.1.4,360.6449775
images\blank.jpg,images\blank.jpg,none,none,none,none,0,,631,on,2,0.5,0.75,0.5,0.946,0,630,1,1,1,3,3,48,192,240,,,,,,0,86,86,86,,,,,,,,,,,,,,,,,,,,,,,,,,,,,,,,,,,,,,,,,,,,,,,,,,,,,,,,,647.3306331,647.833001,647.833001,648.5883647,648.5883647,649.0937713,649.0937713,650.0406994,650.0406994,650.0406994,None,,650.0406994,None,miss,1,,653.0453685,None,None,653.0453685,None,,,,,,,,,,,,,,,,,,,,,,,,,,,,,,,,,,,,,,,,,,,,,,,,,,,,47,1,1,22,500,500,2022_Dec_15_1503,Experiment,2021.1.4,360.6449775
images\S5_F_S_02.png,images\S5_F_S_02_scrambled.png,5,sad,-20,female,2,,389,off,1,0.5,0.75,0.5,0.843,3,388,1,1,1,0,0,0,0,2,,,,,,0,87,87,87,,,,,,,,,,,,,,,,,,,,,,,,,,,,,,,,,,,,,,,,,,,,,,,,,,,,,,,,,653.1676914,653.6701363,653.6701363,654.4254154,654.4254154,654.9308539,654.9308539,655.7805906,655.7805906,None,num_6,0.3097788,655.7805906,653.1676914,sad,1,Sad,656.1054774,None,None,656.1054774,None,,,,,,,,,,,,,,,,,,,,,,,,,,,,,,,,,,,,,,,,,,,,,,,,,,,,47,1,1,22,500,500,2022_Dec_15_1503,Experiment,2021.1.4,360.6449775
images\S6_M_H_01.png,images\S6_M_H_01_scrambled.png,6,happy,10,male,4,,391,off,1,0.5,0.75,0.5,0.88,3,390,2,1,1,0,0,0,0,4,,,,,,0,88,88,88,,,,,,,,,,,,,,,,,,,,,,,,,,,,,,,,,,,,,,,,,,,,,,,,,,,,,,,,,656.1832116,656.685852,656.685852,657.4411799,657.4411799,657.9439173,657.9439173,658.8268615,658.8268615,None,num_4,0.2233868,658.8268615,None,happy,1,Happy,659.0628734,None,None,659.0628734,None,,,,,,,,,,,,,,,,,,,,,,,,,,,,,,,,,,,,,,,,,,,,,,,,,,,,47,1,1,22,500,500,2022_Dec_15_1503,Experiment,2021.1.4,360.6449775
images\S10_M_H_01.png,images\S10_M_H_01_scrambled.png,10,happy,10,male,4,,595,on,2,0.5,0.75,0.5,0.92,3,594,1,1,2,2,2,32,128,164,,,,,,0,89,89,89,,,,,,,,,,,,,,,,,,,,,,,,,,,,,,,,,,,,,,,,,,,,,,,,,,,,,,,,,659.118412,659.6210799,659.6210799,660.3736272,660.3736272,660.8762586,660.8762586,661.8009411,661.8009411,None,num_4,0.1690646,661.8009411,None,happy,1,Happy,661.984205,None,None,661.984205,None,,,,,,,,,,,,,,,,,,,,,,,,,,,,,,,,,,,,,,,,,,,,,,,,,,,,47,1,1,22,500,500,2022_Dec_15_1503,Experiment,2021.1.4,360.6449775
images\S4_M_H_02.png,images\S4_M_H_02_scrambled.png,4,happy,20,male,5,,20,off,1,0.5,0.75,0.5,0.756,3,19,1,1,1,0,0,0,0,5,,,,,,0,90,90,90,,,,,,,,,,,,,,,,,,,,,,,,,,,,,,,,,,,,,,,,,,,,,,,,,,,,,,,,,662.0314331,662.5368307,662.5368307,663.2865653,663.2865653,663.7891917,663.7891917,664.5445102,664.5445102,None,num_6,0.2659634,664.5445102,None,sad,1,Happy,664.8221944,None,None,664.8221944,None,,,,,,,,,,,,,,,,,,,,,,,,,,,,,,,,,,,,,,,,,,,,,,,,,,,,47,1,1,22,500,500,2022_Dec_15_1503,Experiment,2021.1.4,360.6449775
images\S7_F_H_02.png,images\S7_F_H_02_scrambled.png,7,happy,20,female,5,,98,on,2,0.5,0.75,0.5,0.868,3,97,1,1,2,2,2,32,128,165,,,,,,0,91,91,91,,,,,,,,,,,,,,,,,,,,,,,,,,,,,,,,,,,,,,,,,,,,,,,,,,,,,,,,,664.8860766,665.3915256,665.3915256,666.1468263,666.1468263,666.6466382,666.6466382,667.5213996,667.5213996,None,num_4,0.2968004,667.5213996,None,happy,1,Happy,667.832453,None,None,667.832453,None,,,,,,,,,,,,,,,,,,,,,,,,,,,,,,,,,,,,,,,,,,,,,,,,,,,,47,1,1,22,500,500,2022_Dec_15_1503,Experiment,2021.1.4,360.6449775
images\S5_F_S_03.png,images\S5_F_S_03_scrambled.png,5,sad,-30,female,1,,210,on,2,0.5,0.75,0.5,0.784,3,209,2,1,1,2,2,32,128,161,,,,,,0,92,92,92,,,,,,,,,,,,,,,,,,,,,,,,,,,,,,,,,,,,,,,,,,,,,,,,,,,,,,,,,667.8795856,668.3822063,668.3822063,669.1349088,669.1349088,669.6374127,669.6374127,670.426094,670.426094,None,num_4,1.1921492,670.426094,None,happy,1,Sad,671.6256474,None,None,671.6256474,None,,,,,,,,,,,,,,,,,,,,,,,,,,,,,,,,,,,,,,,,,,,,,,,,,,,,47,1,1,22,500,500,2022_Dec_15_1503,Experiment,2021.1.4,360.6449775
images\blank.jpg,images\blank.jpg,none,none,none,none,0,,611,on,2,0.5,0.75,0.5,0.847,0,610,3,1,1,3,3,48,192,240,,,,,,0,93,93,93,,,,,,,,,,,,,,,,,,,,,,,,,,,,,,,,,,,,,,,,,,,,,,,,,,,,,,,,,671.7092226,672.2088118,672.2088118,672.9585816,672.9585816,673.4612346,673.4612346,674.3082062,674.3082062,674.3082062,None,,674.3082062,None,miss,1,,677.3101109,None,None,677.3101109,None,,,,,,,,,,,,,,,,,,,,,,,,,,,,,,,,,,,,,,,,,,,,,,,,,,,,47,1,1,22,500,500,2022_Dec_15_1503,Experiment,2021.1.4,360.6449775
images\S9_F_H_01.png,images\S9_F_H_01_scrambled.png,9,happy,10,female,4,,409,off,1,0.5,0.75,0.5,0.886,3,408,1,1,1,0,0,0,0,4,,,,,,0,94,94,94,,,,,,,,,,,,,,,,,,,,,,,,,,,,,,,,,,,,,,,,,,,,,,,,,,,,,,,,,677.4323901,677.9376825,677.9376825,678.6929794,678.6929794,679.1956053,679.1956053,680.0841989,680.0841989,None,num_4,0.2380812,680.0841989,677.4323901,happy,1,Happy,680.3368812,None,None,680.3368812,None,,,,,,,,,,,,,,,,,,,,,,,,,,,,,,,,,,,,,,,,,,,,,,,,,,,,47,1,1,22,500,500,2022_Dec_15_1503,Experiment,2021.1.4,360.6449775
images\S3_F_H_03.png,images\S3_F_H_03_scrambled.png,3,happy,30,female,6,,315,on,2,0.5,0.75,0.5,0.752,3,314,1,1,1,2,2,32,128,166,,,,,,0,95,95,95,,,,,,,,,,,,,,,,,,,,,,,,,,,,,,,,,,,,,,,,,,,,,,,,,,,,,,,,,680.3840738,680.8866963,680.8866963,681.6393792,681.6393792,682.1418583,682.1418583,682.8972189,682.8972189,None,num_4,0.3851946,682.8972189,None,happy,1,Happy,683.2970927,None,None,683.2970927,None,,,,,,,,,,,,,,,,,,,,,,,,,,,,,,,,,,,,,,,,,,,,,,,,,,,,47,1,1,22,500,500,2022_Dec_15_1503,Experiment,2021.1.4,360.6449775
images\S10_M_H_03.png,images\S10_M_H_03_scrambled.png,10,happy,30,male,6,,117,on,2,0.5,0.75,0.5,0.792,3,116,2,1,2,2,2,32,128,166,,,,,,0,96,96,96,,,,,,,,,,,,,,,,,,,,,,,,,,,,,,,,,,,,,,,,,,,,,,,,,,,,,,,,,683.3442734,683.8470375,683.8470375,684.6023466,684.6023466,685.1077594,685.1077594,685.9018103,685.9018103,None,num_4,0.2847573,685.9018103,None,happy,1,Happy,686.204566,None,None,686.204566,None,,,,,,,,,,,,,,,,,,,,,,,,,,,,,,,,,,,,,,,,,,,,,,,,,,,,47,1,1,22,500,500,2022_Dec_15_1503,Experiment,2021.1.4,360.6449775
images\S7_F_H_01.png,images\S7_F_H_01_scrambled.png,7,happy,10,female,4,,157,off,1,0.5,0.75,0.5,0.938,3,156,1,1,1,0,0,0,0,4,,,,,,0,97,97,97,,,,,,,,,,,,,,,,,,,,,,,,,,,,,,,,,,,,,,,,,,,,,,,,,,,,,,,,,686.254485,686.757252,686.757252,687.5125351,687.5125351,688.0178853,688.0178853,688.9592232,688.9592232,None,num_6,0.3711376,688.9592232,None,sad,1,Happy,689.3396805,None,None,689.3396805,None,,,,,,,,,,,,,,,,,,,,,,,,,,,,,,,,,,,,,,,,,,,,,,,,,,,,47,1,1,22,500,500,2022_Dec_15_1503,Experiment,2021.1.4,360.6449775
images\S8_M_S_01.png,images\S8_M_S_01_scrambled.png,8,sad,-10,male,3,,466,on,2,0.5,0.75,0.5,0.758,3,465,1,1,1,2,2,32,128,163,,,,,,0,98,98,98,,,,,,,,,,,,,,,,,,,,,,,,,,,,,,,,,,,,,,,,,,,,,,,,,,,,,,,,,689.4479405,689.9533811,689.9533811,690.7031174,690.7031174,691.2029498,691.2029498,691.9667338,691.9667338,None,num_6,0.4118076,691.9667338,None,sad,1,Sad,692.3944268,None,None,692.3944268,None,,,,,,,,,,,,,,,,,,,,,,,,,,,,,,,,,,,,,,,,,,,,,,,,,,,,47,1,1,22,500,500,2022_Dec_15_1503,Experiment,2021.1.4,360.6449775
images\S4_M_H_01.png,images\S4_M_H_01_scrambled.png,4,happy,10,male,4,,19,off,1,0.5,0.75,0.5,0.934,3,18,1,1,1,0,0,0,0,4,,,,,,0,99,99,99,,,,,,,,,,,,,,,,,,,,,,,,,,,,,,,,,,,,,,,,,,,,,,,,,,,,,,,,,692.4470192,692.9496554,692.9496554,693.7049841,693.7049841,694.2076793,694.2076793,695.1434464,695.1434464,None,num_6,0.1948697,695.1434464,None,sad,1,Happy,695.3489717,None,None,695.3489717,None,,,,,,,,,,,,,,,,,,,,,,,,,,,,,,,,,,,,,,,,,,,,,,,,,,,,47,1,1,22,500,500,2022_Dec_15_1503,Experiment,2021.1.4,360.6449775
images\S7_F_S_02.png,images\S7_F_S_02_scrambled.png,7,sad,-20,female,2,,101,on,2,0.5,0.75,0.5,0.775,3,100,1,1,1,2,2,32,128,162,,,,,,0,100,100,100,,,,,,,,,,,,,,,,,,,,,,,,,,,,,,,,,,,,,,,,,,,,,,,,,,,,,,,,,695.4127695,695.9126278,695.9126278,696.667977,696.667977,697.1733787,697.1733787,697.9509378,697.9509378,None,num_6,1.6996253,697.9509378,None,sad,1,Sad,699.6642319,None,None,699.6642319,None,,,,,,,,,,,,,,,,,,,,,,,,,,,,,,,,,,,,,,,,,,,,,,,,,,,,47,1,1,22,500,500,2022_Dec_15_1503,Experiment,2021.1.4,360.6449775
images\S4_M_S_03.png,images\S4_M_S_03_scrambled.png,4,sad,-30,male,1,,564,on,2,0.5,0.75,0.5,0.895,3,563,2,1,1,2,2,32,128,161,,,,,,0,101,101,101,,,,,,,,,,,,,,,,,,,,,,,,,,,,,,,,,,,,,,,,,,,,,,,,,,,,,,,,,699.7114359,700.2140596,700.2140596,700.9666277,700.9666277,701.469255,701.469255,702.366203,702.366203,None,num_6,0.3080458,702.366203,None,sad,1,Sad,702.6855561,None,None,702.6855561,None,,,,,,,,,,,,,,,,,,,,,,,,,,,,,,,,,,,,,,,,,,,,,,,,,,,,47,1,1,22,500,500,2022_Dec_15_1503,Experiment,2021.1.4,360.6449775
images\S2_M_H_02.png,images\S2_M_H_02_scrambled.png,2,happy,20,male,5,,368,off,1,0.5,0.75,0.5,0.775,3,367,1,1,1,0,0,0,0,5,,,,,,0,102,102,102,,,,,,,,,,,,,,,,,,,,,,,,,,,,,,,,,,,,,,,,,,,,,,,,,,,,,,,,,702.749387,703.2548335,703.2548335,704.0073843,704.0073843,704.5100194,704.5100194,705.2875081,705.2875081,None,num_4,0.4909974,705.2875081,None,happy,1,Happy,705.804059,None,None,705.804059,None,,,,,,,,,,,,,,,,,,,,,,,,,,,,,,,,,,,,,,,,,,,,,,,,,,,,47,1,1,22,500,500,2022_Dec_15_1503,Experiment,2021.1.4,360.6449775
images\S8_M_S_01.png,images\S8_M_S_01_scrambled.png,8,sad,-10,male,3,,406,off,1,0.5,0.75,0.5,0.848,3,405,2,1,1,0,0,0,0,3,,,,,,0,103,103,103,,,,,,,,,,,,,,,,,,,,,,,,,,,,,,,,,,,,,,,,,,,,,,,,,,,,,,,,,705.8567688,706.3595268,706.3595268,707.1119481,707.1119481,707.6146547,707.6146547,708.4644371,708.4644371,None,num_4,0.3380066,708.4644371,None,happy,1,Sad,708.811396,None,None,708.811396,None,,,,,,,,,,,,,,,,,,,,,,,,,,,,,,,,,,,,,,,,,,,,,,,,,,,,47,1,1,22,500,500,2022_Dec_15_1503,Experiment,2021.1.4,360.6449775
images\S6_M_H_03.png,images\S6_M_H_03_scrambled.png,6,happy,30,male,6,,273,off,1,0.5,0.75,0.5,0.913,3,272,3,1,1,0,0,0,0,6,,,,,,0,104,104,104,,,,,,,,,,,,,,,,,,,,,,,,,,,,,,,,,,,,,,,,,,,,,,,,,,,,,,,,,708.8919431,709.3918186,709.3918186,710.1472228,710.1472228,710.6525986,710.6525986,711.5689194,711.5689194,None,num_4,0.2174369,711.5689194,None,happy,1,Happy,711.7994269,None,None,711.7994269,None,,,,,,,,,,,,,,,,,,,,,,,,,,,,,,,,,,,,,,,,,,,,,,,,,,,,47,1,1,22,500,500,2022_Dec_15_1503,Experiment,2021.1.4,360.6449775
images\S3_F_S_01.png,images\S3_F_S_01_scrambled.png,3,sad,-10,female,3,,436,on,2,0.5,0.75,0.5,0.845,3,435,1,1,1,2,2,32,128,163,,,,,,0,105,105,105,,,,,,,,,,,,,,,,,,,,,,,,,,,,,,,,,,,,,,,,,,,,,,,,,,,,,,,,,711.8549206,712.357583,712.357583,713.11289,713.11289,713.6182811,713.6182811,714.4652627,714.4652627,None,num_4,0.2650305,714.4652627,None,happy,1,Sad,714.737375,None,None,714.737375,None,,,,,,,,,,,,,,,,,,,,,,,,,,,,,,,,,,,,,,,,,,,,,,,,,,,,47,1,1,22,500,500,2022_Dec_15_1503,Experiment,2021.1.4,360.6449775
images\S7_F_S_03.png,images\S7_F_S_03_scrambled.png,7,sad,-30,female,1,,342,on,2,0.5,0.75,0.5,0.867,3,341,2,1,1,2,2,32,128,161,,,,,,0,106,106,106,,,,,,,,,,,,,,,,,,,,,,,,,,,,,,,,,,,,,,,,,,,,,,,,,,,,,,,,,714.7874256,715.2927732,715.2927732,716.0425182,716.0425182,716.5423983,716.5423983,717.4116669,717.4116669,None,num_6,0.2471825,717.4116669,None,sad,1,Sad,717.6782739,None,None,717.6782739,None,,,,,,,,,,,,,,,,,,,,,,,,,,,,,,,,,,,,,,,,,,,,,,,,,,,,47,1,1,22,500,500,2022_Dec_15_1503,Experiment,2021.1.4,360.6449775
images\S8_M_S_01.png,images\S8_M_S_01_scrambled.png,8,sad,-10,male,3,,346,on,2,0.5,0.75,0.5,0.773,3,345,3,1,1,2,2,32,128,163,,,,,,0,107,107,107,,,,,,,,,,,,,,,,,,,,,,,,,,,,,,,,,,,,,,,,,,,,,,,,,,,,,,,,,717.7308854,718.2364303,718.2364303,718.9917049,718.9917049,719.4970594,719.4970594,720.274548,720.274548,None,num_4,1.4638421,720.274548,None,happy,1,Sad,721.7463217,None,None,721.7463217,None,,,,,,,,,,,,,,,,,,,,,,,,,,,,,,,,,,,,,,,,,,,,,,,,,,,,47,1,1,22,500,500,2022_Dec_15_1503,Experiment,2021.1.4,360.6449775
images\S3_F_S_01.png,images\S3_F_S_01_scrambled.png,3,sad,-10,female,3,,16,off,1,0.5,0.75,0.5,0.812,3,15,1,1,2,0,0,0,0,3,,,,,,0,108,108,108,,,,,,,,,,,,,,,,,,,,,,,,,,,,,,,,,,,,,,,,,,,,,,,,,,,,,,,,,721.7935168,722.2961361,722.2961361,723.0515377,723.0515377,723.5569096,723.5569096,724.3761731,724.3761731,None,num_6,0.2900365,724.3761731,None,sad,1,Sad,724.6787356,None,None,724.6787356,None,,,,,,,,,,,,,,,,,,,,,,,,,,,,,,,,,,,,,,,,,,,,,,,,,,,,47,1,1,22,500,500,2022_Dec_15_1503,Experiment,2021.1.4,360.6449775
images\S10_M_H_03.png,images\S10_M_H_03_scrambled.png,10,happy,30,male,6,,417,off,1,0.5,0.75,0.5,0.88,3,416,2,1,1,0,0,0,0,6,,,,,,0,109,109,109,,,,,,,,,,,,,,,,,,,,,,,,,,,,,,,,,,,,,,,,,,,,,,,,,,,,,,,,,724.7259533,725.2314833,725.2314833,725.9811518,725.9811518,726.4866174,726.4866174,727.3724925,727.3724925,None,num_4,0.2377398,727.3724925,None,happy,1,Happy,727.6250425,None,None,727.6250425,None,,,,,,,,,,,,,,,,,,,,,,,,,,,,,,,,,,,,,,,,,,,,,,,,,,,,47,1,1,22,500,500,2022_Dec_15_1503,Experiment,2021.1.4,360.6449775
images\S5_F_S_03.png,images\S5_F_S_03_scrambled.png,5,sad,-30,female,1,,510,off,1,0.5,0.75,0.5,0.766,3,509,3,1,1,0,0,0,0,1,,,,,,0,110,110,110,,,,,,,,,,,,,,,,,,,,,,,,,,,,,,,,,,,,,,,,,,,,,,,,,,,,,,,,,727.6722612,728.1721322,728.1721322,728.9219014,728.9219014,729.4274093,729.4274093,730.1966082,730.1966082,None,num_6,0.4139758,730.1966082,None,sad,1,Sad,730.6325553,None,None,730.6325553,None,,,,,,,,,,,,,,,,,,,,,,,,,,,,,,,,,,,,,,,,,,,,,,,,,,,,47,1,1,22,500,500,2022_Dec_15_1503,Experiment,2021.1.4,360.6449775
images\S9_F_H_03.png,images\S9_F_H_03_scrambled.png,9,happy,30,female,6,,591,on,2,0.5,0.75,0.5,0.814,3,590,1,1,1,2,2,32,128,166,,,,,,0,111,111,111,,,,,,,,,,,,,,,,,,,,,,,,,,,,,,,,,,,,,,,,,,,,,,,,,,,,,,,,,730.7462528,731.2489648,731.2489648,732.0014788,732.0014788,732.5013249,732.5013249,733.3177853,733.3177853,None,num_4,0.4205913,733.3177853,None,happy,1,Happy,733.7565918,None,None,733.7565918,None,,,,,,,,,,,,,,,,,,,,,,,,,,,,,,,,,,,,,,,,,,,,,,,,,,,,47,1,1,22,500,500,2022_Dec_15_1503,Experiment,2021.1.4,360.6449775
images\S5_F_S_02.png,images\S5_F_S_02_scrambled.png,5,sad,-20,female,2,,509,off,1,0.5,0.75,0.5,0.841,3,508,1,1,1,0,0,0,0,2,,,,,,0,112,112,112,,,,,,,,,,,,,,,,,,,,,,,,,,,,,,,,,,,,,,,,,,,,,,,,,,,,,,,,,733.8203676,734.323029,734.323029,735.0755693,735.0755693,735.5781896,735.5781896,736.4224669,736.4224669,None,num_4,0.9162747,736.4224669,None,happy,1,Sad,737.3470873,None,None,737.3470873,None,,,,,,,,,,,,,,,,,,,,,,,,,,,,,,,,,,,,,,,,,,,,,,,,,,,,47,1,1,22,500,500,2022_Dec_15_1503,Experiment,2021.1.4,360.6449775
images\S9_F_H_01.png,images\S9_F_H_01_scrambled.png,9,happy,10,female,4,,49,off,1,0.5,0.75,0.5,0.879,3,48,2,1,1,0,0,0,0,4,,,,,,0,113,113,113,,,,,,,,,,,,,,,,,,,,,,,,,,,,,,,,,,,,,,,,,,,,,,,,,,,,,,,,,737.3970353,737.9025461,737.9025461,738.6522238,738.6522238,739.1577067,739.1577067,740.0434802,740.0434802,None,num_4,0.1505945,740.0434802,None,happy,1,Happy,740.2072818,None,None,740.2072818,None,,,,,,,,,,,,,,,,,,,,,,,,,,,,,,,,,,,,,,,,,,,,,,,,,,,,47,1,1,22,500,500,2022_Dec_15_1503,Experiment,2021.1.4,360.6449775
images\S3_F_S_02.png,images\S3_F_S_02_scrambled.png,3,sad,-20,female,2,,317,on,2,0.5,0.75,0.5,0.927,3,316,1,1,1,2,2,32,128,162,,,,,,0,114,114,114,,,,,,,,,,,,,,,,,,,,,,,,,,,,,,,,,,,,,,,,,,,,,,,,,,,,,,,,,740.2544849,740.7598971,740.7598971,741.5125343,741.5125343,742.0178742,742.0178742,742.9480969,742.9480969,None,num_6,0.4622722,742.9480969,None,sad,1,Sad,743.4257569,None,None,743.4257569,None,,,,,,,,,,,,,,,,,,,,,,,,,,,,,,,,,,,,,,,,,,,,,,,,,,,,47,1,1,22,500,500,2022_Dec_15_1503,Experiment,2021.1.4,360.6449775
images\S2_M_S_03.png,images\S2_M_S_03_scrambled.png,2,sad,-30,male,1,,192,on,2,0.5,0.75,0.5,0.843,3,191,2,1,1,2,2,32,128,161,,,,,,0,115,115,115,,,,,,,,,,,,,,,,,,,,,,,,,,,,,,,,,,,,,,,,,,,,,,,,,,,,,,,,,743.4729482,743.9756037,743.9756037,744.7281432,744.7281432,745.2307614,745.2307614,746.0805066,746.0805066,None,num_6,0.3138262,746.0805066,None,sad,1,Sad,746.408146,None,None,746.408146,None,,,,,,,,,,,,,,,,,,,,,,,,,,,,,,,,,,,,,,,,,,,,,,,,,,,,47,1,1,22,500,500,2022_Dec_15_1503,Experiment,2021.1.4,360.6449775
images\S10_M_H_02.png,images\S10_M_H_02_scrambled.png,10,happy,20,male,5,,296,off,1,0.5,0.75,0.5,0.758,3,295,1,1,1,0,0,0,0,5,,,,,,0,116,116,116,,,,,,,,,,,,,,,,,,,,,,,,,,,,,,,,,,,,,,,,,,,,,,,,,,,,,,,,,746.4886809,746.9913226,746.9913226,747.7466581,747.7466581,748.2520519,748.2520519,749.0157364,749.0157364,None,num_4,0.1947689,749.0157364,None,happy,1,Happy,749.2295774,None,None,749.2295774,None,,,,,,,,,,,,,,,,,,,,,,,,,,,,,,,,,,,,,,,,,,,,,,,,,,,,47,1,1,22,500,500,2022_Dec_15_1503,Experiment,2021.1.4,360.6449775
images\S2_M_H_02.png,images\S2_M_H_02_scrambled.png,2,happy,20,male,5,,248,off,1,0.5,0.75,0.5,0.779,3,247,2,1,2,0,0,0,0,5,,,,,,0,117,117,117,,,,,,,,,,,,,,,,,,,,,,,,,,,,,,,,,,,,,,,,,,,,,,,,,,,,,,,,,749.2933637,749.7959939,749.7959939,750.551355,750.551355,751.053934,751.053934,751.8370553,751.8370553,None,num_4,0.2372663,751.8370553,None,happy,1,Happy,752.1065008,None,None,752.1065008,None,,,,,,,,,,,,,,,,,,,,,,,,,,,,,,,,,,,,,,,,,,,,,,,,,,,,47,1,1,22,500,500,2022_Dec_15_1503,Experiment,2021.1.4,360.6449775
images\S1_F_H_03.png,images\S1_F_H_03_scrambled.png,1,happy,30,female,6,,123,off,1,0.5,0.75,0.5,0.78,3,122,3,1,1,0,0,0,0,6,,,,,,0,118,118,118,,,,,,,,,,,,,,,,,,,,,,,,,,,,,,,,,,,,,,,,,,,,,,,,,,,,,,,,,752.170258,752.6701294,752.6701294,753.4255203,753.4255203,753.9280525,753.9280525,754.7111723,754.7111723,None,num_4,0.179017,754.7111723,None,happy,1,Happy,754.9055143,None,None,754.9055143,None,,,,,,,,,,,,,,,,,,,,,,,,,,,,,,,,,,,,,,,,,,,,,,,,,,,,47,1,1,22,500,500,2022_Dec_15_1503,Experiment,2021.1.4,360.6449775
images\S2_M_H_02.png,images\S2_M_H_02_scrambled.png,2,happy,20,male,5,,488,off,1,0.5,0.75,0.5,0.94,3,487,4,1,1,0,0,0,0,5,,,,,,0,119,119,119,,,,,,,,,,,,,,,,,,,,,,,,,,,,,,,,,,,,,,,,,,,,,,,,,,,,,,,,,754.9527296,755.455468,755.455468,756.2107229,756.2107229,756.7161138,756.7161138,757.6603498,757.6603498,None,num_6,0.1977211,757.6603498,None,sad,1,Happy,757.8629773,None,None,757.8629773,None,,,,,,,,,,,,,,,,,,,,,,,,,,,,,,,,,,,,,,,,,,,,,,,,,,,,47,1,1,22,500,500,2022_Dec_15_1503,Experiment,2021.1.4,360.6449775
images\S4_M_H_01.png,images\S4_M_H_01_scrambled.png,4,happy,10,male,4,,379,off,1,0.5,0.75,0.5,0.844,3,378,5,1,1,0,0,0,0,4,,,,,,0,120,120,120,,,,,,,,,,,,,,,,,,,,,,,,,,,,,,,,,,,,,,,,,,,,,,,,,,,,,,,,,757.9101511,758.4100077,758.4100077,759.1654592,759.1654592,759.6707469,759.6707469,760.5176943,760.5176943,None,num_6,0.3244996,760.5176943,None,sad,1,Happy,760.8481384,None,None,760.8481384,None,,,,,,,,,,,,,,,,,,,,,,,,,,,,,,,,,,,,,,,,,,,,,,,,,,,,47,1,1,22,500,500,2022_Dec_15_1503,Experiment,2021.1.4,360.6449775
images\S7_F_H_02.png,images\S7_F_H_02_scrambled.png,7,happy,20,female,5,,518,off,1,0.5,0.75,0.5,0.906,3,517,6,1,1,0,0,0,0,5,,,,,,0,121,121,121,,,,,,,,,,,,,,,,,,,,,,,,,,,,,,,,,,,,,,,,,,,,,,,,,,,,,,,,,760.8953366,761.3952084,761.3952084,762.147752,762.147752,762.6475978,762.6475978,763.5556509,763.5556509,None,num_4,0.2703162,763.5556509,None,happy,1,Happy,763.8416765,None,None,763.8416765,None,,,,,,,,,,,,,,,,,,,,,,,,,,,,,,,,,,,,,,,,,,,,,,,,,,,,47,1,1,22,500,500,2022_Dec_15_1503,Experiment,2021.1.4,360.6449775
images\S10_M_H_02.png,images\S10_M_H_02_scrambled.png,10,happy,20,male,5,,236,on,2,0.5,0.75,0.5,0.858,3,235,1,1,2,2,2,32,128,165,,,,,,0,122,122,122,,,,,,,,,,,,,,,,,,,,,,,,,,,,,,,,,,,,,,,,,,,,,,,,,,,,,,,,,763.888864,764.3915255,764.3915255,765.1440256,765.1440256,765.6466908,765.6466908,766.5075168,766.5075168,None,num_4,0.3427878,766.5075168,None,happy,1,Happy,766.8657468,None,None,766.8657468,None,,,,,,,,,,,,,,,,,,,,,,,,,,,,,,,,,,,,,,,,,,,,,,,,,,,,47,1,1,22,500,500,2022_Dec_15_1503,Experiment,2021.1.4,360.6449775
images\S6_M_S_02.png,images\S6_M_S_02_scrambled.png,6,sad,-20,male,2,,95,on,2,0.5,0.75,0.5,0.765,3,94,2,1,1,2,2,32,128,162,,,,,,0,123,123,123,,,,,,,,,,,,,,,,,,,,,,,,,,,,,,,,,,,,,,,,,,,,,,,,,,,,,,,,,766.9462268,767.4460999,767.4460999,768.1958623,768.1958623,768.6957217,768.6957217,769.4677642,769.4677642,None,num_6,0.2464529,769.4677642,None,sad,1,Sad,769.7315326,None,None,769.7315326,None,,,,,,,,,,,,,,,,,,,,,,,,,,,,,,,,,,,,,,,,,,,,,,,,,,,,47,1,1,22,500,500,2022_Dec_15_1503,Experiment,2021.1.4,360.6449775
images\blank.jpg,images\blank.jpg,none,none,none,none,0,,648,on,2,0.5,0.75,0.5,0.773,0,647,3,1,1,3,3,48,192,240,,,,,,0,124,124,124,,,,,,,,,,,,,,,,,,,,,,,,,,,,,,,,,,,,,,,,,,,,,,,,,,,,,,,,,769.8150039,770.3202405,770.3202405,771.0728806,771.0728806,771.5725948,771.5725948,772.350143,772.350143,772.350143,None,,772.350143,None,miss,1,,775.3521037,None,None,775.3521037,None,,,,,,,,,,,,,,,,,,,,,,,,,,,,,,,,,,,,,,,,,,,,,,,,,,,,47,1,1,22,500,500,2022_Dec_15_1503,Experiment,2021.1.4,360.6449775
images\S10_M_S_01.png,images\S10_M_S_01_scrambled.png,10,sad,-10,male,3,,598,on,2,0.5,0.75,0.5,0.933,3,597,4,1,1,2,2,32,128,163,,,,,,0,125,125,125,,,,,,,,,,,,,,,,,,,,,,,,,,,,,,,,,,,,,,,,,,,,,,,,,,,,,,,,,775.4799872,775.9823482,775.9823482,776.7377813,776.7377813,777.2375164,777.2375164,778.1734441,778.1734441,None,num_4,0.3406929,778.1734441,775.4799872,happy,1,Sad,778.5232497,None,None,778.5232497,None,,,,,,,,,,,,,,,,,,,,,,,,,,,,,,,,,,,,,,,,,,,,,,,,,,,,47,1,1,22,500,500,2022_Dec_15_1503,Experiment,2021.1.4,360.6449775
images\S5_F_S_02.png,images\S5_F_S_02_scrambled.png,5,sad,-20,female,2,,269,off,1,0.5,0.75,0.5,0.768,3,268,1,1,1,0,0,0,0,2,,,,,,0,126,126,126,,,,,,,,,,,,,,,,,,,,,,,,,,,,,,,,,,,,,,,,,,,,,,,,,,,,,,,,,778.5704455,779.0730772,779.0730772,779.8283918,779.8283918,780.3310656,780.3310656,781.1058276,781.1058276,None,num_6,0.2722543,781.1058276,None,sad,1,Sad,781.3890676,None,None,781.3890676,None,,,,,,,,,,,,,,,,,,,,,,,,,,,,,,,,,,,,,,,,,,,,,,,,,,,,47,1,1,22,500,500,2022_Dec_15_1503,Experiment,2021.1.4,360.6449775
images\S2_M_S_01.png,images\S2_M_S_01_scrambled.png,2,sad,-10,male,3,,190,on,2,0.5,0.75,0.5,0.799,3,189,1,1,1,2,2,32,128,163,,,,,,0,127,127,127,,,,,,,,,,,,,,,,,,,,,,,,,,,,,,,,,,,,,,,,,,,,,,,,,,,,,,,,,781.4390021,781.9388527,781.9388527,782.6886246,782.6886246,783.1912783,783.1912783,783.9965857,783.9965857,None,num_6,0.2460584,783.9965857,None,sad,1,Sad,784.2632674,None,None,784.2632674,None,,,,,,,,,,,,,,,,,,,,,,,,,,,,,,,,,,,,,,,,,,,,,,,,,,,,47,1,1,22,500,500,2022_Dec_15_1503,Experiment,2021.1.4,360.6449775
images\S9_F_H_01.png,images\S9_F_H_01_scrambled.png,9,happy,10,female,4,,469,on,2,0.5,0.75,0.5,0.817,3,468,2,1,1,2,2,32,128,164,,,,,,0,128,128,128,,,,,,,,,,,,,,,,,,,,,,,,,,,,,,,,,,,,,,,,,,,,,,,,,,,,,,,,,784.3158902,784.8185222,784.8185222,785.5710624,785.5710624,786.076498,786.076498,786.895649,786.895649,None,num_4,0.9385549,786.895649,None,happy,1,Happy,787.845362,None,None,787.845362,None,,,,,,,,,,,,,,,,,,,,,,,,,,,,,,,,,,,,,,,,,,,,,,,,,,,,47,1,1,22,500,500,2022_Dec_15_1503,Experiment,2021.1.4,360.6449775
images\S1_F_H_03.png,images\S1_F_H_03_scrambled.png,1,happy,30,female,6,,243,off,1,0.5,0.75,0.5,0.758,3,242,1,1,1,0,0,0,0,6,,,,,,0,129,129,129,,,,,,,,,,,,,,,,,,,,,,,,,,,,,,,,,,,,,,,,,,,,,,,,,,,,,,,,,787.8925661,788.3980213,788.3980213,789.1477428,789.1477428,789.6476111,789.6476111,790.4084997,790.4084997,None,num_4,0.6177116,790.4084997,None,happy,1,Happy,791.0416288,None,None,791.0416288,None,,,,,,,,,,,,,,,,,,,,,,,,,,,,,,,,,,,,,,,,,,,,,,,,,,,,47,1,1,22,500,500,2022_Dec_15_1503,Experiment,2021.1.4,360.6449775
images\S1_F_S_02.png,images\S1_F_S_02_scrambled.png,1,sad,-20,female,2,,245,off,1,0.5,0.75,0.5,0.869,3,244,2,2,1,0,0,0,0,2,,,,,,0,130,130,130,,,,,,,,,,,,,,,,,,,,,,,,,,,,,,,,,,,,,,,,,,,,,,,,,,,,,,,,,791.1221296,791.6275637,791.6275637,792.3773049,792.3773049,792.8799172,792.8799172,793.751875,793.751875,None,num_6,0.4182928,793.751875,None,sad,1,Sad,794.1878472,None,None,794.1878472,None,,,,,,,,,,,,,,,,,,,,,,,,,,,,,,,,,,,,,,,,,,,,,,,,,,,,47,1,1,22,500,500,2022_Dec_15_1503,Experiment,2021.1.4,360.6449775
images\S4_M_H_01.png,images\S4_M_H_01_scrambled.png,4,happy,10,male,4,,319,on,2,0.5,0.75,0.5,0.788,3,318,1,1,1,2,2,32,128,164,,,,,,0,131,131,131,,,,,,,,,,,,,,,,,,,,,,,,,,,,,,,,,,,,,,,,,,,,,,,,,,,,,,,,,842.9866414,843.4893203,843.4893203,844.2418485,844.2418485,844.7473635,844.7473635,845.5386649,845.5386649,None,num_6,0.2715642,845.5386649,None,sad,1,Happy,845.8331044,None,None,845.8331044,None,507.8655321,None,space,27.6593447,507.8655321,None,,,,,,,,,,,,,,,,,,,,,,,,,,,,,,,,,,,,,,,,,,,,,,47,1,1,22,500,500,2022_Dec_15_1503,Experiment,2021.1.4,360.6449775
images\S8_M_H_01.png,images\S8_M_H_01_scrambled.png,8,happy,10,male,4,,403,off,1,0.5,0.75,0.5,0.903,3,402,1,1,2,0,0,0,0,4,0.75,,,,,0,132,132,132,0,0,0,0,,,,,,,,,,,,,,,,,,,,,,,,,,,,,,,,,,,,,,,,,,,,,,,,,,,,,845.8830095,846.3828475,846.3828475,847.1354439,847.1354439,847.6352508,847.6352508,848.5433346,848.5433346,None,num_4,0.1866116,848.5433346,None,happy,1,Happy,848.7432266,None,None,848.7432266,None,,,,,,,535.5431117,536.8038593,536.8038593,537.3152826,537.3152826,None,70.72916667,18.2498863,537.3152826,None,num_add,17.706586,537.3152826,None,,,,,,,,,,,,,,,,,,,,,,,,,,,,,,,,47,1,1,22,500,500,2022_Dec_15_1503,Experiment,2021.1.4,360.6449775
images\S1_F_S_03.png,images\S1_F_S_03_scrambled.png,1,sad,-30,female,1,,66,on,2,0.5,0.75,0.5,0.802,3,65,1,1,1,2,2,32,128,161,,,,,,0,133,133,133,,,,,,,,,,,,,,,,,,,,,,,,,,,,,,,,,,,,,,,,,,,,,,,,,,,,,,,,,848.7933115,849.2958396,849.2958396,850.0484402,850.0484402,850.5538152,850.5538152,851.3591227,851.3591227,None,num_6,0.251002,851.3591227,None,sad,1,Sad,851.634101,None,None,851.634101,None,,,,,,,,,,,,,,,,,,,,,555.0315309,None,num_add,5.0143336,555.0315309,None,,,,,,,,,,,,,,,,,,,,,,,,,,47,1,1,22,500,500,2022_Dec_15_1503,Experiment,2021.1.4,360.6449775
images\S3_F_S_01.png,images\S3_F_S_01_scrambled.png,3,sad,-10,female,3,,556,on,2,0.5,0.75,0.5,0.909,3,555,2,1,1,2,2,32,128,163,,,,,,0,134,134,134,,,,,,,,,,,,,,,,,,,,,,,,,,,,,,,,,,,,,,,,,,,,,,,,,,,,,,,,,851.6895506,852.1893952,852.1893952,852.9420839,852.9420839,853.4418151,853.4418151,854.3526595,854.3526595,None,num_6,0.2015526,854.3526595,None,sad,1,Sad,854.5748737,None,None,854.5748737,None,,,,,,,,,,,,,,,,,,,,,,,,,,,1,"This scale consistes of a number of words that describe different feelings and emotion. Read each item and then list the number from the scale below each word. Indicate (by clicking) to what extend you feel this way RIGHT NOW, that is, AT THE PRESENT MOMENT.",description,,,,,,,,,,,,,,,,,,,,,,,47,1,1,22,500,500,2022_Dec_15_1503,Experiment,2021.1.4,360.6449775
images\S2_M_S_02.png,images\S2_M_S_02_scrambled.png,2,sad,-20,male,2,,11,off,1,0.5,0.75,0.5,0.827,3,10,1,1,1,0,0,0,0,2,,,,,,0,135,135,135,,,,,,,,,,,,,,,,,,,,,,,,,,,,,,,,,,,,,,,,,,,,,,,,,,,,,,,,,854.6275288,855.1329699,855.1329699,855.8826947,855.8826947,856.3825595,856.3825595,857.2128864,857.2128864,None,num_6,0.2052925,857.2128864,None,sad,1,Sad,857.4405693,None,None,857.4405693,None,,,,,,,,,,,,,,,,,,,,,,,,,,,2,Interested,rating,3,4.93527,,,,,,,,,,,,,,,,,,,,,47,1,1,22,500,500,2022_Dec_15_1503,Experiment,2021.1.4,360.6449775
images\S3_F_S_01.png,images\S3_F_S_01_scrambled.png,3,sad,-10,female,3,,256,off,1,0.5,0.75,0.5,0.909,3,255,2,1,1,0,0,0,0,3,,,,,,0,136,136,136,,,,,,,,,,,,,,,,,,,,,,,,,,,,,,,,,,,,,,,,,,,,,,,,,,,,,,,,,857.493317,857.9987478,857.9987478,858.748478,858.748478,859.2539126,859.2539126,860.1647426,860.1647426,None,num_6,0.3574059,860.1647426,None,sad,1,Sad,860.5452534,None,None,860.5452534,None,,,,,,,,,,,,,,,,,,,,,,,,,,,3,Distressed,rating,1,5.9157579,,,,,,,,,,,,,,,,,,,,,47,1,1,22,500,500,2022_Dec_15_1503,Experiment,2021.1.4,360.6449775
images\S2_M_S_02.png,images\S2_M_S_02_scrambled.png,2,sad,-20,male,2,,311,on,2,0.5,0.75,0.5,0.863,3,310,1,1,1,2,2,32,128,162,,,,,,0,137,137,137,,,,,,,,,,,,,,,,,,,,,,,,,,,,,,,,,,,,,,,,,,,,,,,,,,,,,,,,,860.5979048,861.1033549,861.1033549,861.8559057,861.8559057,862.3584751,862.3584751,863.2248879,863.2248879,None,num_6,0.217137,863.2248879,None,sad,1,Sad,863.4692839,None,None,863.4692839,None,,,,,,,,,,,,,,,,,,,,,,,,,,,4,Excited,rating,2,8.1105547,,,,,,,,,,,,,,,,,,,,,47,1,1,22,500,500,2022_Dec_15_1503,Experiment,2021.1.4,360.6449775
images\S9_F_S_03.png,images\S9_F_S_03_scrambled.png,9,sad,-30,female,1,,294,off,1,0.5,0.75,0.5,0.85,3,293,1,1,1,0,0,0,0,1,,,,,,0,138,138,138,,,,,,,,,,,,,,,,,,,,,,,,,,,,,,,,,,,,,,,,,,,,,,,,,,,,,,,,,863.5775484,864.0830045,864.0830045,864.8383077,864.8383077,865.3410331,865.3410331,866.1934428,866.1934428,None,num_6,0.2967336,866.1934428,None,sad,1,Sad,866.5128843,None,None,866.5128843,None,,,,,,,,,,,,,,,,,,,,,,,,,,,5,Upset,rating,1,10.3971081,,,,,,,,,,,,,,,,,,,,,47,1,1,22,500,500,2022_Dec_15_1503,Experiment,2021.1.4,360.6449775
images\S2_M_S_03.png,images\S2_M_S_03_scrambled.png,2,sad,-30,male,1,,432,on,2,0.5,0.75,0.5,0.828,3,431,1,1,2,2,2,32,128,161,,,,,,0,139,139,139,,,,,,,,,,,,,,,,,,,,,,,,,,,,,,,,,,,,,,,,,,,,,,,,,,,,,,,,,866.5627355,867.0681634,867.0681634,867.8234977,867.8234977,868.3262099,868.3262099,869.1536003,869.1536003,None,num_6,0.2807063,869.1536003,None,sad,1,Sad,869.4564105,None,None,869.4564105,None,,,,,,,,,,,,,,,,,,,,,,,,,,,6,Strong,rating,2,12.591477,,,,,,,,,,,,,,,,,,,,,47,1,1,22,500,500,2022_Dec_15_1503,Experiment,2021.1.4,360.6449775
images\S7_F_S_03.png,images\S7_F_S_03_scrambled.png,7,sad,-30,female,1,,102,on,2,0.5,0.75,0.5,0.813,3,101,2,1,3,2,2,32,128,161,,,,,,0,140,140,140,,,,,,,,,,,,,,,,,,,,,,,,,,,,,,,,,,,,,,,,,,,,,,,,,,,,,,,,,869.5090517,870.0117726,870.0117726,870.7670524,870.7670524,871.2724958,871.2724958,872.0888391,872.0888391,None,num_6,0.2654805,872.0888391,None,sad,1,Sad,872.3749728,None,None,872.3749728,None,,,,,,,,,,,,,,,,,,,,,,,,,,,7,Guilty,rating,1,6.1473649,,,,,,,,,,,,,,,,,,,,,47,1,1,22,500,500,2022_Dec_15_1503,Experiment,2021.1.4,360.6449775
images\S3_F_H_03.png,images\S3_F_H_03_scrambled.png,3,happy,30,female,6,,195,on,2,0.5,0.75,0.5,0.802,3,194,3,1,1,2,2,32,128,166,,,,,,0,141,141,141,,,,,,,,,,,,,,,,,,,,,,,,,,,,,,,,,,,,,,,,,,,,,,,,,,,,,,,,,872.4303742,872.933056,872.933056,873.6827718,873.6827718,874.1882027,874.1882027,874.9906989,874.9906989,None,num_4,0.2918491,874.9906989,None,happy,1,Happy,875.299133,None,None,875.299133,None,,,,,,,,,,,,,,,,,,,,,,,,,,,8,Scared,rating,1,6.6711773,,,,,,,,,,,,,,,,,,,,,47,1,1,22,500,500,2022_Dec_15_1503,Experiment,2021.1.4,360.6449775
images\S8_M_H_03.png,images\S8_M_H_03_scrambled.png,8,happy,30,male,6,,225,on,2,0.5,0.75,0.5,0.847,3,224,4,1,2,2,2,32,128,166,,,,,,0,142,142,142,,,,,,,,,,,,,,,,,,,,,,,,,,,,,,,,,,,,,,,,,,,,,,,,,,,,,,,,,875.3516935,875.8572384,875.8572384,876.6124963,876.6124963,877.1122578,877.1122578,877.9620748,877.9620748,None,num_4,0.2801017,877.9620748,None,happy,1,Happy,878.2563447,None,None,878.2563447,None,,,,,,,,,,,,,,,,,,,,,,,,,,,9,Hostile,rating,1,3.8384657,,,,,,,,,,,,,,,,,,,,,47,1,1,22,500,500,2022_Dec_15_1503,Experiment,2021.1.4,360.6449775
images\S1_F_H_01.png,images\S1_F_H_01_scrambled.png,1,happy,10,female,4,,481,off,1,0.5,0.75,0.5,0.855,3,480,1,1,1,0,0,0,0,4,,,,,,0,143,143,143,,,,,,,,,,,,,,,,,,,,,,,,,,,,,,,,,,,,,,,,,,,,,,,,,,,,,,,,,878.3035663,878.803425,878.803425,879.5587745,879.5587745,880.0613977,880.0613977,880.9194582,880.9194582,None,num_4,0.2265887,880.9194582,None,happy,1,Happy,881.1777066,None,None,881.1777066,None,,,,,,,,,,,,,,,,,,,,,,,,,,,10,Enthusiastic,rating,1,11.0107331,,,,,,,,,,,,,,,,,,,,,47,1,1,22,500,500,2022_Dec_15_1503,Experiment,2021.1.4,360.6449775
images\S4_M_S_01.png,images\S4_M_S_01_scrambled.png,4,sad,-10,male,3,,262,off,1,0.5,0.75,0.5,0.908,3,261,2,1,1,0,0,0,0,3,,,,,,0,144,144,144,,,,,,,,,,,,,,,,,,,,,,,,,,,,,,,,,,,,,,,,,,,,,,,,,,,,,,,,,881.2859706,881.7886032,881.7886032,882.541197,882.541197,883.0438168,883.0438168,883.9545942,883.9545942,None,num_6,0.2953902,883.9545942,None,sad,1,Sad,884.2656315,None,None,884.2656315,None,,,,,,,,,,,,,,,,,,,,,,,,,,,11,Proud,rating,1,5.8627579,,,,,,,,,,,,,,,,,,,,,47,1,1,22,500,500,2022_Dec_15_1503,Experiment,2021.1.4,360.6449775
images\S4_M_H_01.png,images\S4_M_H_01_scrambled.png,4,happy,10,male,4,,499,off,1,0.5,0.75,0.5,0.8,3,498,3,2,1,0,0,0,0,4,,,,,,0,145,145,145,,,,,,,,,,,,,,,,,,,,,,,,,,,,,,,,,,,,,,,,,,,,,,,,,,,,,,,,,884.3128131,884.8154583,884.8154583,885.5681396,885.5681396,886.0734582,886.0734582,886.8787545,886.8787545,None,num_6,0.2114804,886.8787545,None,sad,1,Happy,887.0980458,None,None,887.0980458,None,,,,,,,,,,,,,,,,,,,,,,,,,,,12,Irritable,rating,1,10.6480799,,,,,,,,,,,,,,,,,,,,,47,1,1,22,500,500,2022_Dec_15_1503,Experiment,2021.1.4,360.6449775
images\S2_M_S_03.png,images\S2_M_S_03_scrambled.png,2,sad,-30,male,1,,552,on,2,0.5,0.75,0.5,0.782,3,551,1,1,1,2,2,32,128,161,,,,,,0,146,146,146,,,,,,,,,,,,,,,,,,,,,,,,,,,,,,,,,,,,,,,,,,,,,,,,,,,,,,,,,887.1452794,887.6479147,887.6479147,888.3976648,888.3976648,888.903216,888.903216,889.688932,889.688932,None,num_6,0.2253554,889.688932,None,sad,1,Sad,889.9250457,None,None,889.9250457,None,,,,,,,,,,,,,,,,,,,,,,,,,,,13,Alert,rating,3,7.4044312,,,,,,,,,,,,,,,,,,,,,47,1,1,22,500,500,2022_Dec_15_1503,Experiment,2021.1.4,360.6449775
images\S3_F_H_03.png,images\S3_F_H_03_scrambled.png,3,happy,30,female,6,,495,off,1,0.5,0.75,0.5,0.792,3,494,1,1,1,0,0,0,0,6,,,,,,0,147,147,147,,,,,,,,,,,,,,,,,,,,,,,,,,,,,,,,,,,,,,,,,,,,,,,,,,,,,,,,,889.9721842,890.4720262,890.4720262,891.2274728,891.2274728,891.730008,891.730008,892.5241996,892.5241996,None,num_4,0.2059265,892.5241996,None,happy,1,Happy,892.7546983,None,None,892.7546983,None,,,,,,,,,,,,,,,,,,,,,,,,,,,14,Ashamed,rating,1,8.0016271,,,,,,,,,,,,,,,,,,,,,47,1,1,22,500,500,2022_Dec_15_1503,Experiment,2021.1.4,360.6449775
images\S6_M_S_03.png,images\S6_M_S_03_scrambled.png,6,sad,-30,male,1,,216,on,2,0.5,0.75,0.5,0.934,3,215,1,1,1,2,2,32,128,161,,,,,,0,148,148,148,,,,,,,,,,,,,,,,,,,,,,,,,,,,,,,,,,,,,,,,,,,,,,,,,,,,,,,,,892.8629565,893.3684383,893.3684383,894.1181437,894.1181437,894.6207576,894.6207576,895.5593853,895.5593853,None,num_6,0.2824161,895.5593853,None,sad,1,Sad,895.8537733,None,None,895.8537733,None,,,,,,,,,,,,,,,,,,,,,,,,,,,15,Inspired,rating,1,6.9594582,,,,,,,,,,,,,,,,,,,,,47,1,1,22,500,500,2022_Dec_15_1503,Experiment,2021.1.4,360.6449775
images\S9_F_S_01.png,images\S9_F_S_01_scrambled.png,9,sad,-10,female,3,,112,on,2,0.5,0.75,0.5,0.906,3,111,2,1,1,2,2,32,128,163,,,,,,0,149,149,149,,,,,,,,,,,,,,,,,,,,,,,,,,,,,,,,,,,,,,,,,,,,,,,,,,,,,,,,,895.9120171,896.4146646,896.4146646,897.1699884,897.1699884,897.6727367,897.6727367,898.5806355,898.5806355,None,num_4,0.197702,898.5806355,None,happy,1,Sad,898.7889849,None,None,898.7889849,None,,,,,,,,,,,,,,,,,,,,,,,,,,,16,Nervous,rating,1,3.9585799,,,,,,,,,,,,,,,,,,,,,47,1,1,22,500,500,2022_Dec_15_1503,Experiment,2021.1.4,360.6449775
images\S2_M_H_02.png,images\S2_M_H_02_scrambled.png,2,happy,20,male,5,,188,on,2,0.5,0.75,0.5,0.925,3,187,3,1,1,2,2,32,128,165,,,,,,0,150,150,150,,,,,,,,,,,,,,,,,,,,,,,,,,,,,,,,,,,,,,,,,,,,,,,,,,,,,,,,,898.8445514,899.3498178,899.3498178,900.1025322,900.1025322,900.6022738,900.6022738,901.5297466,901.5297466,None,num_6,0.2567729,901.5297466,None,sad,1,Happy,901.7964163,None,None,901.7964163,None,,,,,,,,,,,,,,,,,,,,,,,,,,,17,Determined,rating,1,5.8933188,,,,,,,,,,,,,,,,,,,,,47,1,1,22,500,500,2022_Dec_15_1503,Experiment,2021.1.4,360.6449775
images\S6_M_S_03.png,images\S6_M_S_03_scrambled.png,6,sad,-30,male,1,,456,on,2,0.5,0.75,0.5,0.793,3,455,4,1,1,2,2,32,128,161,,,,,,0,151,151,151,,,,,,,,,,,,,,,,,,,,,,,,,,,,,,,,,,,,,,,,,,,,,,,,,,,,,,,,,901.8518458,902.3544996,902.3544996,903.1070545,903.1070545,903.6125689,903.6125689,904.4094379,904.4094379,None,num_6,0.5846701,904.4094379,None,sad,1,Sad,905.0091995,None,None,905.0091995,None,,,,,,,,,,,,,,,,,,,,,,,,,,,18,Attentive,rating,3,7.1023188,,,,,,,,,,,,,,,,,,,,,47,1,1,22,500,500,2022_Dec_15_1503,Experiment,2021.1.4,360.6449775
images\S10_M_H_02.png,images\S10_M_H_02_scrambled.png,10,happy,20,male,5,,176,off,1,0.5,0.75,0.5,0.765,3,175,1,1,1,0,0,0,0,5,,,,,,0,152,152,152,,,,,,,,,,,,,,,,,,,,,,,,,,,,,,,,,,,,,,,,,,,,,,,,,,,,,,,,,905.0564178,905.5562577,905.5562577,906.3088038,906.3088038,906.811575,906.811575,907.5834527,907.5834527,None,num_4,0.2753167,907.5834527,None,happy,1,Happy,907.8862638,None,None,907.8862638,None,,,,,,,,,,,,,,,,,,,,,,,,,,,19,Jittery,rating,1,4.6997337,,,,,,,,,,,,,,,,,,,,,47,1,1,22,500,500,2022_Dec_15_1503,Experiment,2021.1.4,360.6449775
images\S10_M_S_02.png,images\S10_M_S_02_scrambled.png,10,sad,-20,male,2,,419,off,1,0.5,0.75,0.5,0.885,3,418,2,2,1,0,0,0,0,2,,,,,,0,153,153,153,,,,,,,,,,,,,,,,,,,,,,,,,,,,,,,,,,,,,,,,,,,,,,,,,,,,,,,,,907.9388608,908.4415962,908.4415962,909.1969056,909.1969056,909.7023555,909.7023555,910.5908241,910.5908241,None,num_4,0.2273703,910.5908241,None,happy,1,Sad,910.8269703,None,None,910.8269703,None,,,,,,,,,,,,,,,,,,,,,,,,,,,20,Active,rating,2,3.5314203,,,,,,,,,,,,,,,,,,,,,47,1,1,22,500,500,2022_Dec_15_1503,Experiment,2021.1.4,360.6449775
images\S5_F_H_01.png,images\S5_F_H_01_scrambled.png,5,happy,10,female,4,,265,off,1,0.5,0.75,0.5,0.803,3,264,3,1,1,0,0,0,0,4,,,,,,0,154,154,154,,,,,,,,,,,,,,,,,,,,,,,,,,,,,,,,,,,,,,,,,,,,,,,,,,,,,,,,,910.887951,911.3905798,911.3905798,912.14312,912.14312,912.6485487,912.6485487,913.4538493,913.4538493,None,num_4,0.3082819,913.4538493,None,happy,1,Happy,913.7759459,None,None,913.7759459,None,,,,,,,,,,,,,,,,,,,,,,,,,,,21,Afraid,rating,1,4.7546358,,,,,,,,,,,,,,,,,,,,,47,1,1,22,500,500,2022_Dec_15_1503,Experiment,2021.1.4,360.6449775
images\S5_F_S_01.png,images\S5_F_S_01_scrambled.png,5,sad,-10,female,3,,148,off,1,0.5,0.75,0.5,0.823,3,147,4,2,1,0,0,0,0,3,,,,,,0,155,155,155,,,,,,,,,,,,,,,,,,,,,,,,,,,,,,,,,,,,,,,,,,,,,,,,,,,,,,,,,913.8231608,914.3257795,914.3257795,915.0755453,915.0755453,915.5783109,915.5783109,916.4056903,916.4056903,None,num_4,0.3241497,916.4056903,None,happy,1,Sad,916.7416862,None,None,916.7416862,None,,,,,,,,,,,,,,,,,,,,,,,,,,,22,Press the + button to submit your answers,description,,,,,,,,,,,,,,,,,,,,,,,47,1,1,22,500,500,2022_Dec_15_1503,Experiment,2021.1.4,360.6449775
images\S8_M_H_03.png,images\S8_M_H_03_scrambled.png,8,happy,30,male,6,,405,off,1,0.5,0.75,0.5,0.788,3,404,5,1,1,0,0,0,0,6,,,,,,0,156,156,156,,,,,,,,,,,,,,,,,,,,,,,,,,,,,,,,,,,,,,,,,,,,,,,,,,,,,,,,,916.80835,917.310978,917.310978,918.0635361,918.0635361,918.5690514,918.5690514,919.3603752,919.3603752,None,num_4,0.2254702,919.3603752,None,happy,1,Happy,919.5964249,None,None,919.5964249,None,,,,,,,,,,,,,,,,,,,,,,,,,,,,,,,,num_add,32.1242073,570.1296501,None,,,,,,,,,,,,,,,,,47,1,1,22,500,500,2022_Dec_15_1503,Experiment,2021.1.4,360.6449775
images\S2_M_H_02.png,images\S2_M_H_02_scrambled.png,2,happy,20,male,5,,8,off,1,0.5,0.75,0.5,0.782,3,7,6,1,1,0,0,0,0,5,,,,,,0,157,157,157,,,,,,,,,,,,,,,,,,,,,,,,,,,,,,,,,,,,,,,,,,,,,,,,,,,,,,,,,919.6435813,920.1462211,920.1462211,920.8987468,920.8987468,921.3986247,921.3986247,922.1845211,922.1845211,None,num_4,0.2015293,922.1845211,None,happy,1,Happy,922.4011022,None,None,922.4011022,None,,,,,,,,,,,,,,,,,,,,,,,,,,,,,,,,,,,,602.272514,None,82.60416667,23.9042257,602.272514,None,num_add,16.2776167,612.272248,None,,,,,,,47,1,1,22,500,500,2022_Dec_15_1503,Experiment,2021.1.4,360.6449775
images\S6_M_H_01.png,images\S6_M_H_01_scrambled.png,6,happy,10,male,4,,151,off,1,0.5,0.75,0.5,0.775,3,150,7,1,1,0,0,0,0,4,,,,,,0,158,158,158,,,,,,,,,,,,,,,,,,,,,,,,,,,,,,,,,,,,,,,,,,,,,,,,,,,,,,,,,922.4482799,922.9509239,922.9509239,923.7062344,923.7062344,924.2088616,924.2088616,924.9864007,924.9864007,None,num_4,0.1436381,924.9864007,None,happy,1,Happy,925.1446663,None,None,925.1446663,None,,,,,,,,,,,,,,,,,,,,,,,,,,,,,,,,,,,,,,,,,,,,,,628.5617315,None,space,14.0999888,628.5617315,None,47,1,1,22,500,500,2022_Dec_15_1503,Experiment,2021.1.4,360.6449775
images\S8_M_S_03.png,images\S8_M_S_03_scrambled.png,8,sad,-30,male,1,,468,on,2,0.5,0.75,0.5,0.898,3,467,1,1,1,2,2,32,128,161,,,,,,0,159,159,159,,,,,,,,,,,,,,,,,,,,,,,,,,,,,,,,,,,,,,,,,,,,,,,,,,,,,,,,,925.19194,925.697296,925.697296,926.4498461,926.4498461,926.9524574,926.9524574,927.857807,927.857807,None,num_6,0.312118,927.857807,None,sad,1,Sad,928.199441,None,None,928.199441,None,,,,,,,,,,,,,,,,,,,,,,,,,,,,,,,,,,,,,,,,,,,,,,,,,,,,47,1,1,22,500,500,2022_Dec_15_1503,Experiment,2021.1.4,360.6449775
images\S4_M_H_02.png,images\S4_M_H_02_scrambled.png,4,happy,20,male,5,,200,on,2,0.5,0.75,0.5,0.765,3,199,2,1,1,2,2,32,128,165,,,,,,0,160,160,160,,,,,,,,,,,,,,,,,,,,,,,,,,,,,,,,,,,,,,,,,,,,,,,,,,,,,,,,,928.2520367,928.7547973,928.7547973,929.5100384,929.5100384,930.0154578,930.0154578,930.7845867,930.7845867,None,num_4,0.249653,930.7845867,None,happy,1,Happy,931.0484233,None,None,931.0484233,None,,,,,,,,,,,,,,,,,,,,,,,,,,,,,,,,,,,,,,,,,,,,,,,,,,,,47,1,1,22,500,500,2022_Dec_15_1503,Experiment,2021.1.4,360.6449775
images\S2_M_H_03.png,images\S2_M_H_03_scrambled.png,2,happy,30,male,6,,309,on,2,0.5,0.75,0.5,0.933,3,308,3,1,1,2,2,32,128,166,,,,,,0,161,161,161,,,,,,,,,,,,,,,,,,,,,,,,,,,,,,,,,,,,,,,,,,,,,,,,,,,,,,,,,931.1038747,931.606563,931.606563,932.3591456,932.3591456,932.8617541,932.8617541,933.7975919,933.7975919,None,num_4,0.2363209,933.7975919,None,happy,1,Happy,934.0447324,None,None,934.0447324,None,,,,,,,,,,,,,,,,,,,,,,,,,,,,,,,,,,,,,,,,,,,,,,,,,,,,47,1,1,22,500,500,2022_Dec_15_1503,Experiment,2021.1.4,360.6449775
images\S7_F_S_02.png,images\S7_F_S_02_scrambled.png,7,sad,-20,female,2,,401,off,1,0.5,0.75,0.5,0.874,3,400,1,1,1,0,0,0,0,2,,,,,,0,162,162,162,,,,,,,,,,,,,,,,,,,,,,,,,,,,,,,,,,,,,,,,,,,,,,,,,,,,,,,,,934.0946901,934.6001218,934.6001218,935.3526275,935.3526275,935.8524808,935.8524808,936.7300151,936.7300151,None,num_6,0.3120693,936.7300151,None,sad,1,Sad,937.0715844,None,None,937.0715844,None,,,,,,,,,,,,,,,,,,,,,,,,,,,,,,,,,,,,,,,,,,,,,,,,,,,,47,1,1,22,500,500,2022_Dec_15_1503,Experiment,2021.1.4,360.6449775
images\S5_F_H_03.png,images\S5_F_H_03_scrambled.png,5,happy,30,female,6,,87,on,2,0.5,0.75,0.5,0.887,3,86,1,1,1,2,2,32,128,166,,,,,,0,163,163,163,,,,,,,,,,,,,,,,,,,,,,,,,,,,,,,,,,,,,,,,,,,,,,,,,,,,,,,,,937.1243036,937.624145,937.624145,938.3767124,938.3767124,938.8821191,938.8821191,939.7763024,939.7763024,None,num_4,0.2096372,939.7763024,None,happy,1,Happy,939.9957275,None,None,939.9957275,None,,,,,,,,,,,,,,,,,,,,,,,,,,,,,,,,,,,,,,,,,,,,,,,,,,,,47,1,1,22,500,500,2022_Dec_15_1503,Experiment,2021.1.4,360.6449775
images\S10_M_S_02.png,images\S10_M_S_02_scrambled.png,10,sad,-20,male,2,,299,off,1,0.5,0.75,0.5,0.942,3,298,1,1,1,0,0,0,0,2,,,,,,0,164,164,164,,,,,,,,,,,,,,,,,,,,,,,,,,,,,,,,,,,,,,,,,,,,,,,,,,,,,,,,,940.0428447,940.5455225,940.5455225,941.295254,941.295254,941.7978546,941.7978546,942.7448949,942.7448949,None,num_4,0.1450455,942.7448949,None,happy,1,Sad,942.894785,None,None,942.894785,None,,,,,,,,,,,,,,,,,,,,,,,,,,,,,,,,,,,,,,,,,,,,,,,,,,,,47,1,1,22,500,500,2022_Dec_15_1503,Experiment,2021.1.4,360.6449775
