image_face,image_scram,avatar,emo,emotion,sex,trigeeg,dac,trial_no,NMES,stimtime,baseline,iti,face,scr_face,resp_time,index,count_NMES,count_avatar,count_emotion,dac1,dac2,dac1_output,dac2_output,trigs_out,nmes,practice_trials.thisRepN,practice_trials.thisTrialN,practice_trials.thisN,practice_trials.thisIndex,real_trials.thisRepN,real_trials.thisTrialN,real_trials.thisN,real_trials.thisIndex,trials.thisRepN,trials.thisTrialN,trials.thisN,trials.thisIndex,position,Welcome.started,Welcome.stopped,Welcome_resp.keys,Welcome_resp.rt,text_2.started,text_2.stopped,form_2.index,form_2.itemText,form_2.type,form_2.response,form_2.rt,key_resp_4.keys,key_resp_4.rt,key_resp_4.started,key_resp_4.stopped,instructions.started,instructions.stopped,end_instr.keys,end_instr.rt,instructions_2.started,instructions_2.stopped,end_instr_2.keys,end_instr_2.rt,end_instr_2.started,end_instr_2.stopped,instruct_keypress.started,instruct_keypress.stopped,end_instruct_keypress.keys,end_instruct_keypress.rt,start_practice.started,start_practice.stopped,start_practice_resp.keys,start_practice_resp.rt,prac_baseline.started,prac_baseline.stopped,prac_iti.started,prac_iti.stopped,prac_stimulus.started,prac_stimulus.stopped,prac_scram_stim.started,prac_scram_stim.stopped,prac_stimulus_resp.started,prac_stimulus_resp.stopped,prac_resp.keys,prac_resp.rt,prac_resp.started,prac_resp.stopped,transition_to_real.started,transition_to_real.stopped,end_transition_to_real.keys,end_transition_to_real.rt,fixation_cross.started,fixation_cross.stopped,tr_iti.started,tr_iti.stopped,stimulus.started,stimulus.stopped,scram_stim.started,scram_stim.stopped,response_txt.started,response_txt.stopped,response.keys,response.rt,response.started,response.stopped,participant_Resp,grouping,corAnswer,break_msg.started,break_msg.stopped,end_break.keys,end_break.started,end_break.stopped,end_break.rt,text.started,text.stopped,key_resp_3.keys,key_resp_3.rt,key_resp_3.started,key_resp_3.stopped,fix_cross_comf.started,fix_cross_comf.stopped,stimulation_comf.started,stimulation_comf.stopped,rate_instr.started,rate_instr.stopped,comfort_rating.response,comfort_rating.rt,comfort_rating.started,comfort_rating.stopped,resp_form.keys,resp_form.rt,resp_form.started,resp_form.stopped,survey_instructions.started,survey_instructions.stopped,key_resp_2.keys,key_resp_2.rt,key_resp_2.started,key_resp_2.stopped,form.index,form.itemText,form.type,form.response,form.rt,key_resp.keys,key_resp.rt,key_resp.started,key_resp.stopped,text_3.started,text_3.stopped,rate_smile.response,rate_smile.rt,rate_smile.started,rate_smile.stopped,key_resp_5.keys,key_resp_5.rt,key_resp_5.started,key_resp_5.stopped,end_msg.started,end_msg.stopped,end_resp.keys,end_resp.rt,end_resp.started,end_resp.stopped,participant,session,gender,age,LEFT,RIGHT,date,expName,psychopyVersion,frameRate,
,,,,,,,,,,,,,,,,,,,,,,,,,,,,,,,,,,,,,,S-H,56.58328320000055,None,num_add,8.105143699999644,,,,,,,,,,,,,,,,,,,,,,,,,,,,,,,,,,,,,,,,,,,,,,,,,,,,,,,,,,,,,,,,,,,,,,,,,,,,,,,,,,,,,,,,,,,,,,,,,,,,,,,,,,,,,,,,,,,,,,,,,,4,001,male,29,600,300,2022_Aug_03_0941,Experiment,2021.1.4,361.2729814736989,
,,,,,,,,,,,,,,,,,,,,,,,,,,,,,,,,,,,,,,,,,,,64.70059370000035,66.74163690000023,1,"This scale consistes of a number of words that describe different feelings and emotion. Read each item and then list the number from the scale below each word. Indicate (by clicking) to what extend you feel this way RIGHT NOW, that is, AT THE PRESENT MOMENT.",description,,,,,,,,,,,,,,,,,,,,,,,,,,,,,,,,,,,,,,,,,,,,,,,,,,,,,,,,,,,,,,,,,,,,,,,,,,,,,,,,,,,,,,,,,,,,,,,,,,,,,,,,,,,,,,,,,,,,,4,001,male,29,600,300,2022_Aug_03_0941,Experiment,2021.1.4,361.2729814736989,
,,,,,,,,,,,,,,,,,,,,,,,,,,,,,,,,,,,,,,,,,,,,,2,Interested,rating,4.0,17.431692799999837,,,,,,,,,,,,,,,,,,,,,,,,,,,,,,,,,,,,,,,,,,,,,,,,,,,,,,,,,,,,,,,,,,,,,,,,,,,,,,,,,,,,,,,,,,,,,,,,,,,,,,,,,,,,,,,,,,,4,001,male,29,600,300,2022_Aug_03_0941,Experiment,2021.1.4,361.2729814736989,
,,,,,,,,,,,,,,,,,,,,,,,,,,,,,,,,,,,,,,,,,,,,,3,Distressed,rating,1.0,26.596800799999983,,,,,,,,,,,,,,,,,,,,,,,,,,,,,,,,,,,,,,,,,,,,,,,,,,,,,,,,,,,,,,,,,,,,,,,,,,,,,,,,,,,,,,,,,,,,,,,,,,,,,,,,,,,,,,,,,,,4,001,male,29,600,300,2022_Aug_03_0941,Experiment,2021.1.4,361.2729814736989,
,,,,,,,,,,,,,,,,,,,,,,,,,,,,,,,,,,,,,,,,,,,,,4,Excited,rating,5.0,30.87991349999993,,,,,,,,,,,,,,,,,,,,,,,,,,,,,,,,,,,,,,,,,,,,,,,,,,,,,,,,,,,,,,,,,,,,,,,,,,,,,,,,,,,,,,,,,,,,,,,,,,,,,,,,,,,,,,,,,,,4,001,male,29,600,300,2022_Aug_03_0941,Experiment,2021.1.4,361.2729814736989,
,,,,,,,,,,,,,,,,,,,,,,,,,,,,,,,,,,,,,,,,,,,,,5,Upset,rating,1.0,37.15360700000019,,,,,,,,,,,,,,,,,,,,,,,,,,,,,,,,,,,,,,,,,,,,,,,,,,,,,,,,,,,,,,,,,,,,,,,,,,,,,,,,,,,,,,,,,,,,,,,,,,,,,,,,,,,,,,,,,,,4,001,male,29,600,300,2022_Aug_03_0941,Experiment,2021.1.4,361.2729814736989,
,,,,,,,,,,,,,,,,,,,,,,,,,,,,,,,,,,,,,,,,,,,,,6,Strong,rating,4.0,39.76212570000007,,,,,,,,,,,,,,,,,,,,,,,,,,,,,,,,,,,,,,,,,,,,,,,,,,,,,,,,,,,,,,,,,,,,,,,,,,,,,,,,,,,,,,,,,,,,,,,,,,,,,,,,,,,,,,,,,,,4,001,male,29,600,300,2022_Aug_03_0941,Experiment,2021.1.4,361.2729814736989,
,,,,,,,,,,,,,,,,,,,,,,,,,,,,,,,,,,,,,,,,,,,,,7,Guilty,rating,1.0,9.401841299999433,,,,,,,,,,,,,,,,,,,,,,,,,,,,,,,,,,,,,,,,,,,,,,,,,,,,,,,,,,,,,,,,,,,,,,,,,,,,,,,,,,,,,,,,,,,,,,,,,,,,,,,,,,,,,,,,,,,4,001,male,29,600,300,2022_Aug_03_0941,Experiment,2021.1.4,361.2729814736989,
,,,,,,,,,,,,,,,,,,,,,,,,,,,,,,,,,,,,,,,,,,,,,8,Scared,rating,1.0,18.877910500000326,,,,,,,,,,,,,,,,,,,,,,,,,,,,,,,,,,,,,,,,,,,,,,,,,,,,,,,,,,,,,,,,,,,,,,,,,,,,,,,,,,,,,,,,,,,,,,,,,,,,,,,,,,,,,,,,,,,4,001,male,29,600,300,2022_Aug_03_0941,Experiment,2021.1.4,361.2729814736989,
,,,,,,,,,,,,,,,,,,,,,,,,,,,,,,,,,,,,,,,,,,,,,9,Hostile,rating,1.0,15.76054750000003,,,,,,,,,,,,,,,,,,,,,,,,,,,,,,,,,,,,,,,,,,,,,,,,,,,,,,,,,,,,,,,,,,,,,,,,,,,,,,,,,,,,,,,,,,,,,,,,,,,,,,,,,,,,,,,,,,,4,001,male,29,600,300,2022_Aug_03_0941,Experiment,2021.1.4,361.2729814736989,
,,,,,,,,,,,,,,,,,,,,,,,,,,,,,,,,,,,,,,,,,,,,,10,Enthusiastic,rating,4.0,15.401015299999926,,,,,,,,,,,,,,,,,,,,,,,,,,,,,,,,,,,,,,,,,,,,,,,,,,,,,,,,,,,,,,,,,,,,,,,,,,,,,,,,,,,,,,,,,,,,,,,,,,,,,,,,,,,,,,,,,,,4,001,male,29,600,300,2022_Aug_03_0941,Experiment,2021.1.4,361.2729814736989,
,,,,,,,,,,,,,,,,,,,,,,,,,,,,,,,,,,,,,,,,,,,,,11,Proud,rating,4.0,9.034229900000355,,,,,,,,,,,,,,,,,,,,,,,,,,,,,,,,,,,,,,,,,,,,,,,,,,,,,,,,,,,,,,,,,,,,,,,,,,,,,,,,,,,,,,,,,,,,,,,,,,,,,,,,,,,,,,,,,,,4,001,male,29,600,300,2022_Aug_03_0941,Experiment,2021.1.4,361.2729814736989,
,,,,,,,,,,,,,,,,,,,,,,,,,,,,,,,,,,,,,,,,,,,,,12,Irritable,rating,1.0,11.223332700000356,,,,,,,,,,,,,,,,,,,,,,,,,,,,,,,,,,,,,,,,,,,,,,,,,,,,,,,,,,,,,,,,,,,,,,,,,,,,,,,,,,,,,,,,,,,,,,,,,,,,,,,,,,,,,,,,,,,4,001,male,29,600,300,2022_Aug_03_0941,Experiment,2021.1.4,361.2729814736989,
,,,,,,,,,,,,,,,,,,,,,,,,,,,,,,,,,,,,,,,,,,,,,13,Alert,rating,3.0,10.678546299999653,,,,,,,,,,,,,,,,,,,,,,,,,,,,,,,,,,,,,,,,,,,,,,,,,,,,,,,,,,,,,,,,,,,,,,,,,,,,,,,,,,,,,,,,,,,,,,,,,,,,,,,,,,,,,,,,,,,4,001,male,29,600,300,2022_Aug_03_0941,Experiment,2021.1.4,361.2729814736989,
,,,,,,,,,,,,,,,,,,,,,,,,,,,,,,,,,,,,,,,,,,,,,14,Ashamed,rating,1.0,12.935925800000405,,,,,,,,,,,,,,,,,,,,,,,,,,,,,,,,,,,,,,,,,,,,,,,,,,,,,,,,,,,,,,,,,,,,,,,,,,,,,,,,,,,,,,,,,,,,,,,,,,,,,,,,,,,,,,,,,,,4,001,male,29,600,300,2022_Aug_03_0941,Experiment,2021.1.4,361.2729814736989,
,,,,,,,,,,,,,,,,,,,,,,,,,,,,,,,,,,,,,,,,,,,,,15,Inspired,rating,4.0,7.548159099999793,,,,,,,,,,,,,,,,,,,,,,,,,,,,,,,,,,,,,,,,,,,,,,,,,,,,,,,,,,,,,,,,,,,,,,,,,,,,,,,,,,,,,,,,,,,,,,,,,,,,,,,,,,,,,,,,,,,4,001,male,29,600,300,2022_Aug_03_0941,Experiment,2021.1.4,361.2729814736989,
,,,,,,,,,,,,,,,,,,,,,,,,,,,,,,,,,,,,,,,,,,,,,16,Nervous,rating,3.0,8.4202609999993,,,,,,,,,,,,,,,,,,,,,,,,,,,,,,,,,,,,,,,,,,,,,,,,,,,,,,,,,,,,,,,,,,,,,,,,,,,,,,,,,,,,,,,,,,,,,,,,,,,,,,,,,,,,,,,,,,,4,001,male,29,600,300,2022_Aug_03_0941,Experiment,2021.1.4,361.2729814736989,
,,,,,,,,,,,,,,,,,,,,,,,,,,,,,,,,,,,,,,,,,,,,,17,Determined,rating,4.0,7.965792400000282,,,,,,,,,,,,,,,,,,,,,,,,,,,,,,,,,,,,,,,,,,,,,,,,,,,,,,,,,,,,,,,,,,,,,,,,,,,,,,,,,,,,,,,,,,,,,,,,,,,,,,,,,,,,,,,,,,,4,001,male,29,600,300,2022_Aug_03_0941,Experiment,2021.1.4,361.2729814736989,
,,,,,,,,,,,,,,,,,,,,,,,,,,,,,,,,,,,,,,,,,,,,,18,Attentive,rating,5.0,10.26417610000044,,,,,,,,,,,,,,,,,,,,,,,,,,,,,,,,,,,,,,,,,,,,,,,,,,,,,,,,,,,,,,,,,,,,,,,,,,,,,,,,,,,,,,,,,,,,,,,,,,,,,,,,,,,,,,,,,,,4,001,male,29,600,300,2022_Aug_03_0941,Experiment,2021.1.4,361.2729814736989,
,,,,,,,,,,,,,,,,,,,,,,,,,,,,,,,,,,,,,,,,,,,,,19,Jittery,rating,2.0,13.162980300000527,,,,,,,,,,,,,,,,,,,,,,,,,,,,,,,,,,,,,,,,,,,,,,,,,,,,,,,,,,,,,,,,,,,,,,,,,,,,,,,,,,,,,,,,,,,,,,,,,,,,,,,,,,,,,,,,,,,4,001,male,29,600,300,2022_Aug_03_0941,Experiment,2021.1.4,361.2729814736989,
,,,,,,,,,,,,,,,,,,,,,,,,,,,,,,,,,,,,,,,,,,,,,20,Active,rating,4.0,12.222545499999796,,,,,,,,,,,,,,,,,,,,,,,,,,,,,,,,,,,,,,,,,,,,,,,,,,,,,,,,,,,,,,,,,,,,,,,,,,,,,,,,,,,,,,,,,,,,,,,,,,,,,,,,,,,,,,,,,,,4,001,male,29,600,300,2022_Aug_03_0941,Experiment,2021.1.4,361.2729814736989,
,,,,,,,,,,,,,,,,,,,,,,,,,,,,,,,,,,,,,,,,,,,,,21,Afraid,rating,1.0,12.201733800000511,,,,,,,,,,,,,,,,,,,,,,,,,,,,,,,,,,,,,,,,,,,,,,,,,,,,,,,,,,,,,,,,,,,,,,,,,,,,,,,,,,,,,,,,,,,,,,,,,,,,,,,,,,,,,,,,,,,4,001,male,29,600,300,2022_Aug_03_0941,Experiment,2021.1.4,361.2729814736989,
,,,,,,,,,,,,,,,,,,,,,,,,,,,,,,,,,,,,,,,,,,,,,22,Press the + button to submit your answers,description,,,,,,,,,,,,,,,,,,,,,,,,,,,,,,,,,,,,,,,,,,,,,,,,,,,,,,,,,,,,,,,,,,,,,,,,,,,,,,,,,,,,,,,,,,,,,,,,,,,,,,,,,,,,,,,,,,,,,4,001,male,29,600,300,2022_Aug_03_0941,Experiment,2021.1.4,361.2729814736989,
,,,,,,,,,,,,,,,,,,,,,,,,,,,,,,,,,,,,,,,,,,,,,,,,,,num_add,90.72070029999941,74.71973179999986,None,,,,,,,,,,,,,,,,,,,,,,,,,,,,,,,,,,,,,,,,,,,,,,,,,,,,,,,,,,,,,,,,,,,,,,,,,,,,,,,,,,,,,,,,,,,,,,,,,,,,,,,,,,,,,,,4,001,male,29,600,300,2022_Aug_03_0941,Experiment,2021.1.4,361.2729814736989,
,,,,,,,,,,,,,,,,,,,,,,,,,,,,,,,,,,,,,,,,,,,,,,,,,,,,,,165.4530568,None,num_add,16.603484299999764,,,,,,,,,,,,,,,,,,,,,,,,,,,,,,,,,,,,,,,,,,,,,,,,,,,,,,,,,,,,,,,,,,,,,,,,,,,,,,,,,,,,,,,,,,,,,,,,,,,,,,,,,,,4,001,male,29,600,300,2022_Aug_03_0941,Experiment,2021.1.4,361.2729814736989,
,,,,,,,,,,,,,,,,,,,,,,,,,,,,,,,,,,,,,,,,,,,,,,,,,,,,,,,,,,182.06727599999977,None,num_add,10.477261400000316,182.06727599999977,None,,,,,,,,,,,,,,,,,,,,,,,,,,,,,,,,,,,,,,,,,,,,,,,,,,,,,,,,,,,,,,,,,,,,,,,,,,,,,,,,,,,,,,,,,,,,,,,,,,,,,4,001,male,29,600,300,2022_Aug_03_0941,Experiment,2021.1.4,361.2729814736989,
,,,,,,,,,,,,,,,,,,,,,,,,,,,,,,,,,,,,,,,,,,,,,,,,,,,,,,,,,,,,,,,,192.56406270000025,None,num_add,14.876383100000567,,,,,,,,,,,,,,,,,,,,,,,,,,,,,,,,,,,,,,,,,,,,,,,,,,,,,,,,,,,,,,,,,,,,,,,,,,,,,,,,,,,,,,,,,,,,,,,,,4,001,male,29,600,300,2022_Aug_03_0941,Experiment,2021.1.4,361.2729814736989,
,,,,,,,,,,,,,,,,,,,,,,,,,,,,,,,,,,,,,,,,,,,,,,,,,,,,,,,,,,,,,,,,,,,,207.4511653999998,None,space,27.381307200000265,,,,,,,,,,,,,,,,,,,,,,,,,,,,,,,,,,,,,,,,,,,,,,,,,,,,,,,,,,,,,,,,,,,,,,,,,,,,,,,,,,,,,,,,,,,,,4,001,male,29,600,300,2022_Aug_03_0941,Experiment,2021.1.4,361.2729814736989,
images\S21_F_H_01.png,images\S21_F_H_01_scrambled.png,21,Happy,-0.1,F,0,0,practice,off,1,0.5,0.75,0.5,0.853,3,,,,,,,,,,,0,0,0,0,,,,,,,,,,,,,,,,,,,,,,,,,,,,,,,,,,,,,,,,,,,235.00657930000034,235.51203600000008,235.51203600000008,236.26735780000035,236.26735780000035,236.76996570000028,236.76996570000028,237.62525640000058,237.62525640000058,None,num_4,0.8552417999999307,237.62525640000058,None,,,,,,,,,,,,,,,,,,,,,,,,,,,,,,,,,,,,,,,,,,,,,,,,,,,,,,,,,,,,,,,,,,,,,,,,,,,,,,,4,001,male,29,600,300,2022_Aug_03_0941,Experiment,2021.1.4,361.2729814736989,
images\S22_M_S_03.png,images\S22_M_S_03_scrambled.png,22,Sad,0.3,M,0,0,practice,on,2,0.5,0.75,0.5,0.794,3,,,,,,,,,,,0,1,1,7,,,,,,,,,,,,,,,,,,,,,,,,,,,,,,,,,,,,,,,,,,,238.56937290000042,239.07204850000016,239.07204850000016,239.82736490000025,239.82736490000025,240.32994130000043,240.32994130000043,241.12697750000007,241.12697750000007,None,None,,241.12697750000007,None,,,,,,,,,,,,,,,,,,,,,,,,,,,,,,,,,,,,,,,,,,,,,,,,,,,,,,,,,,,,,,,,,,,,,,,,,,,,,,,4,001,male,29,600,300,2022_Aug_03_0941,Experiment,2021.1.4,361.2729814736989,
images\S22_M_S_01.png,images\S22_M_S_01_scrambled.png,22,Sad,0.1,M,0,0,practice,on,2,0.5,0.75,0.5,0.867,3,,,,,,,,,,,0,2,2,5,,,,,,,,,,,,,,,,,,,,,,,,,,,,,,,,,,,,,,,,,,,244.21207630000026,244.71751099999983,244.71751099999983,245.46725440000046,245.46725440000046,245.96991870000056,245.96991870000056,246.84189669999978,246.84189669999978,244.21207630000026,None,,246.84189669999978,244.21207630000026,,,,,,,,,,,,,,,,,,,,,,,,,,,,,,,,,,,,,,,,,,,,,,,,,,,,,,,,,,,,,,,,,,,,,,,,,,,,,,,4,001,male,29,600,300,2022_Aug_03_0941,Experiment,2021.1.4,361.2729814736989,
images\S22_M_S_03.png,images\S22_M_S_03_scrambled.png,22,Sad,0.3,M,0,0,practice,on,2,0.5,0.75,0.5,0.87,3,,,,,,,,,,,0,3,3,4,,,,,,,,,,,,,,,,,,,,,,,,,,,,,,,,,,,,,,,,,,,249.89088979999997,250.39353389999997,250.39353389999997,251.1461158000002,251.1461158000002,251.65154230000007,251.65154230000007,252.52063570000064,252.52063570000064,249.89088979999997,None,,252.52063570000064,249.89088979999997,,,,,,,,,,,,,,,,,,,,,,,,,,,,,,,,,,,,,,,,,,,,,,,,,,,,,,,,,,,,,,,,,,,,,,,,,,,,,,,4,001,male,29,600,300,2022_Aug_03_0941,Experiment,2021.1.4,361.2729814736989,
images\S21_F_H_02.png,images\S21_F_H_02_scrambled.png,21,Happy,-0.2,F,0,0,practice,off,1,0.5,0.75,0.5,0.91,3,,,,,,,,,,,0,4,4,1,,,,,,,,,,,,,,,,,,,,,,,,,,,,,,,,,,,,,,,,,,,255.6030184000001,256.10844499999985,256.10844499999985,256.8637155000006,256.8637155000006,257.3665181000006,257.3665181000006,258.28279120000025,258.28279120000025,255.6030184000001,num_6,0.3336804000000484,258.28279120000025,255.6030184000001,,,,,,,,,,,,,,,,,,,,,,,,,,,,,,,,,,,,,,,,,,,,,,,,,,,,,,,,,,,,,,,,,,,,,,,,,,,,,,,4,001,male,29,600,300,2022_Aug_03_0941,Experiment,2021.1.4,361.2729814736989,
images\S22_M_S_02.png,images\S22_M_S_02_scrambled.png,22,Sad,0.2,M,0,0,practice,on,2,0.5,0.75,0.5,0.783,3,,,,,,,,,,,0,5,5,6,,,,,,,,,,,,,,,,,,,,,,,,,,,,,,,,,,,,,,,,,,,258.71039980000023,259.2130557999999,259.2130557999999,259.9683786000005,259.9683786000005,260.4710978000003,260.4710978000003,261.2568944000004,261.2568944000004,None,num_4,0.5515986000000339,261.2568944000004,None,,,,,,,,,,,,,,,,,,,,,,,,,,,,,,,,,,,,,,,,,,,,,,,,,,,,,,,,,,,,,,,,,,,,,,,,,,,,,,,4,001,male,29,600,300,2022_Aug_03_0941,Experiment,2021.1.4,361.2729814736989,
images\S22_M_H_02.png,images\S22_M_H_02_scrambled.png,22,Happy,-0.2,M,0,0,practice,off,1,0.5,0.75,0.5,0.883,3,,,,,,,,,,,0,6,6,2,,,,,,,,,,,,,,,,,,,,,,,,,,,,,,,,,,,,,,,,,,,261.92885060000026,262.43157340000016,262.43157340000016,263.18686119999984,263.18686119999984,263.6922448000005,263.6922448000005,264.5752680000005,264.5752680000005,None,num_6,0.0732717999999295,264.5752680000005,None,,,,,,,,,,,,,,,,,,,,,,,,,,,,,,,,,,,,,,,,,,,,,,,,,,,,,,,,,,,,,,,,,,,,,,,,,,,,,,,4,001,male,29,600,300,2022_Aug_03_0941,Experiment,2021.1.4,361.2729814736989,
images\S22_M_S_02.png,images\S22_M_S_02_scrambled.png,22,Sad,0.2,M,0,0,practice,off,1,0.5,0.75,0.5,0.751,3,,,,,,,,,,,0,7,7,3,,,,,,,,,,,,,,,,,,,,,,,,,,,,,,,,,,,,,,,,,,,264.70021690000067,265.2028387999999,265.2028387999999,265.9526222000004,265.9526222000004,266.4524462999998,266.4524462999998,267.2134452,267.2134452,None,num_4,1.8509784999996555,267.2134452,None,,,,,,,,,,,,,,,,,,,,,,,,,,,,,,,,,,,,,,,,,,,,,,,,,,,,,,,,,,,,,,,,,,,,,,,,,,,,,,,4,001,male,29,600,300,2022_Aug_03_0941,Experiment,2021.1.4,361.2729814736989,
,,,,,,,,,,,,,,,,,,,,,,,,,,,,,,,,,,,,,,,,,,,,,,,,,,,,,,,,,,,,,,,,,,,,,,,,,,,,,,,,,,,,,,269.09332390000054,None,space,35.88304429999971,,,,,,,,,,,,,,,,,,,,,,,,,,,,,,,,,,,,,,,,,,,,,,,,,,,,,,,,,,,,,,,,,,,,,,,,,,,4,001,male,29,600,300,2022_Aug_03_0941,Experiment,2021.1.4,361.2729814736989,
images\S2_M_S_02.png,images\S2_M_S_02_scrambled.png,2,sad,-20,male,2,,191,on,2,0.5,0.75,0.5,0.831,3,190,1,1,1,2,2,32,128,162,,,,,,0,0,0,0,,,,,,,,,,,,,,,,,,,,,,,,,,,,,,,,,,,,,,,,,,,,,,,,,,,,,,,,,305.53211809999993,306.03756130000056,306.03756130000056,306.7928732999999,306.7928732999999,307.2982627000001,307.2982627000001,308.1313209,308.1313209,None,num_4,0.13313629999993282,308.1313209,None,sad,0,Sad,308.2785381500007,None,None,308.2785381500007,None,,,,,,,,,,,,,,,,,,,,,,,,,,,,,,,,,,,,,,,,,,,,,,,,,,,,,4,001,male,29,600,300,2022_Aug_03_0941,Experiment,2021.1.4,361.2729814736989,
images\S5_F_S_02.png,images\S5_F_S_02_scrambled.png,5,sad,-20,female,2,,89,on,2,0.5,0.75,0.5,0.769,3,88,2,1,2,2,2,32,128,162,,,,,,0,1,1,1,,,,,,,,,,,,,,,,,,,,,,,,,,,,,,,,,,,,,,,,,,,,,,,,,,,,,,,,,308.36736650000057,308.87275800000043,308.87275800000043,309.6225443000003,309.6225443000003,310.1279863999998,310.1279863999998,310.90275199999996,310.90275199999996,None,num_6,0.3056823999995686,310.90275199999996,None,happy,0,Sad,311.21933415000075,None,None,311.21933415000075,None,,,,,,,,,,,,,,,,,,,,,,,,,,,,,,,,,,,,,,,,,,,,,,,,,,,,,4,001,male,29,600,300,2022_Aug_03_0941,Experiment,2021.1.4,361.2729814736989,
images\S3_F_H_02.png,images\S3_F_H_02_scrambled.png,3,happy,20,female,5,,134,off,1,0.5,0.75,0.5,0.947,3,133,1,1,1,0,0,0,0,5,,,,,,0,2,2,2,,,,,,,,,,,,,,,,,,,,,,,,,,,,,,,,,,,,,,,,,,,,,,,,,,,,,,,,,311.33033239999986,311.8329579000001,311.8329579000001,312.58556510000017,312.58556510000017,313.0853984000005,313.0853984000005,314.0378818999998,314.0378818999998,None,num_6,0.44257399999969493,314.0378818999998,None,happy,0,Happy,314.5017288000001,None,None,314.5017288000001,None,,,,,,,,,,,,,,,,,,,,,,,,,,,,,,,,,,,,,,,,,,,,,,,,,,,,,4,001,male,29,600,300,2022_Aug_03_0941,Experiment,2021.1.4,361.2729814736989,
images\S4_M_S_02.png,images\S4_M_S_02_scrambled.png,4,sad,-20,male,2,,263,off,1,0.5,0.75,0.5,0.775,3,262,2,1,1,0,0,0,0,2,,,,,,0,3,3,3,,,,,,,,,,,,,,,,,,,,,,,,,,,,,,,,,,,,,,,,,,,,,,,,,,,,,,,,,314.6098775999999,315.11252740000054,315.11252740000054,315.86788500000057,315.86788500000057,316.37327689999984,316.37327689999984,317.1535773000005,317.1535773000005,None,num_4,0.310762899999645,317.1535773000005,None,sad,0,Sad,317.4757068000004,None,None,317.4757068000004,None,,,,,,,,,,,,,,,,,,,,,,,,,,,,,,,,,,,,,,,,,,,,,,,,,,,,,4,001,male,29,600,300,2022_Aug_03_0941,Experiment,2021.1.4,361.2729814736989,
images\S9_F_H_02.png,images\S9_F_H_02_scrambled.png,9,happy,20,female,5,,350,on,2,0.5,0.75,0.5,0.948,3,349,1,1,1,2,2,32,128,165,,,,,,0,4,4,4,,,,,,,,,,,,,,,,,,,,,,,,,,,,,,,,,,,,,,,,,,,,,,,,,,,,,,,,,317.5645374000005,318.0699615000003,318.0699615000003,318.8224957000002,318.8224957000002,319.3251012999999,319.3251012999999,320.27767980000044,320.27767980000044,None,num_6,0.49881729999924573,320.27767980000044,None,happy,0,Happy,320.7970491500007,None,None,320.7970491500007,None,,,,,,,,,,,,,,,,,,,,,,,,,,,,,,,,,,,,,,,,,,,,,,,,,,,,,4,001,male,29,600,300,2022_Aug_03_0941,Experiment,2021.1.4,361.2729814736989,
images\S8_M_S_01.png,images\S8_M_S_01_scrambled.png,8,sad,-10,male,3,,46,off,1,0.5,0.75,0.5,0.798,3,45,1,1,1,0,0,0,0,3,,,,,,0,5,5,5,,,,,,,,,,,,,,,,,,,,,,,,,,,,,,,,,,,,,,,,,,,,,,,,,,,,,,,,,320.9079403000005,321.4105817999998,321.4105817999998,322.16038710000066,322.16038710000066,322.66302760000053,322.66302760000053,323.46278190000066,323.46278190000066,None,num_4,0.7297484000000622,323.46278190000066,None,sad,0,Sad,324.21536725000055,None,None,324.21536725000055,None,,,,,,,,,,,,,,,,,,,,,,,,,,,,,,,,,,,,,,,,,,,,,,,,,,,,,4,001,male,29,600,300,2022_Aug_03_0941,Experiment,2021.1.4,361.2729814736989,
images\S9_F_H_01.png,images\S9_F_H_01_scrambled.png,9,happy,10,female,4,,169,off,1,0.5,0.75,0.5,0.856,3,168,2,1,1,0,0,0,0,4,,,,,,0,6,6,6,,,,,,,,,,,,,,,,,,,,,,,,,,,,,,,,,,,,,,,,,,,,,,,,,,,,,,,,,324.32633559999977,324.8289635000001,324.8289635000001,325.5787293000003,325.5787293000003,326.08416620000025,326.08416620000025,326.9423262,326.9423262,None,num_6,0.4580574000001434,326.9423262,None,happy,0,Happy,327.41430970000016,None,None,327.41430970000016,None,,,,,,,,,,,,,,,,,,,,,,,,,,,,,,,,,,,,,,,,,,,,,,,,,,,,,4,001,male,29,600,300,2022_Aug_03_0941,Experiment,2021.1.4,361.2729814736989,
images\S3_F_H_01.png,images\S3_F_H_01_scrambled.png,3,happy,10,female,4,,313,on,2,0.5,0.75,0.5,0.757,3,312,1,1,2,2,2,32,128,164,,,,,,0,7,7,7,,,,,,,,,,,,,,,,,,,,,,,,,,,,,,,,,,,,,,,,,,,,,,,,,,,,,,,,,327.50036249999994,328.00022830000034,328.00022830000034,328.74997900000017,328.74997900000017,329.25269930000013,329.25269930000013,330.01352270000007,330.01352270000007,None,num_6,0.6348768999996537,330.01352270000007,None,happy,0,Happy,330.66331510000015,None,None,330.66331510000015,None,,,,,,,,,,,,,,,,,,,,,,,,,,,,,,,,,,,,,,,,,,,,,,,,,,,,,4,001,male,29,600,300,2022_Aug_03_0941,Experiment,2021.1.4,361.2729814736989,
images\S7_F_S_03.png,images\S7_F_S_03_scrambled.png,7,sad,-30,female,1,,462,on,2,0.5,0.75,0.5,0.853,3,461,2,1,1,2,2,32,128,161,,,,,,0,8,8,8,,,,,,,,,,,,,,,,,,,,,,,,,,,,,,,,,,,,,,,,,,,,,,,,,,,,,,,,,330.74935989999994,331.2547792000005,331.2547792000005,332.0073357000001,332.0073357000001,332.5099435000002,332.5099435000002,333.36805790000017,333.36805790000017,None,num_4,0.8004425999997693,333.36805790000017,None,sad,0,Sad,334.18168010000005,None,None,334.18168010000005,None,,,,,,,,,,,,,,,,,,,,,,,,,,,,,,,,,,,,,,,,,,,,,,,,,,,,,4,001,male,29,600,300,2022_Aug_03_0941,Experiment,2021.1.4,361.2729814736989,
images\S9_F_H_01.png,images\S9_F_H_01_scrambled.png,9,happy,10,female,4,,349,on,2,0.5,0.75,0.5,0.836,3,348,3,1,1,2,2,32,128,164,,,,,,0,9,9,9,,,,,,,,,,,,,,,,,,,,,,,,,,,,,,,,,,,,,,,,,,,,,,,,,,,,,,,,,334.23164090000046,334.73426220000056,334.73426220000056,335.4867929000002,335.4867929000002,335.9923333000006,335.9923333000006,336.8336401000006,336.8336401000006,None,num_6,0.7668832999997903,336.8336401000006,None,happy,0,Happy,337.6223504000003,None,None,337.6223504000003,None,,,,,,,,,,,,,,,,,,,,,,,,,,,,,,,,,,,,,,,,,,,,,,,,,,,,,4,001,male,29,600,300,2022_Aug_03_0941,Experiment,2021.1.4,361.2729814736989,
images\S3_F_H_01.png,images\S3_F_H_01_scrambled.png,3,happy,10,female,4,,253,off,1,0.5,0.75,0.5,0.776,3,252,1,1,2,0,0,0,0,4,,,,,,0,10,10,10,,,,,,,,,,,,,,,,,,,,,,,,,,,,,,,,,,,,,,,,,,,,,,,,,,,,,,,,,337.6722348000003,338.17772289999994,338.17772289999994,338.9274317999998,338.9274317999998,339.43286799999987,339.43286799999987,340.2131840000002,340.2131840000002,None,num_4,0.9072181000001365,340.2131840000002,None,sad,0,Happy,341.1295305000001,None,None,341.1295305000001,None,,,,,,,,,,,,,,,,,,,,,,,,,,,,,,,,,,,,,,,,,,,,,,,,,,,,,4,001,male,29,600,300,2022_Aug_03_0941,Experiment,2021.1.4,361.2729814736989,
images\S10_M_S_02.png,images\S10_M_S_02_scrambled.png,10,sad,-20,male,2,,299,off,1,0.5,0.75,0.5,0.942,3,298,2,1,1,0,0,0,0,2,,,,,,0,11,11,11,,,,,,,,,,,,,,,,,,,,,,,,,,,,,,,,,,,,,,,,,,,,,,,,,,,,,,,,,341.23780669999996,341.74326960000053,341.74326960000053,342.4985815,342.4985815,343.0039617000002,343.0039617000002,343.9481446,343.9481446,None,num_4,0.748389400000633,343.9481446,None,sad,0,Sad,344.7062154999999,None,None,344.7062154999999,None,,,,,,,,,,,,,,,,,,,,,,,,,,,,,,,,,,,,,,,,,,,,,,,,,,,,,4,001,male,29,600,300,2022_Aug_03_0941,Experiment,2021.1.4,361.2729814736989,
images\S8_M_H_02.png,images\S8_M_H_02_scrambled.png,8,happy,20,male,5,,44,off,1,0.5,0.75,0.5,0.949,3,43,3,1,1,0,0,0,0,5,,,,,,0,12,12,12,,,,,,,,,,,,,,,,,,,,,,,,,,,,,,,,,,,,,,,,,,,,,,,,,,,,,,,,,344.7922816,345.2977572,345.2977572,346.0474628000002,346.0474628000002,346.5528841000005,346.5528841000005,347.5081469000006,347.5081469000006,None,num_6,0.5963160999999673,347.5081469000006,None,happy,0,Happy,348.12186035000013,None,None,348.12186035000013,None,,,,,,,,,,,,,,,,,,,,,,,,,,,,,,,,,,,,,,,,,,,,,,,,,,,,,4,001,male,29,600,300,2022_Aug_03_0941,Experiment,2021.1.4,361.2729814736989,
images\S4_M_H_02.png,images\S4_M_H_02_scrambled.png,4,happy,20,male,5,,80,on,2,0.5,0.75,0.5,0.756,3,79,1,1,2,2,2,32,128,165,,,,,,0,13,13,13,,,,,,,,,,,,,,,,,,,,,,,,,,,,,,,,,,,,,,,,,,,,,,,,,,,,,,,,,348.20509180000045,348.7077927,348.7077927,349.46030080000037,349.46030080000037,349.9629488999999,349.9629488999999,350.72099720000006,350.72099720000006,None,num_6,0.5993958000008206,350.72099720000006,None,happy,0,Happy,351.3319646000005,None,None,351.3319646000005,None,,,,,,,,,,,,,,,,,,,,,,,,,,,,,,,,,,,,,,,,,,,,,,,,,,,,,4,001,male,29,600,300,2022_Aug_03_0941,Experiment,2021.1.4,361.2729814736989,
images\S2_M_H_03.png,images\S2_M_H_03_scrambled.png,2,happy,30,male,6,,429,on,2,0.5,0.75,0.5,0.763,3,428,2,1,1,2,2,32,128,166,,,,,,0,14,14,14,,,,,,,,,,,,,,,,,,,,,,,,,,,,,,,,,,,,,,,,,,,,,,,,,,,,,,,,,351.41522990000067,351.9206476999998,351.9206476999998,352.6704202000001,352.6704202000001,353.1730728000002,353.1730728000002,353.93947769999977,353.93947769999977,None,num_6,0.4051337999999305,353.93947769999977,None,happy,0,Happy,354.3588140000007,None,None,354.3588140000007,None,,,,,,,,,,,,,,,,,,,,,,,,,,,,,,,,,,,,,,,,,,,,,,,,,,,,,4,001,male,29,600,300,2022_Aug_03_0941,Experiment,2021.1.4,361.2729814736989,
images\S8_M_S_03.png,images\S8_M_S_03_scrambled.png,8,sad,-30,male,1,,348,on,2,0.5,0.75,0.5,0.79,3,347,3,1,1,2,2,32,128,161,,,,,,0,15,15,15,,,,,,,,,,,,,,,,,,,,,,,,,,,,,,,,,,,,,,,,,,,,,,,,,,,,,,,,,354.44487050000043,354.9502751,354.9502751,355.70285610000064,355.70285610000064,356.2054814000003,356.2054814000003,357.0024352999999,357.0024352999999,None,num_6,0.4699545000003127,357.0024352999999,None,happy,0,Sad,357.4800608000003,None,None,357.4800608000003,None,,,,,,,,,,,,,,,,,,,,,,,,,,,,,,,,,,,,,,,,,,,,,,,,,,,,,4,001,male,29,600,300,2022_Aug_03_0941,Experiment,2021.1.4,361.2729814736989,
images\S7_F_H_03.png,images\S7_F_H_03_scrambled.png,7,happy,30,female,6,,99,on,2,0.5,0.75,0.5,0.813,3,98,4,1,1,2,2,32,128,166,,,,,,0,16,16,16,,,,,,,,,,,,,,,,,,,,,,,,,,,,,,,,,,,,,,,,,,,,,,,,,,,,,,,,,357.56890269999985,358.07152190000033,358.07152190000033,358.8240878000006,358.8240878000006,359.3294942000002,359.3294942000002,360.14589179999984,360.14589179999984,None,num_6,0.4306094999992638,360.14589179999984,None,happy,0,Happy,360.6014732500005,None,None,360.6014732500005,None,,,,,,,,,,,,,,,,,,,,,,,,,,,,,,,,,,,,,,,,,,,,,,,,,,,,,4,001,male,29,600,300,2022_Aug_03_0941,Experiment,2021.1.4,361.2729814736989,
images\S2_M_H_03.png,images\S2_M_H_03_scrambled.png,2,happy,30,male,6,,69,on,2,0.5,0.75,0.5,0.846,3,68,5,1,2,2,2,32,128,166,,,,,,0,17,17,17,,,,,,,,,,,,,,,,,,,,,,,,,,,,,,,,,,,,,,,,,,,,,,,,,,,,,,,,,360.65406280000025,361.1568261000002,361.1568261000002,361.90645700000005,361.90645700000005,362.4063433000001,362.4063433000001,363.2560325000004,363.2560325000004,None,num_6,0.4484935000000405,363.2560325000004,None,happy,0,Happy,363.7310846500009,None,None,363.7310846500009,None,,,,,,,,,,,,,,,,,,,,,,,,,,,,,,,,,,,,,,,,,,,,,,,,,,,,,4,001,male,29,600,300,2022_Aug_03_0941,Experiment,2021.1.4,361.2729814736989,
images\S6_M_H_01.png,images\S6_M_H_01_scrambled.png,6,happy,10,male,4,,331,on,2,0.5,0.75,0.5,0.791,3,330,6,1,1,2,2,32,128,164,,,,,,0,18,18,18,,,,,,,,,,,,,,,,,,,,,,,,,,,,,,,,,,,,,,,,,,,,,,,,,,,,,,,,,363.84197140000015,364.34747719999996,364.34747719999996,365.1027548000002,365.1027548000002,365.6025454999999,365.6025454999999,366.3995407000002,366.3995407000002,None,num_4,0.3928630999998859,366.3995407000002,None,sad,0,Happy,366.80218930000024,None,None,366.80218930000024,None,,,,,,,,,,,,,,,,,,,,,,,,,,,,,,,,,,,,,,,,,,,,,,,,,,,,,4,001,male,29,600,300,2022_Aug_03_0941,Experiment,2021.1.4,361.2729814736989,
images\S1_F_S_03.png,images\S1_F_S_03_scrambled.png,1,sad,-30,female,1,,66,on,2,0.5,0.75,0.5,0.802,3,65,7,1,1,2,2,32,128,161,,,,,,0,19,19,19,,,,,,,,,,,,,,,,,,,,,,,,,,,,,,,,,,,,,,,,,,,,,,,,,,,,,,,,,366.91602330000023,367.4186814000004,367.4186814000004,368.17123880000054,368.17123880000054,368.6738501,368.6738501,369.4820146000002,369.4820146000002,None,num_4,0.43835369999942486,369.4820146000002,None,sad,0,Sad,369.93459255000016,None,None,369.93459255000016,None,,,,,,,,,,,,,,,,,,,,,,,,,,,,,,,,,,,,,,,,,,,,,,,,,,,,,4,001,male,29,600,300,2022_Aug_03_0941,Experiment,2021.1.4,361.2729814736989,
images\S3_F_H_03.png,images\S3_F_H_03_scrambled.png,3,happy,30,female,6,,375,off,1,0.5,0.75,0.5,0.805,3,374,1,1,1,0,0,0,0,6,,,,,,0,20,20,20,,,,,,,,,,,,,,,,,,,,,,,,,,,,,,,,,,,,,,,,,,,,,,,,,,,,,,,,,370.02062790000036,370.5261496000003,370.5261496000003,371.2758061000004,371.2758061000004,371.7784638000003,371.7784638000003,372.58931120000034,372.58931120000034,None,num_6,0.33910519999972166,372.58931120000034,None,happy,0,Happy,372.94755395000084,None,None,372.94755395000084,None,,,,,,,,,,,,,,,,,,,,,,,,,,,,,,,,,,,,,,,,,,,,,,,,,,,,,4,001,male,29,600,300,2022_Aug_03_0941,Experiment,2021.1.4,361.2729814736989,
images\S9_F_H_02.png,images\S9_F_H_02_scrambled.png,9,happy,20,female,5,,410,off,1,0.5,0.75,0.5,0.753,3,409,2,1,1,0,0,0,0,5,,,,,,0,21,21,21,,,,,,,,,,,,,,,,,,,,,,,,,,,,,,,,,,,,,,,,,,,,,,,,,,,,,,,,,372.9947079000003,373.49745729999995,373.49745729999995,374.2471274999998,374.2471274999998,374.7526134,374.7526134,375.5078946000003,375.5078946000003,None,num_4,1.7485162000002674,375.5078946000003,None,sad,0,Happy,377.2656467000004,None,None,377.2656467000004,None,,,,,,,,,,,,,,,,,,,,,,,,,,,,,,,,,,,,,,,,,,,,,,,,,,,,,4,001,male,29,600,300,2022_Aug_03_0941,Experiment,2021.1.4,361.2729814736989,
images\S2_M_S_03.png,images\S2_M_S_03_scrambled.png,2,sad,-30,male,1,,312,on,2,0.5,0.75,0.5,0.95,3,311,1,1,1,2,2,32,128,161,,,,,,0,22,22,22,,,,,,,,,,,,,,,,,,,,,,,,,,,,,,,,,,,,,,,,,,,,,,,,,,,,,,,,,377.34893530000045,377.85435300000063,377.85435300000063,378.6070143000006,378.6070143000006,379.10672370000066,379.10672370000066,380.06209450000006,380.06209450000006,None,num_4,0.4902284999998301,380.06209450000006,None,sad,0,Sad,380.56743095,None,None,380.56743095,None,,,,,,,,,,,,,,,,,,,,,,,,,,,,,,,,,,,,,,,,,,,,,,,,,,,,,4,001,male,29,600,300,2022_Aug_03_0941,Experiment,2021.1.4,361.2729814736989,
images\S8_M_S_02.png,images\S8_M_S_02_scrambled.png,8,sad,-20,male,2,,107,on,2,0.5,0.75,0.5,0.934,3,106,2,1,1,2,2,32,128,162,,,,,,0,23,23,23,,,,,,,,,,,,,,,,,,,,,,,,,,,,,,,,,,,,,,,,,,,,,,,,,,,,,,,,,380.64792000000034,381.1533629000005,381.1533629000005,381.9086748,381.9086748,382.41407400000026,382.41407400000026,383.34985719999986,383.34985719999986,None,num_4,0.38662530000055995,383.34985719999986,None,sad,0,Sad,383.7497705000001,None,None,383.7497705000001,None,,,,,,,,,,,,,,,,,,,,,,,,,,,,,,,,,,,,,,,,,,,,,,,,,,,,,4,001,male,29,600,300,2022_Aug_03_0941,Experiment,2021.1.4,361.2729814736989,
images\S9_F_S_02.png,images\S9_F_S_02_scrambled.png,9,sad,-20,female,2,,113,on,2,0.5,0.75,0.5,0.805,3,112,3,1,2,2,2,32,128,162,,,,,,0,24,24,24,,,,,,,,,,,,,,,,,,,,,,,,,,,,,,,,,,,,,,,,,,,,,,,,,,,,,,,,,383.8330476000001,384.3384907999998,384.3384907999998,385.0882010000005,385.0882010000005,385.5908822000001,385.5908822000001,386.3989590000001,386.3989590000001,None,num_4,0.7535675999997693,386.3989590000001,None,sad,0,Sad,387.16261900000023,None,None,387.16261900000023,None,,,,,,,,,,,,,,,,,,,,,,,,,,,,,,,,,,,,,,,,,,,,,,,,,,,,,4,001,male,29,600,300,2022_Aug_03_0941,Experiment,2021.1.4,361.2729814736989,
images\S6_M_S_01.png,images\S6_M_S_01_scrambled.png,6,sad,-10,male,3,,334,on,2,0.5,0.75,0.5,0.922,3,333,4,1,1,2,2,32,128,163,,,,,,0,25,25,25,,,,,,,,,,,,,,,,,,,,,,,,,,,,,,,,,,,,,,,,,,,,,,,,,,,,,,,,,387.24591190000046,387.7485587000001,387.7485587000001,388.4982928999998,388.4982928999998,389.0037293000005,389.0037293000005,389.92562180000004,389.92562180000004,None,num_4,0.5628619999997682,389.92562180000004,None,sad,0,Sad,390.5060971500004,None,None,390.5060971500004,None,,,,,,,,,,,,,,,,,,,,,,,,,,,,,,,,,,,,,,,,,,,,,,,,,,,,,4,001,male,29,600,300,2022_Aug_03_0941,Experiment,2021.1.4,361.2729814736989,
images\blank.jpg,images\blank.jpg,none,none,none,none,0,,610,on,2,0.5,0.75,0.5,0.752,0,609,5,1,1,3,3,48,192,240,,,,,,0,26,26,26,,,,,,,,,,,,,,,,,,,,,,,,,,,,,,,,,,,,,,,,,,,,,,,,,,,,,,,,,390.65622500000063,391.1558012000005,391.1558012000005,391.90838930000064,391.90838930000064,392.4109404999999,392.4109404999999,393.16351470000063,393.16351470000063,393.16351470000063,None,,393.16351470000063,None,miss,0,,396.16546470000026,None,None,396.16546470000026,None,,,,,,,,,,,,,,,,,,,,,,,,,,,,,,,,,,,,,,,,,,,,,,,,,,,,,4,001,male,29,600,300,2022_Aug_03_0941,Experiment,2021.1.4,361.2729814736989,
images\S3_F_H_02.png,images\S3_F_H_02_scrambled.png,3,happy,20,female,5,,554,on,2,0.5,0.75,0.5,0.826,3,553,6,1,1,2,2,32,128,165,,,,,,0,27,27,27,,,,,,,,,,,,,,,,,,,,,,,,,,,,,,,,,,,,,,,,,,,,,,,,,,,,,,,,,396.2878257000002,396.7929869999998,396.7929869999998,397.54832050000005,397.54832050000005,398.0509023000004,398.0509023000004,398.88124849999986,398.88124849999986,None,num_6,0.41524329999992915,398.88124849999986,396.2878257000002,happy,0,Happy,399.30891215000065,None,None,399.30891215000065,None,,,,,,,,,,,,,,,,,,,,,,,,,,,,,,,,,,,,,,,,,,,,,,,,,,,,,4,001,male,29,600,300,2022_Aug_03_0941,Experiment,2021.1.4,361.2729814736989,
images\S1_F_H_02.png,images\S1_F_H_02_scrambled.png,1,happy,20,female,5,,2,off,1,0.5,0.75,0.5,0.805,3,1,1,1,2,0,0,0,0,5,,,,,,0,28,28,28,,,,,,,,,,,,,,,,,,,,,,,,,,,,,,,,,,,,,,,,,,,,,,,,,,,,,,,,,399.3921527000002,399.89480340000046,399.89480340000046,400.6473493000003,400.6473493000003,401.14995160000035,401.14995160000035,401.95809139999983,401.95809139999983,None,num_6,0.2585010000002512,401.95809139999983,None,happy,0,Happy,402.2470159500004,None,None,402.2470159500004,None,,,,,,,,,,,,,,,,,,,,,,,,,,,,,,,,,,,,,,,,,,,,,,,,,,,,,4,001,male,29,600,300,2022_Aug_03_0941,Experiment,2021.1.4,361.2729814736989,
images\S4_M_H_01.png,images\S4_M_H_01_scrambled.png,4,happy,10,male,4,,439,on,2,0.5,0.75,0.5,0.913,3,438,1,1,1,2,2,32,128,164,,,,,,0,29,29,29,,,,,,,,,,,,,,,,,,,,,,,,,,,,,,,,,,,,,,,,,,,,,,,,,,,,,,,,,402.36069060000045,402.86334780000016,402.86334780000016,403.6158952000005,403.6158952000005,404.1185294000006,404.1185294000006,405.0348804000005,405.0348804000005,None,num_4,0.43763769999986835,405.0348804000005,None,sad,0,Happy,405.4819737000005,None,None,405.4819737000005,None,,,,,,,,,,,,,,,,,,,,,,,,,,,,,,,,,,,,,,,,,,,,,,,,,,,,,4,001,male,29,600,300,2022_Aug_03_0941,Experiment,2021.1.4,361.2729814736989,
images\S3_F_H_03.png,images\S3_F_H_03_scrambled.png,3,happy,30,female,6,,435,on,2,0.5,0.75,0.5,0.814,3,434,2,1,1,2,2,32,128,166,,,,,,0,30,30,30,,,,,,,,,,,,,,,,,,,,,,,,,,,,,,,,,,,,,,,,,,,,,,,,,,,,,,,,,405.5291618000001,406.0317849000003,406.0317849000003,406.78154619999987,406.78154619999987,407.2871042000006,407.2871042000006,408.1033974000002,408.1033974000002,None,num_6,0.5529447000008076,408.1033974000002,None,happy,0,Happy,408.6726683000002,None,None,408.6726683000002,None,,,,,,,,,,,,,,,,,,,,,,,,,,,,,,,,,,,,,,,,,,,,,,,,,,,,,4,001,male,29,600,300,2022_Aug_03_0941,Experiment,2021.1.4,361.2729814736989,
images\S5_F_S_01.png,images\S5_F_S_01_scrambled.png,5,sad,-10,female,3,,28,off,1,0.5,0.75,0.5,0.861,3,27,1,1,1,0,0,0,0,3,,,,,,0,31,31,31,,,,,,,,,,,,,,,,,,,,,,,,,,,,,,,,,,,,,,,,,,,,,,,,,,,,,,,,,408.7559474999998,409.2586086000001,409.2586086000001,410.00834250000025,410.00834250000025,410.5109620000003,410.5109620000003,411.3774680000006,411.3774680000006,None,num_6,0.6550303000003623,411.3774680000006,None,happy,0,Sad,412.04384129999994,None,None,412.04384129999994,None,,,,,,,,,,,,,,,,,,,,,,,,,,,,,,,,,,,,,,,,,,,,,,,,,,,,,4,001,male,29,600,300,2022_Aug_03_0941,Experiment,2021.1.4,361.2729814736989,
images\S2_M_S_01.png,images\S2_M_S_01_scrambled.png,2,sad,-10,male,3,,10,off,1,0.5,0.75,0.5,0.947,3,9,2,1,2,0,0,0,0,3,,,,,,0,32,32,32,,,,,,,,,,,,,,,,,,,,,,,,,,,,,,,,,,,,,,,,,,,,,,,,,,,,,,,,,412.1243592000001,412.6297642999998,412.6297642999998,413.3823215000002,413.3823215000002,413.88775930000065,413.88775930000065,414.83463160000065,414.83463160000065,None,num_4,0.40571639999961917,414.83463160000065,None,sad,0,Sad,415.2567654,None,None,415.2567654,None,,,,,,,,,,,,,,,,,,,,,,,,,,,,,,,,,,,,,,,,,,,,,,,,,,,,,4,001,male,29,600,300,2022_Aug_03_0941,Experiment,2021.1.4,361.2729814736989,
images\S1_F_S_02.png,images\S1_F_S_02_scrambled.png,1,sad,-20,female,2,,305,on,2,0.5,0.75,0.5,0.855,3,304,1,1,1,2,2,32,128,162,,,,,,0,33,33,33,,,,,,,,,,,,,,,,,,,,,,,,,,,,,,,,,,,,,,,,,,,,,,,,,,,,,,,,,415.34282900000017,415.8482423000005,415.8482423000005,416.6007631000002,416.6007631000002,417.1034212000004,417.1034212000004,417.96426130000054,417.96426130000054,None,num_6,0.36409869999988587,417.96426130000054,None,happy,0,Sad,418.3363555000003,None,None,418.3363555000003,None,,,,,,,,,,,,,,,,,,,,,,,,,,,,,,,,,,,,,,,,,,,,,,,,,,,,,4,001,male,29,600,300,2022_Aug_03_0941,Experiment,2021.1.4,361.2729814736989,
images\S3_F_H_02.png,images\S3_F_H_02_scrambled.png,3,happy,20,female,5,,314,on,2,0.5,0.75,0.5,0.864,3,313,2,1,1,2,2,32,128,165,,,,,,0,34,34,34,,,,,,,,,,,,,,,,,,,,,,,,,,,,,,,,,,,,,,,,,,,,,,,,,,,,,,,,,418.3863276000002,418.8889734000004,418.8889734000004,419.63870829999996,419.63870829999996,420.14136099999996,420.14136099999996,421.0077928999999,421.0077928999999,None,num_6,0.5287360000002082,421.0077928999999,None,happy,0,Happy,421.56322840000047,None,None,421.56322840000047,None,,,,,,,,,,,,,,,,,,,,,,,,,,,,,,,,,,,,,,,,,,,,,,,,,,,,,4,001,male,29,600,300,2022_Aug_03_0941,Experiment,2021.1.4,361.2729814736989,
images\S3_F_H_01.png,images\S3_F_H_01_scrambled.png,3,happy,10,female,4,,493,off,1,0.5,0.75,0.5,0.831,3,492,1,2,1,0,0,0,0,4,,,,,,0,35,35,35,,,,,,,,,,,,,,,,,,,,,,,,,,,,,,,,,,,,,,,,,,,,,,,,,,,,,,,,,421.6269989000002,422.13252230000035,422.13252230000035,422.88777029999983,422.88777029999983,423.3875594000001,423.3875594000001,424.2234527999999,424.2234527999999,None,num_6,0.32098820000010164,424.2234527999999,None,happy,0,Happy,424.56225155000084,None,None,424.56225155000084,None,,,,,,,,,,,,,,,,,,,,,,,,,,,,,,,,,,,,,,,,,,,,,,,,,,,,,4,001,male,29,600,300,2022_Aug_03_0941,Experiment,2021.1.4,361.2729814736989,
images\S4_M_H_01.png,images\S4_M_H_01_scrambled.png,4,happy,10,male,4,,259,off,1,0.5,0.75,0.5,0.888,3,258,2,1,2,0,0,0,0,4,,,,,,0,36,36,36,,,,,,,,,,,,,,,,,,,,,,,,,,,,,,,,,,,,,,,,,,,,,,,,,,,,,,,,,424.61233660000016,425.11482650000016,425.11482650000016,425.86750029999985,425.86750029999985,426.37282030000006,426.37282030000006,427.264177,427.264177,None,num_4,0.26418659999944794,427.264177,None,sad,0,Happy,427.5335268000006,None,None,427.5335268000006,None,,,,,,,,,,,,,,,,,,,,,,,,,,,,,,,,,,,,,,,,,,,,,,,,,,,,,4,001,male,29,600,300,2022_Aug_03_0941,Experiment,2021.1.4,361.2729814736989,
images\S5_F_H_01.png,images\S5_F_H_01_scrambled.png,5,happy,10,female,4,,505,off,1,0.5,0.75,0.5,0.815,3,504,3,1,3,0,0,0,0,4,,,,,,0,37,37,37,,,,,,,,,,,,,,,,,,,,,,,,,,,,,,,,,,,,,,,,,,,,,,,,,,,,,,,,,427.61682420000034,428.11946350000017,428.11946350000017,428.8720014999999,428.8720014999999,429.3774933000004,429.3774933000004,430.1967160000004,430.1967160000004,None,num_6,0.3318076999994446,430.1967160000004,None,happy,0,Happy,430.5437198000005,None,None,430.5437198000005,None,,,,,,,,,,,,,,,,,,,,,,,,,,,,,,,,,,,,,,,,,,,,,,,,,,,,,4,001,male,29,600,300,2022_Aug_03_0941,Experiment,2021.1.4,361.2729814736989,
images\S9_F_S_03.png,images\S9_F_S_03_scrambled.png,9,sad,-30,female,1,,174,off,1,0.5,0.75,0.5,0.813,3,173,4,1,1,0,0,0,0,1,,,,,,0,38,38,38,,,,,,,,,,,,,,,,,,,,,,,,,,,,,,,,,,,,,,,,,,,,,,,,,,,,,,,,,430.62977469999987,431.13248569999996,431.13248569999996,431.8877786000003,431.8877786000003,432.39317800000026,432.39317800000026,433.2124029000006,433.2124029000006,None,num_4,0.30014420000043174,433.2124029000006,None,sad,0,Sad,433.54017765000003,None,None,433.54017765000003,None,,,,,,,,,,,,,,,,,,,,,,,,,,,,,,,,,,,,,,,,,,,,,,,,,,,,,4,001,male,29,600,300,2022_Aug_03_0941,Experiment,2021.1.4,361.2729814736989,
images\S10_M_H_02.png,images\S10_M_H_02_scrambled.png,10,happy,20,male,5,,116,on,2,0.5,0.75,0.5,0.778,3,115,1,1,1,2,2,32,128,165,,,,,,0,39,39,39,,,,,,,,,,,,,,,,,,,,,,,,,,,,,,,,,,,,,,,,,,,,,,,,,,,,,,,,,433.6482973000002,434.1537245999998,434.1537245999998,434.9063849000004,434.9063849000004,435.4061265999999,435.4061265999999,436.1836262000006,436.1836262000006,None,num_6,0.5608694000002288,436.1836262000006,None,happy,0,Happy,436.7584871000004,None,None,436.7584871000004,None,,,,,,,,,,,,,,,,,,,,,,,,,,,,,,,,,,,,,,,,,,,,,,,,,,,,,4,001,male,29,600,300,2022_Aug_03_0941,Experiment,2021.1.4,361.2729814736989,
images\S4_M_S_01.png,images\S4_M_S_01_scrambled.png,4,sad,-10,male,3,,382,off,1,0.5,0.75,0.5,0.809,3,381,1,1,1,0,0,0,0,3,,,,,,0,40,40,40,,,,,,,,,,,,,,,,,,,,,,,,,,,,,,,,,,,,,,,,,,,,,,,,,,,,,,,,,436.84453440000016,437.3471754000002,437.3471754000002,438.10258780000004,438.10258780000004,438.6079375999998,438.6079375999998,439.4187688000002,439.4187688000002,None,num_6,1.1256440999995903,439.4187688000002,None,happy,0,Sad,440.54904130000045,None,None,440.54904130000045,None,,,,,,,,,,,,,,,,,,,,,,,,,,,,,,,,,,,,,,,,,,,,,,,,,,,,,4,001,male,29,600,300,2022_Aug_03_0941,Experiment,2021.1.4,361.2729814736989,
images\S8_M_H_03.png,images\S8_M_H_03_scrambled.png,8,happy,30,male,6,,285,off,1,0.5,0.75,0.5,0.905,3,284,2,1,1,0,0,0,0,6,,,,,,0,41,41,41,,,,,,,,,,,,,,,,,,,,,,,,,,,,,,,,,,,,,,,,,,,,,,,,,,,,,,,,,440.66003510000064,441.1598902000005,441.1598902000005,441.9125184000004,441.9125184000004,442.4178778000005,442.4178778000005,443.32589760000064,443.32589760000064,None,num_6,0.3464506000000256,443.32589760000064,None,happy,0,Happy,443.6980897000005,None,None,443.6980897000005,None,,,,,,,,,,,,,,,,,,,,,,,,,,,,,,,,,,,,,,,,,,,,,,,,,,,,,4,001,male,29,600,300,2022_Aug_03_0941,Experiment,2021.1.4,361.2729814736989,
images\S9_F_H_03.png,images\S9_F_H_03_scrambled.png,9,happy,30,female,6,,351,on,2,0.5,0.75,0.5,0.899,3,350,1,1,2,2,2,32,128,166,,,,,,0,42,42,42,,,,,,,,,,,,,,,,,,,,,,,,,,,,,,,,,,,,,,,,,,,,,,,,,,,,,,,,,443.80905489999986,444.31446380000034,444.31446380000034,445.0671318000004,445.0671318000004,445.5724949000005,445.5724949000005,446.4777438000001,446.4777438000001,None,num_6,0.5307886000000508,446.4777438000001,None,happy,0,Happy,447.0304090000003,None,None,447.0304090000003,None,,,,,,,,,,,,,,,,,,,,,,,,,,,,,,,,,,,,,,,,,,,,,,,,,,,,,4,001,male,29,600,300,2022_Aug_03_0941,Experiment,2021.1.4,361.2729814736989,
images\S8_M_H_02.png,images\S8_M_H_02_scrambled.png,8,happy,20,male,5,,404,off,1,0.5,0.75,0.5,0.795,3,403,1,1,1,0,0,0,0,5,,,,,,0,43,43,43,,,,,,,,,,,,,,,,,,,,,,,,,,,,,,,,,,,,,,,,,,,,,,,,,,,,,,,,,447.0830547000005,447.58849250000003,447.58849250000003,448.3437739000001,448.3437739000001,448.84921250000025,448.84921250000025,449.64896039999985,449.64896039999985,None,num_6,0.3433535000003758,449.64896039999985,None,happy,0,Happy,450.0043968000005,None,None,450.0043968000005,None,,,,,,,,,,,,,,,,,,,,,,,,,,,,,,,,,,,,,,,,,,,,,,,,,,,,,4,001,male,29,600,300,2022_Aug_03_0941,Experiment,2021.1.4,361.2729814736989,
images\S7_F_H_01.png,images\S7_F_H_01_scrambled.png,7,happy,10,female,4,,97,on,2,0.5,0.75,0.5,0.786,3,96,1,1,1,2,2,32,128,164,,,,,,0,44,44,44,,,,,,,,,,,,,,,,,,,,,,,,,,,,,,,,,,,,,,,,,,,,,,,,,,,,,,,,,450.08769699999993,450.58754620000036,450.58754620000036,451.34291290000056,451.34291290000056,451.84553659999983,451.84553659999983,452.6341510000002,452.6341510000002,None,num_6,0.5506986999998844,452.6341510000002,None,happy,0,Happy,453.2091900500005,None,None,453.2091900500005,None,,,,,,,,,,,,,,,,,,,,,,,,,,,,,,,,,,,,,,,,,,,,,,,,,,,,,4,001,male,29,600,300,2022_Aug_03_0941,Experiment,2021.1.4,361.2729814736989,
images\S9_F_S_03.png,images\S9_F_S_03_scrambled.png,9,sad,-30,female,1,,234,on,2,0.5,0.75,0.5,0.822,3,233,2,1,1,2,2,32,128,161,,,,,,0,45,45,45,,,,,,,,,,,,,,,,,,,,,,,,,,,,,,,,,,,,,,,,,,,,,,,,,,,,,,,,,453.2617263000002,453.7643517000006,453.7643517000006,454.5170042,454.5170042,455.0223820000001,455.0223820000001,455.8470391999999,455.8470391999999,None,num_4,0.4014473999995971,455.8470391999999,None,sad,0,Sad,456.28046795000097,None,None,456.28046795000097,None,,,,,,,,,,,,,,,,,,,,,,,,,,,,,,,,,,,,,,,,,,,,,,,,,,,,,4,001,male,29,600,300,2022_Aug_03_0941,Experiment,2021.1.4,361.2729814736989,
images\S6_M_S_03.png,images\S6_M_S_03_scrambled.png,6,sad,-30,male,1,,456,on,2,0.5,0.75,0.5,0.793,3,455,3,1,2,2,2,32,128,161,,,,,,0,46,46,46,,,,,,,,,,,,,,,,,,,,,,,,,,,,,,,,,,,,,,,,,,,,,,,,,,,,,,,,,456.3885227999999,456.89395390000027,456.89395390000027,457.6492683000006,457.6492683000006,458.1520135999999,458.1520135999999,458.94888270000047,458.94888270000047,None,num_4,0.34740270000020246,458.94888270000047,None,sad,0,Sad,459.3099015500002,None,None,459.3099015500002,None,,,,,,,,,,,,,,,,,,,,,,,,,,,,,,,,,,,,,,,,,,,,,,,,,,,,,4,001,male,29,600,300,2022_Aug_03_0941,Experiment,2021.1.4,361.2729814736989,
images\S4_M_H_03.png,images\S4_M_H_03_scrambled.png,4,happy,30,male,6,,201,on,2,0.5,0.75,0.5,0.903,3,200,4,1,1,2,2,32,128,166,,,,,,0,47,47,47,,,,,,,,,,,,,,,,,,,,,,,,,,,,,,,,,,,,,,,,,,,,,,,,,,,,,,,,,459.3931573,459.89578170000004,459.89578170000004,460.64837590000025,460.64837590000025,461.1537726000006,461.1537726000006,462.0590019000001,462.0590019000001,None,num_6,0.6453683999998248,462.0590019000001,None,happy,0,Happy,462.7171592,None,None,462.7171592,None,,,,,,,,,,,,,,,,,,,,,,,,,,,,,,,,,,,,,,,,,,,,,,,,,,,,,4,001,male,29,600,300,2022_Aug_03_0941,Experiment,2021.1.4,361.2729814736989,
images\S1_F_H_02.png,images\S1_F_H_02_scrambled.png,1,happy,20,female,5,,242,off,1,0.5,0.75,0.5,0.802,3,241,1,1,1,0,0,0,0,5,,,,,,0,48,48,48,,,,,,,,,,,,,,,,,,,,,,,,,,,,,,,,,,,,,,,,,,,,,,,,,,,,,,,,,462.7643656,463.2669599000001,463.2669599000001,464.0195389999999,464.0195389999999,464.52226510000037,464.52226510000037,465.32752770000025,465.32752770000025,None,num_6,0.46500190000006114,465.32752770000025,None,happy,0,Happy,465.8163398000008,None,None,465.8163398000008,None,,,,,,,,,,,,,,,,,,,,,,,,,,,,,,,,,,,,,,,,,,,,,,,,,,,,,4,001,male,29,600,300,2022_Aug_03_0941,Experiment,2021.1.4,361.2729814736989,
images\S2_M_H_02.png,images\S2_M_H_02_scrambled.png,2,happy,20,male,5,,308,on,2,0.5,0.75,0.5,0.847,3,307,1,1,2,2,2,32,128,165,,,,,,0,49,49,49,,,,,,,,,,,,,,,,,,,,,,,,,,,,,,,,,,,,,,,,,,,,,,,,,,,,,,,,,465.92447580000044,466.42722370000047,466.42722370000047,467.18253150000055,467.18253150000055,467.6878880000004,467.6878880000004,468.5376809999998,468.5376809999998,None,num_6,0.4068213000000469,468.5376809999998,None,happy,0,Happy,468.9541410000007,None,None,468.9541410000007,None,,,,,,,,,,,,,,,,,,,,,,,,,,,,,,,,,,,,,,,,,,,,,,,,,,,,,4,001,male,29,600,300,2022_Aug_03_0941,Experiment,2021.1.4,361.2729814736989,
images\S6_M_H_03.png,images\S6_M_H_03_scrambled.png,6,happy,30,male,6,,153,off,1,0.5,0.75,0.5,0.894,3,152,1,1,1,0,0,0,0,6,,,,,,0,50,50,50,,,,,,,,,,,,,,,,,,,,,,,,,,,,,,,,,,,,,,,,,,,,,,,,,,,,,,,,,469.0401879000001,469.5428775999999,469.5428775999999,470.29542839999976,470.29542839999976,470.7980253000005,470.7980253000005,471.69777109999995,471.69777109999995,None,num_6,0.24656059999961144,471.69777109999995,None,happy,0,Happy,471.96434385000066,None,None,471.96434385000066,None,,,,,,,,,,,,,,,,,,,,,,,,,,,,,,,,,,,,,,,,,,,,,,,,,,,,,4,001,male,29,600,300,2022_Aug_03_0941,Experiment,2021.1.4,361.2729814736989,
images\S5_F_S_01.png,images\S5_F_S_01_scrambled.png,5,sad,-10,female,3,,328,on,2,0.5,0.75,0.5,0.774,3,327,1,1,1,2,2,32,128,163,,,,,,0,51,51,51,,,,,,,,,,,,,,,,,,,,,,,,,,,,,,,,,,,,,,,,,,,,,,,,,,,,,,,,,472.00871989999996,472.5114795999998,472.5114795999998,473.2639254000005,473.2639254000005,473.76931460000014,473.76931460000014,474.54697769999984,474.54697769999984,None,num_6,0.34142030000020895,474.54697769999984,None,happy,0,Sad,474.89402290000066,None,None,474.89402290000066,None,,,,,,,,,,,,,,,,,,,,,,,,,,,,,,,,,,,,,,,,,,,,,,,,,,,,,4,001,male,29,600,300,2022_Aug_03_0941,Experiment,2021.1.4,361.2729814736989,
images\blank.jpg,images\blank.jpg,none,none,none,none,0,,608,on,2,0.5,0.75,0.5,0.944,0,607,2,1,1,3,3,48,192,240,,,,,,0,52,52,52,,,,,,,,,,,,,,,,,,,,,,,,,,,,,,,,,,,,,,,,,,,,,,,,,,,,,,,,,474.98860909999985,475.49379659999977,475.49379659999977,476.24647600000026,476.24647600000026,476.74619859999984,476.74619859999984,477.6903738000001,477.6903738000001,477.6903738000001,None,,477.6903738000001,None,miss,0,,480.68941095000025,None,None,480.68941095000025,None,,,,,,,,,,,,,,,,,,,,,,,,,,,,,,,,,,,,,,,,,,,,,,,,,,,,,4,001,male,29,600,300,2022_Aug_03_0941,Experiment,2021.1.4,361.2729814736989,
images\S8_M_H_01.png,images\S8_M_H_01_scrambled.png,8,happy,10,male,4,,463,on,2,0.5,0.75,0.5,0.805,3,462,3,1,1,2,2,32,128,164,,,,,,0,53,53,53,,,,,,,,,,,,,,,,,,,,,,,,,,,,,,,,,,,,,,,,,,,,,,,,,,,,,,,,,480.83665519999977,481.3392087000002,481.3392087000002,482.09173569999984,482.09173569999984,482.59727139999995,482.59727139999995,483.4052364999998,483.4052364999998,None,num_6,0.3952588000001924,483.4052364999998,480.83665519999977,happy,0,Happy,483.8274634000001,None,None,483.8274634000001,None,,,,,,,,,,,,,,,,,,,,,,,,,,,,,,,,,,,,,,,,,,,,,,,,,,,,,4,001,male,29,600,300,2022_Aug_03_0941,Experiment,2021.1.4,361.2729814736989,
images\blank.jpg,images\blank.jpg,none,none,none,none,0,,621,on,2,0.5,0.75,0.5,0.827,0,620,4,1,1,3,3,48,192,240,,,,,,0,54,54,54,,,,,,,,,,,,,,,,,,,,,,,,,,,,,,,,,,,,,,,,,,,,,,,,,,,,,,,,,483.9164283,484.41882780000014,484.41882780000014,485.1713872999999,485.1713872999999,485.6739955000003,485.6739955000003,486.50149150000016,486.50149150000016,486.50149150000016,None,,486.50149150000016,None,miss,0,,489.5033656500003,None,None,489.5033656500003,None,,,,,,,,,,,,,,,,,,,,,,,,,,,,,,,,,,,,,,,,,,,,,,,,,,,,,4,001,male,29,600,300,2022_Aug_03_0941,Experiment,2021.1.4,361.2729814736989,
images\S4_M_H_02.png,images\S4_M_H_02_scrambled.png,4,happy,20,male,5,,500,off,1,0.5,0.75,0.5,0.796,3,499,1,1,1,0,0,0,0,5,,,,,,0,55,55,55,,,,,,,,,,,,,,,,,,,,,,,,,,,,,,,,,,,,,,,,,,,,,,,,,,,,,,,,,489.62023880000015,490.12260909999986,490.12260909999986,490.8723839000004,490.8723839000004,491.3778272999998,491.3778272999998,492.17752550000023,492.17752550000023,None,num_4,0.4148558000006233,492.17752550000023,489.62023880000015,sad,0,Happy,492.5996323000006,None,None,492.5996323000006,None,,,,,,,,,,,,,,,,,,,,,,,,,,,,,,,,,,,,,,,,,,,,,,,,,,,,,4,001,male,29,600,300,2022_Aug_03_0941,Experiment,2021.1.4,361.2729814736989,
images\S8_M_H_03.png,images\S8_M_H_03_scrambled.png,8,happy,30,male,6,,465,on,2,0.5,0.75,0.5,0.876,3,464,1,1,1,2,2,32,128,166,,,,,,0,56,56,56,,,,,,,,,,,,,,,,,,,,,,,,,,,,,,,,,,,,,,,,,,,,,,,,,,,,,,,,,492.64961159999984,493.1522693000006,493.1522693000006,493.9076382000003,493.9076382000003,494.4130034,494.4130034,495.2932415000005,495.2932415000005,None,num_6,0.6272140999999465,495.2932415000005,None,happy,0,Happy,495.9375324500006,None,None,495.9375324500006,None,,,,,,,,,,,,,,,,,,,,,,,,,,,,,,,,,,,,,,,,,,,,,,,,,,,,,4,001,male,29,600,300,2022_Aug_03_0941,Experiment,2021.1.4,361.2729814736989,
images\S2_M_H_02.png,images\S2_M_H_02_scrambled.png,2,happy,20,male,5,,68,on,2,0.5,0.75,0.5,0.816,3,67,2,1,1,2,2,32,128,165,,,,,,0,57,57,57,,,,,,,,,,,,,,,,,,,,,,,,,,,,,,,,,,,,,,,,,,,,,,,,,,,,,,,,,495.98467960000016,496.48744179999994,496.48744179999994,497.23987209999996,497.23987209999996,497.7425594000006,497.7425594000006,498.5617989000002,498.5617989000002,None,num_4,0.4465983000000051,498.5617989000002,None,sad,0,Happy,499.01711170000067,None,None,499.01711170000067,None,,,,,,,,,,,,,,,,,,,,,,,,,,,,,,,,,,,,,,,,,,,,,,,,,,,,,4,001,male,29,600,300,2022_Aug_03_0941,Experiment,2021.1.4,361.2729814736989,
images\S1_F_S_01.png,images\S1_F_S_01_scrambled.png,1,sad,-10,female,3,,544,on,2,0.5,0.75,0.5,0.916,3,543,3,1,1,2,2,32,128,163,,,,,,0,58,58,58,,,,,,,,,,,,,,,,,,,,,,,,,,,,,,,,,,,,,,,,,,,,,,,,,,,,,,,,,499.10318180000013,499.60860090000006,499.60860090000006,500.3583484999999,500.3583484999999,500.8609666000002,500.8609666000002,501.78296090000003,501.78296090000003,None,num_4,0.4574778000005608,501.78296090000003,None,sad,0,Sad,502.2662336000005,None,None,502.2662336000005,None,,,,,,,,,,,,,,,,,,,,,,,,,,,,,,,,,,,,,,,,,,,,,,,,,,,,,4,001,male,29,600,300,2022_Aug_03_0941,Experiment,2021.1.4,361.2729814736989,
images\S9_F_S_02.png,images\S9_F_S_02_scrambled.png,9,sad,-20,female,2,,53,off,1,0.5,0.75,0.5,0.871,3,52,1,1,1,0,0,0,0,2,,,,,,0,59,59,59,,,,,,,,,,,,,,,,,,,,,,,,,,,,,,,,,,,,,,,,,,,,,,,,,,,,,,,,,502.31884590000027,502.8215110000001,502.8215110000001,503.57405240000026,503.57405240000026,504.07679540000026,504.07679540000026,504.95150920000015,504.95150920000015,None,num_4,0.4570524999999179,504.95150920000015,None,sad,0,Sad,505.4347311500003,None,None,505.4347311500003,None,,,,,,,,,,,,,,,,,,,,,,,,,,,,,,,,,,,,,,,,,,,,,,,,,,,,,4,001,male,29,600,300,2022_Aug_03_0941,Experiment,2021.1.4,361.2729814736989,
images\S8_M_S_01.png,images\S8_M_S_01_scrambled.png,8,sad,-10,male,3,,466,on,2,0.5,0.75,0.5,0.758,3,465,1,1,1,2,2,32,128,163,,,,,,0,60,60,60,,,,,,,,,,,,,,,,,,,,,,,,,,,,,,,,,,,,,,,,,,,,,,,,,,,,,,,,,505.4873148000006,505.99276120000013,505.99276120000013,506.74527840000064,506.74527840000064,507.24794590000056,507.24794590000056,508.00599450000027,508.00599450000027,None,num_6,0.450416600000608,508.00599450000027,None,happy,0,Sad,508.4642606500003,None,None,508.4642606500003,None,,,,,,,,,,,,,,,,,,,,,,,,,,,,,,,,,,,,,,,,,,,,,,,,,,,,,4,001,male,29,600,300,2022_Aug_03_0941,Experiment,2021.1.4,361.2729814736989,
images\S5_F_H_02.png,images\S5_F_H_02_scrambled.png,5,happy,20,female,5,,206,on,2,0.5,0.75,0.5,0.786,3,205,2,1,1,2,2,32,128,165,,,,,,0,61,61,61,,,,,,,,,,,,,,,,,,,,,,,,,,,,,,,,,,,,,,,,,,,,,,,,,,,,,,,,,508.57248040000013,509.0779468999999,509.0779468999999,509.82766400000037,509.82766400000037,510.3331060999999,510.3331060999999,511.1244949000002,511.1244949000002,None,num_6,0.5799628999993729,511.1244949000002,None,happy,0,Happy,511.73273220000027,None,None,511.73273220000027,None,,,,,,,,,,,,,,,,,,,,,,,,,,,,,,,,,,,,,,,,,,,,,,,,,,,,,4,001,male,29,600,300,2022_Aug_03_0941,Experiment,2021.1.4,361.2729814736989,
images\S3_F_H_03.png,images\S3_F_H_03_scrambled.png,3,happy,30,female,6,,75,on,2,0.5,0.75,0.5,0.865,3,74,3,1,1,2,2,32,128,166,,,,,,0,62,62,62,,,,,,,,,,,,,,,,,,,,,,,,,,,,,,,,,,,,,,,,,,,,,,,,,,,,,,,,,511.7853887000001,512.2880684000002,512.2880684000002,513.0405478000002,513.0405478000002,513.5404061999998,513.5404061999998,514.4095988999998,514.4095988999998,None,num_6,0.6866948000006232,514.4095988999998,None,happy,0,Happy,515.1094025500006,None,None,515.1094025500006,None,,,,,,,,,,,,,,,,,,,,,,,,,,,,,,,,,,,,,,,,,,,,,,,,,,,,,4,001,male,29,600,300,2022_Aug_03_0941,Experiment,2021.1.4,361.2729814736989,
images\S6_M_S_01.png,images\S6_M_S_01_scrambled.png,6,sad,-10,male,3,,574,on,2,0.5,0.75,0.5,0.943,3,573,4,1,1,2,2,32,128,163,,,,,,0,63,63,63,,,,,,,,,,,,,,,,,,,,,,,,,,,,,,,,,,,,,,,,,,,,,,,,,,,,,,,,,515.1565687000002,515.6592179999998,515.6592179999998,516.4117602000006,516.4117602000006,516.9116051999999,516.9116051999999,517.8614263999998,517.8614263999998,None,num_4,0.26697859999967477,517.8614263999998,None,sad,0,Sad,518.1502288000005,None,None,518.1502288000005,None,,,,,,,,,,,,,,,,,,,,,,,,,,,,,,,,,,,,,,,,,,,,,,,,,,,,,4,001,male,29,600,300,2022_Aug_03_0941,Experiment,2021.1.4,361.2729814736989,
images\S1_F_S_01.png,images\S1_F_S_01_scrambled.png,1,sad,-10,female,3,,304,on,2,0.5,0.75,0.5,0.782,3,303,5,1,2,2,2,32,128,163,,,,,,0,64,64,64,,,,,,,,,,,,,,,,,,,,,,,,,,,,,,,,,,,,,,,,,,,,,,,,,,,,,,,,,518.2028532000004,518.7082983999999,518.7082983999999,519.4580315000003,519.4580315000003,519.9606908000005,519.9606908000005,520.7437457000005,520.7437457000005,None,num_4,0.32854110000062065,520.7437457000005,None,sad,0,Sad,521.0853302000002,None,None,521.0853302000002,None,,,,,,,,,,,,,,,,,,,,,,,,,,,,,,,,,,,,,,,,,,,,,,,,,,,,,4,001,male,29,600,300,2022_Aug_03_0941,Experiment,2021.1.4,361.2729814736989,
images\S9_F_S_01.png,images\S9_F_S_01_scrambled.png,9,sad,-10,female,3,,532,off,1,0.5,0.75,0.5,0.852,3,531,1,1,3,0,0,0,0,3,,,,,,0,65,65,65,,,,,,,,,,,,,,,,,,,,,,,,,,,,,,,,,,,,,,,,,,,,,,,,,,,,,,,,,521.1686156000005,521.6713607000002,521.6713607000002,522.4210103000005,522.4210103000005,522.9236065000005,522.9236065000005,523.7789570000004,523.7789570000004,None,num_6,0.4612876999999571,523.7789570000004,None,happy,0,Sad,524.2454719000004,None,None,524.2454719000004,None,,,,,,,,,,,,,,,,,,,,,,,,,,,,,,,,,,,,,,,,,,,,,,,,,,,,,4,001,male,29,600,300,2022_Aug_03_0941,Experiment,2021.1.4,361.2729814736989,
images\S4_M_S_03.png,images\S4_M_S_03_scrambled.png,4,sad,-30,male,1,,384,off,1,0.5,0.75,0.5,0.844,3,383,2,1,1,0,0,0,0,1,,,,,,0,66,66,66,,,,,,,,,,,,,,,,,,,,,,,,,,,,,,,,,,,,,,,,,,,,,,,,,,,,,,,,,524.3315063999999,524.8313775000006,524.8313775000006,525.5811874000001,525.5811874000001,526.0837409000005,526.0837409000005,526.9335507000005,526.9335507000005,None,num_4,0.3307123999993564,526.9335507000005,None,sad,0,Sad,527.2778855500001,None,None,527.2778855500001,None,,,,,,,,,,,,,,,,,,,,,,,,,,,,,,,,,,,,,,,,,,,,,,,,,,,,,4,001,male,29,600,300,2022_Aug_03_0941,Experiment,2021.1.4,361.2729814736989,
images\S1_F_H_01.png,images\S1_F_H_01_scrambled.png,1,happy,10,female,4,,61,on,2,0.5,0.75,0.5,0.779,3,60,1,1,1,2,2,32,128,164,,,,,,0,67,67,67,,,,,,,,,,,,,,,,,,,,,,,,,,,,,,,,,,,,,,,,,,,,,,,,,,,,,,,,,527.3722271000006,527.8777201000003,527.8777201000003,528.6302630999999,528.6302630999999,529.1328785000005,529.1328785000005,529.9160492000001,529.9160492000001,None,num_6,0.4763474999999744,529.9160492000001,None,happy,0,Happy,530.4102734500002,None,None,530.4102734500002,None,,,,,,,,,,,,,,,,,,,,,,,,,,,,,,,,,,,,,,,,,,,,,,,,,,,,,4,001,male,29,600,300,2022_Aug_03_0941,Experiment,2021.1.4,361.2729814736989,
images\S3_F_S_02.png,images\S3_F_S_02_scrambled.png,3,sad,-20,female,2,,437,on,2,0.5,0.75,0.5,0.816,3,436,2,1,1,2,2,32,128,162,,,,,,0,68,68,68,,,,,,,,,,,,,,,,,,,,,,,,,,,,,,,,,,,,,,,,,,,,,,,,,,,,,,,,,530.4962940000005,530.9989543000002,530.9989543000002,531.7542721999998,531.7542721999998,532.2568670999999,532.2568670999999,533.0788774000002,533.0788774000002,None,num_4,0.25744919999942795,533.0788774000002,None,sad,0,Sad,533.3510133000005,None,None,533.3510133000005,None,,,,,,,,,,,,,,,,,,,,,,,,,,,,,,,,,,,,,,,,,,,,,,,,,,,,,4,001,male,29,600,300,2022_Aug_03_0941,Experiment,2021.1.4,361.2729814736989,
images\S10_M_H_02.png,images\S10_M_H_02_scrambled.png,10,happy,20,male,5,,476,on,2,0.5,0.75,0.5,0.935,3,475,3,1,1,2,2,32,128,165,,,,,,0,69,69,69,,,,,,,,,,,,,,,,,,,,,,,,,,,,,,,,,,,,,,,,,,,,,,,,,,,,,,,,,533.3981816000005,533.9035886000001,533.9035886000001,534.6561824999999,534.6561824999999,535.1587857000004,535.1587857000004,536.0974567000003,536.0974567000003,None,num_6,0.5270112999996854,536.0974567000003,None,happy,0,Happy,536.6388892000001,None,None,536.6388892000001,None,,,,,,,,,,,,,,,,,,,,,,,,,,,,,,,,,,,,,,,,,,,,,,,,,,,,,4,001,male,29,600,300,2022_Aug_03_0941,Experiment,2021.1.4,361.2729814736989,
images\S9_F_S_01.png,images\S9_F_S_01_scrambled.png,9,sad,-10,female,3,,112,on,2,0.5,0.75,0.5,0.906,3,111,4,1,1,2,2,32,128,163,,,,,,0,70,70,70,,,,,,,,,,,,,,,,,,,,,,,,,,,,,,,,,,,,,,,,,,,,,,,,,,,,,,,,,536.6860674,537.1859224999998,537.1859224999998,537.9384547,537.9384547,538.4382999999998,538.4382999999998,539.3463780000002,539.3463780000002,None,num_4,0.39010010000038164,539.3463780000002,None,sad,0,Sad,539.7630419000008,None,None,539.7630419000008,None,,,,,,,,,,,,,,,,,,,,,,,,,,,,,,,,,,,,,,,,,,,,,,,,,,,,,4,001,male,29,600,300,2022_Aug_03_0941,Experiment,2021.1.4,361.2729814736989,
images\S2_M_S_02.png,images\S2_M_S_02_scrambled.png,2,sad,-20,male,2,,71,on,2,0.5,0.75,0.5,0.757,3,70,5,1,1,2,2,32,128,162,,,,,,0,71,71,71,,,,,,,,,,,,,,,,,,,,,,,,,,,,,,,,,,,,,,,,,,,,,,,,,,,,,,,,,539.8267626000006,540.3294161000003,540.3294161000003,541.0819554999998,541.0819554999998,541.5874496000006,541.5874496000006,542.3482164000006,542.3482164000006,None,num_4,0.38813889999983076,542.3482164000006,None,sad,0,Sad,542.7621134500002,None,None,542.7621134500002,None,,,,,,,,,,,,,,,,,,,,,,,,,,,,,,,,,,,,,,,,,,,,,,,,,,,,,4,001,male,29,600,300,2022_Aug_03_0941,Experiment,2021.1.4,361.2729814736989,
images\S3_F_S_03.png,images\S3_F_S_03_scrambled.png,3,sad,-30,female,1,,318,on,2,0.5,0.75,0.5,0.911,3,317,6,1,1,2,2,32,128,161,,,,,,0,72,72,72,,,,,,,,,,,,,,,,,,,,,,,,,,,,,,,,,,,,,,,,,,,,,,,,,,,,,,,,,542.8425093000005,543.3451436000005,543.3451436000005,544.0976878000001,544.0976878000001,544.6031270000003,544.6031270000003,545.5166718,545.5166718,None,num_4,0.34755180000047403,545.5166718,None,sad,0,Sad,545.8777249500008,None,None,545.8777249500008,None,,,,,,,,,,,,,,,,,,,,,,,,,,,,,,,,,,,,,,,,,,,,,,,,,,,,,4,001,male,29,600,300,2022_Aug_03_0941,Experiment,2021.1.4,361.2729814736989,
images\S4_M_S_03.png,images\S4_M_S_03_scrambled.png,4,sad,-30,male,1,,504,off,1,0.5,0.75,0.5,0.906,3,503,1,1,2,0,0,0,0,1,,,,,,0,73,73,73,,,,,,,,,,,,,,,,,,,,,,,,,,,,,,,,,,,,,,,,,,,,,,,,,,,,,,,,,545.9248925000002,546.4275459999999,546.4275459999999,547.1828982000006,547.1828982000006,547.6882775000004,547.6882775000004,548.5935218000004,548.5935218000004,None,num_4,0.3028260000000955,548.5935218000004,None,sad,0,Sad,548.91293485,None,None,548.91293485,None,,,,,,,,,,,,,,,,,,,,,,,,,,,,,,,,,,,,,,,,,,,,,,,,,,,,,4,001,male,29,600,300,2022_Aug_03_0941,Experiment,2021.1.4,361.2729814736989,
images\S2_M_H_03.png,images\S2_M_H_03_scrambled.png,2,happy,30,male,6,,129,off,1,0.5,0.75,0.5,0.934,3,128,2,1,1,0,0,0,0,6,,,,,,0,74,74,74,,,,,,,,,,,,,,,,,,,,,,,,,,,,,,,,,,,,,,,,,,,,,,,,,,,,,,,,,548.9628421000007,549.4682884000003,549.4682884000003,550.2236045999998,550.2236045999998,550.7234290000006,550.7234290000006,551.6592539000003,551.6592539000003,None,num_6,0.4210019000001921,551.6592539000003,None,happy,0,Happy,552.0980390500008,None,None,552.0980390500008,None,,,,,,,,,,,,,,,,,,,,,,,,,,,,,,,,,,,,,,,,,,,,,,,,,,,,,4,001,male,29,600,300,2022_Aug_03_0941,Experiment,2021.1.4,361.2729814736989,
images\S7_F_S_03.png,images\S7_F_S_03_scrambled.png,7,sad,-30,female,1,,402,off,1,0.5,0.75,0.5,0.918,3,401,3,1,1,0,0,0,0,1,,,,,,0,75,75,75,,,,,,,,,,,,,,,,,,,,,,,,,,,,,,,,,,,,,,,,,,,,,,,,,,,,,,,,,552.1451980000002,552.6478797,552.6478797,553.4031884000005,553.4031884000005,553.9085866000005,553.9085866000005,554.8333063,554.8333063,None,num_4,0.4389376999997694,554.8333063,None,sad,0,Sad,555.2887213500007,None,None,555.2887213500007,None,,,,,,,,,,,,,,,,,,,,,,,,,,,,,,,,,,,,,,,,,,,,,,,,,,,,,4,001,male,29,600,300,2022_Aug_03_0941,Experiment,2021.1.4,361.2729814736989,
images\S7_F_H_02.png,images\S7_F_H_02_scrambled.png,7,happy,20,female,5,,578,on,2,0.5,0.75,0.5,0.905,3,577,1,2,1,2,2,32,128,165,,,,,,0,76,76,76,,,,,,,,,,,,,,,,,,,,,,,,,,,,,,,,,,,,,,,,,,,,,,,,,,,,,,,,,555.3747633000003,555.8774862999999,555.8774862999999,556.6327752000007,556.6327752000007,557.1381528000002,557.1381528000002,558.0462062000006,558.0462062000006,None,num_6,0.5140126999995118,558.0462062000006,None,happy,0,Happy,558.5766166500007,None,None,558.5766166500007,None,,,,,,,,,,,,,,,,,,,,,,,,,,,,,,,,,,,,,,,,,,,,,,,,,,,,,4,001,male,29,600,300,2022_Aug_03_0941,Experiment,2021.1.4,361.2729814736989,
images\S1_F_S_01.png,images\S1_F_S_01_scrambled.png,1,sad,-10,female,3,,124,off,1,0.5,0.75,0.5,0.791,3,123,1,1,1,0,0,0,0,3,,,,,,0,77,77,77,,,,,,,,,,,,,,,,,,,,,,,,,,,,,,,,,,,,,,,,,,,,,,,,,,,,,,,,,558.6237621999999,559.1264216999998,559.1264216999998,559.8761574,559.8761574,560.3760450999998,560.3760450999998,561.1730420000004,561.1730420000004,None,num_4,0.3712280000008832,561.1730420000004,None,sad,0,Sad,561.5562320000005,None,None,561.5562320000005,None,,,,,,,,,,,,,,,,,,,,,,,,,,,,,,,,,,,,,,,,,,,,,,,,,,,,,4,001,male,29,600,300,2022_Aug_03_0941,Experiment,2021.1.4,361.2729814736989,
images\S3_F_H_02.png,images\S3_F_H_02_scrambled.png,3,happy,20,female,5,,254,off,1,0.5,0.75,0.5,0.772,3,253,2,1,1,0,0,0,0,5,,,,,,0,78,78,78,,,,,,,,,,,,,,,,,,,,,,,,,,,,,,,,,,,,,,,,,,,,,,,,,,,,,,,,,561.6090697999998,562.1143766000005,562.1143766000005,562.8669254000006,562.8669254000006,563.3667801000001,563.3667801000001,564.1416481000006,564.1416481000006,None,num_6,0.2907461999993757,564.1416481000006,None,happy,0,Happy,564.4470022000002,None,None,564.4470022000002,None,,,,,,,,,,,,,,,,,,,,,,,,,,,,,,,,,,,,,,,,,,,,,,,,,,,,,4,001,male,29,600,300,2022_Aug_03_0941,Experiment,2021.1.4,361.2729814736989,
images\S6_M_H_01.png,images\S6_M_H_01_scrambled.png,6,happy,10,male,4,,571,on,2,0.5,0.75,0.5,0.849,3,570,1,1,1,2,2,32,128,164,,,,,,0,79,79,79,,,,,,,,,,,,,,,,,,,,,,,,,,,,,,,,,,,,,,,,,,,,,,,,,,,,,,,,,564.4941863000004,564.9967987999999,564.9967987999999,565.7466100000001,565.7466100000001,566.2464225000003,566.2464225000003,567.0989687000001,567.0989687000001,None,num_6,0.3733228999999483,567.0989687000001,None,happy,0,Happy,567.49053955,None,None,567.49053955,None,,,,,,,,,,,,,,,,,,,,,,,,,,,,,,,,,,,,,,,,,,,,,,,,,,,,,4,001,male,29,600,300,2022_Aug_03_0941,Experiment,2021.1.4,361.2729814736989,
images\S4_M_H_01.png,images\S4_M_H_01_scrambled.png,4,happy,10,male,4,,379,off,1,0.5,0.75,0.5,0.844,3,378,1,1,2,0,0,0,0,4,,,,,,0,80,80,80,,,,,,,,,,,,,,,,,,,,,,,,,,,,,,,,,,,,,,,,,,,,,,,,,,,,,,,,,567.5404663999998,568.0431251,568.0431251,568.7928683,568.7928683,569.2927051000006,569.2927051000006,570.1396734,570.1396734,None,num_4,0.3645990000004531,570.1396734,None,sad,0,Happy,570.5117996000006,None,None,570.5117996000006,None,,,,,,,,,,,,,,,,,,,,,,,,,,,,,,,,,,,,,,,,,,,,,,,,,,,,,4,001,male,29,600,300,2022_Aug_03_0941,Experiment,2021.1.4,361.2729814736989,
images\S8_M_S_02.png,images\S8_M_S_02_scrambled.png,8,sad,-20,male,2,,227,on,2,0.5,0.75,0.5,0.847,3,226,1,1,1,2,2,32,128,162,,,,,,0,81,81,81,,,,,,,,,,,,,,,,,,,,,,,,,,,,,,,,,,,,,,,,,,,,,,,,,,,,,,,,,570.5589897,571.0644044999999,571.0644044999999,571.8169649000001,571.8169649000001,572.3167664000002,572.3167664000002,573.1666611999999,573.1666611999999,None,num_4,0.41776240000035614,573.1666611999999,None,sad,0,Sad,573.5997528000004,None,None,573.5997528000004,None,,,,,,,,,,,,,,,,,,,,,,,,,,,,,,,,,,,,,,,,,,,,,,,,,,,,,4,001,male,29,600,300,2022_Aug_03_0941,Experiment,2021.1.4,361.2729814736989,
images\S5_F_S_01.png,images\S5_F_S_01_scrambled.png,5,sad,-10,female,3,,268,off,1,0.5,0.75,0.5,0.792,3,267,1,1,1,0,0,0,0,3,,,,,,0,82,82,82,,,,,,,,,,,,,,,,,,,,,,,,,,,,,,,,,,,,,,,,,,,,,,,,,,,,,,,,,573.6469283000006,574.1467702,574.1467702,574.9022187,574.9022187,575.4047771000005,575.4047771000005,576.1989480000002,576.1989480000002,None,num_6,0.23361089999980322,576.1989480000002,None,happy,0,Sad,576.4406487500002,None,None,576.4406487500002,None,,,,,,,,,,,,,,,,,,,,,,,,,,,,,,,,,,,,,,,,,,,,,,,,,,,,,4,001,male,29,600,300,2022_Aug_03_0941,Experiment,2021.1.4,361.2729814736989,
images\S1_F_H_01.png,images\S1_F_H_01_scrambled.png,1,happy,10,female,4,,541,on,2,0.5,0.75,0.5,0.919,3,540,1,1,1,2,2,32,128,164,,,,,,0,83,83,83,,,,,,,,,,,,,,,,,,,,,,,,,,,,,,,,,,,,,,,,,,,,,,,,,,,,,,,,,576.496048,576.9986623000004,576.9986623000004,577.7513396000004,577.7513396000004,578.2538688000004,578.2538688000004,579.1785860999998,579.1785860999998,None,num_6,0.29379530000005616,579.1785860999998,None,happy,0,Happy,579.4868300000004,None,None,579.4868300000004,None,,,,,,,,,,,,,,,,,,,,,,,,,,,,,,,,,,,,,,,,,,,,,,,,,,,,,4,001,male,29,600,300,2022_Aug_03_0941,Experiment,2021.1.4,361.2729814736989,
images\S10_M_S_03.png,images\S10_M_S_03_scrambled.png,10,sad,-30,male,1,,60,off,1,0.5,0.75,0.5,0.794,3,59,1,1,1,0,0,0,0,1,,,,,,0,84,84,84,,,,,,,,,,,,,,,,,,,,,,,,,,,,,,,,,,,,,,,,,,,,,,,,,,,,,,,,,579.5701028000003,580.0727938999999,580.0727938999999,580.8280752000001,580.8280752000001,581.3306827000006,581.3306827000006,582.1277084000003,582.1277084000003,None,num_4,0.2729461999997511,582.1277084000003,None,sad,0,Sad,582.4193570000001,None,None,582.4193570000001,None,,,,,,,,,,,,,,,,,,,,,,,,,,,,,,,,,,,,,,,,,,,,,,,,,,,,,4,001,male,29,600,300,2022_Aug_03_0941,Experiment,2021.1.4,361.2729814736989,
images\S5_F_S_02.png,images\S5_F_S_02_scrambled.png,5,sad,-20,female,2,,269,off,1,0.5,0.75,0.5,0.768,3,268,2,1,1,0,0,0,0,2,,,,,,0,85,85,85,,,,,,,,,,,,,,,,,,,,,,,,,,,,,,,,,,,,,,,,,,,,,,,,,,,,,,,,,582.4719925999998,582.9746308000003,582.9746308000003,583.7272933000004,583.7272933000004,584.2326253000001,584.2326253000001,585.0074060000006,585.0074060000006,None,num_6,0.3528131000002759,585.0074060000006,None,happy,0,Sad,585.3655832000002,None,None,585.3655832000002,None,,,,,,,,,,,,,,,,,,,,,,,,,,,,,,,,,,,,,,,,,,,,,,,,,,,,,4,001,male,29,600,300,2022_Aug_03_0941,Experiment,2021.1.4,361.2729814736989,
images\S10_M_S_01.png,images\S10_M_S_01_scrambled.png,10,sad,-10,male,3,,538,off,1,0.5,0.75,0.5,0.823,3,537,3,1,1,0,0,0,0,3,,,,,,0,86,86,86,,,,,,,,,,,,,,,,,,,,,,,,,,,,,,,,,,,,,,,,,,,,,,,,,,,,,,,,,585.4516260999999,585.9570865000005,585.9570865000005,586.7068261000004,586.7068261000004,587.2066832999999,587.2066832999999,588.0342009000005,588.0342009000005,None,num_6,0.3741991999995662,588.0342009000005,None,happy,0,Sad,588.4173842000007,None,None,588.4173842000007,None,,,,,,,,,,,,,,,,,,,,,,,,,,,,,,,,,,,,,,,,,,,,,,,,,,,,,4,001,male,29,600,300,2022_Aug_03_0941,Experiment,2021.1.4,361.2729814736989,
images\S5_F_H_02.png,images\S5_F_H_02_scrambled.png,5,happy,20,female,5,,266,off,1,0.5,0.75,0.5,0.828,3,265,4,1,1,0,0,0,0,5,,,,,,0,87,87,87,,,,,,,,,,,,,,,,,,,,,,,,,,,,,,,,,,,,,,,,,,,,,,,,,,,,,,,,,588.4673700000003,588.9699866999999,588.9699866999999,589.7226190000001,589.7226190000001,590.2279957999999,590.2279957999999,591.0582697999998,591.0582697999998,None,num_6,0.37408550000054674,591.0582697999998,None,happy,0,Happy,591.4498289500007,None,None,591.4498289500007,None,,,,,,,,,,,,,,,,,,,,,,,,,,,,,,,,,,,,,,,,,,,,,,,,,,,,,4,001,male,29,600,300,2022_Aug_03_0941,Experiment,2021.1.4,361.2729814736989,
images\S10_M_S_01.png,images\S10_M_S_01_scrambled.png,10,sad,-10,male,3,,358,on,2,0.5,0.75,0.5,0.796,3,357,1,1,1,2,2,32,128,163,,,,,,0,88,88,88,,,,,,,,,,,,,,,,,,,,,,,,,,,,,,,,,,,,,,,,,,,,,,,,,,,,,,,,,591.4971363000004,591.9996296999998,591.9996296999998,592.7549503,592.7549503,593.2576322000004,593.2576322000004,594.0601106000004,594.0601106000004,None,num_6,0.300199899999825,594.0601106000004,None,happy,0,Sad,594.3711455,None,None,594.3711455,None,,,,,,,,,,,,,,,,,,,,,,,,,,,,,,,,,,,,,,,,,,,,,,,,,,,,,4,001,male,29,600,300,2022_Aug_03_0941,Experiment,2021.1.4,361.2729814736989,
images\S4_M_S_03.png,images\S4_M_S_03_scrambled.png,4,sad,-30,male,1,,264,off,1,0.5,0.75,0.5,0.844,3,263,1,1,1,0,0,0,0,1,,,,,,0,89,89,89,,,,,,,,,,,,,,,,,,,,,,,,,,,,,,,,,,,,,,,,,,,,,,,,,,,,,,,,,594.4238632000006,594.9237155999999,594.9237155999999,595.6734912000002,595.6734912000002,596.1789177,596.1789177,597.0286675000007,597.0286675000007,None,num_4,0.31573980000030133,597.0286675000007,None,sad,0,Sad,597.3620226500004,None,None,597.3620226500004,None,,,,,,,,,,,,,,,,,,,,,,,,,,,,,,,,,,,,,,,,,,,,,,,,,,,,,4,001,male,29,600,300,2022_Aug_03_0941,Experiment,2021.1.4,361.2729814736989,
images\S7_F_S_02.png,images\S7_F_S_02_scrambled.png,7,sad,-20,female,2,,101,on,2,0.5,0.75,0.5,0.775,3,100,1,1,1,2,2,32,128,162,,,,,,0,90,90,90,,,,,,,,,,,,,,,,,,,,,,,,,,,,,,,,,,,,,,,,,,,,,,,,,,,,,,,,,597.4701673999998,597.9728408000001,597.9728408000001,598.7225390000003,598.7225390000003,599.2279939999999,599.2279939999999,600.0054971999998,600.0054971999998,None,num_6,0.4027013999993869,600.0054971999998,None,happy,0,Sad,600.4137403000002,None,None,600.4137403000002,None,,,,,,,,,,,,,,,,,,,,,,,,,,,,,,,,,,,,,,,,,,,,,,,,,,,,,4,001,male,29,600,300,2022_Aug_03_0941,Experiment,2021.1.4,361.2729814736989,
images\S8_M_H_01.png,images\S8_M_H_01_scrambled.png,8,happy,10,male,4,,283,off,1,0.5,0.75,0.5,0.885,3,282,1,1,1,0,0,0,0,4,,,,,,0,91,91,91,,,,,,,,,,,,,,,,,,,,,,,,,,,,,,,,,,,,,,,,,,,,,,,,,,,,,,,,,600.4636885999998,600.9691023000005,600.9691023000005,601.7244344999999,601.7244344999999,602.2271479999999,602.2271479999999,603.1184555,603.1184555,None,num_4,0.8097275999998601,603.1184555,None,sad,0,Happy,603.9348636000002,None,None,603.9348636000002,None,,,,,,,,,,,,,,,,,,,,,,,,,,,,,,,,,,,,,,,,,,,,,,,,,,,,,4,001,male,29,600,300,2022_Aug_03_0941,Experiment,2021.1.4,361.2729814736989,
images\S9_F_H_02.png,images\S9_F_H_02_scrambled.png,9,happy,20,female,5,,230,on,2,0.5,0.75,0.5,0.828,3,229,1,1,1,2,2,32,128,165,,,,,,0,92,92,92,,,,,,,,,,,,,,,,,,,,,,,,,,,,,,,,,,,,,,,,,,,,,,,,,,,,,,,,,603.9820445000005,604.4875370999998,604.4875370999998,605.2372224999999,605.2372224999999,605.7427057000004,605.7427057000004,606.5729762000001,606.5729762000001,None,num_6,0.5394051000002946,606.5729762000001,None,happy,0,Happy,607.1227850000001,None,None,607.1227850000001,None,,,,,,,,,,,,,,,,,,,,,,,,,,,,,,,,,,,,,,,,,,,,,,,,,,,,,4,001,male,29,600,300,2022_Aug_03_0941,Experiment,2021.1.4,361.2729814736989,
images\S1_F_H_01.png,images\S1_F_H_01_scrambled.png,1,happy,10,female,4,,1,off,1,0.5,0.75,0.5,0.759,3,0,1,1,1,0,0,0,0,4,,,,,,0,93,93,93,,,,,,,,,,,,,,,,,,,,,,,,,,,,,,,,,,,,,,,,,,,,,,,,,,,,,,,,,607.1699502000001,607.6726398000001,607.6726398000001,608.4279587000001,608.4279587000001,608.9305820999998,608.9305820999998,609.6913948000001,609.6913948000001,None,num_6,0.4850704999998925,609.6913948000001,None,happy,0,Happy,610.1941961000006,None,None,610.1941961000006,None,,,,,,,,,,,,,,,,,,,,,,,,,,,,,,,,,,,,,,,,,,,,,,,,,,,,,4,001,male,29,600,300,2022_Aug_03_0941,Experiment,2021.1.4,361.2729814736989,
images\S5_F_H_02.png,images\S5_F_H_02_scrambled.png,5,happy,20,female,5,,386,off,1,0.5,0.75,0.5,0.895,3,385,2,1,1,0,0,0,0,5,,,,,,0,94,94,94,,,,,,,,,,,,,,,,,,,,,,,,,,,,,,,,,,,,,,,,,,,,,,,,,,,,,,,,,610.2467802000001,610.7494297000003,610.7494297000003,611.5019782999998,611.5019782999998,612.0045982000001,612.0045982000001,612.9016536999998,612.9016536999998,None,num_6,0.4265717999996923,612.9016536999998,None,happy,0,Happy,613.3403022000008,None,None,613.3403022000008,None,,,,,,,,,,,,,,,,,,,,,,,,,,,,,,,,,,,,,,,,,,,,,,,,,,,,,4,001,male,29,600,300,2022_Aug_03_0941,Experiment,2021.1.4,361.2729814736989,
images\S1_F_H_02.png,images\S1_F_H_02_scrambled.png,1,happy,20,female,5,,62,on,2,0.5,0.75,0.5,0.788,3,61,1,1,2,2,2,32,128,165,,,,,,0,95,95,95,,,,,,,,,,,,,,,,,,,,,,,,,,,,,,,,,,,,,,,,,,,,,,,,,,,,,,,,,613.3874894,613.8929177,613.8929177,614.6454401999999,614.6454401999999,615.1480977000001,615.1480977000001,615.9395008000001,615.9395008000001,None,num_6,0.7009089000002859,615.9395008000001,None,happy,0,Happy,616.6503958,None,None,616.6503958,None,,,,,,,,,,,,,,,,,,,,,,,,,,,,,,,,,,,,,,,,,,,,,,,,,,,,,4,001,male,29,600,300,2022_Aug_03_0941,Experiment,2021.1.4,361.2729814736989,
images\S3_F_S_03.png,images\S3_F_S_03_scrambled.png,3,sad,-30,female,1,,498,off,1,0.5,0.75,0.5,0.798,3,497,1,1,1,0,0,0,0,1,,,,,,0,96,96,96,,,,,,,,,,,,,,,,,,,,,,,,,,,,,,,,,,,,,,,,,,,,,,,,,,,,,,,,,616.7003555000001,617.2030195000007,617.2030195000007,617.9527582999999,617.9527582999999,618.4581914999999,618.4581914999999,619.2579599999999,619.2579599999999,None,num_4,0.5903226000000359,619.2579599999999,None,sad,0,Sad,619.8633175000001,None,None,619.8633175000001,None,,,,,,,,,,,,,,,,,,,,,,,,,,,,,,,,,,,,,,,,,,,,,,,,,,,,,4,001,male,29,600,300,2022_Aug_03_0941,Experiment,2021.1.4,361.2729814736989,
images\S4_M_S_02.png,images\S4_M_S_02_scrambled.png,4,sad,-20,male,2,,503,off,1,0.5,0.75,0.5,0.914,3,502,2,1,1,0,0,0,0,2,,,,,,0,97,97,97,,,,,,,,,,,,,,,,,,,,,,,,,,,,,,,,,,,,,,,,,,,,,,,,,,,,,,,,,619.9132628000007,620.4186884000001,620.4186884000001,621.1684333000003,621.1684333000003,621.6710822000005,621.6710822000005,622.5875427999999,622.5875427999999,None,num_4,1.9646812000000864,622.5875427999999,None,sad,0,Sad,624.5674106000002,None,None,624.5674106000002,None,,,,,,,,,,,,,,,,,,,,,,,,,,,,,,,,,,,,,,,,,,,,,,,,,,,,,4,001,male,29,600,300,2022_Aug_03_0941,Experiment,2021.1.4,361.2729814736989,
images\S1_F_H_02.png,images\S1_F_H_02_scrambled.png,1,happy,20,female,5,,482,off,1,0.5,0.75,0.5,0.886,3,481,3,1,1,0,0,0,0,5,,,,,,0,98,98,98,,,,,,,,,,,,,,,,,,,,,,,,,,,,,,,,,,,,,,,,,,,,,,,,,,,,,,,,,624.6145932,625.1173502000001,625.1173502000001,625.8725969000006,625.8725969000006,626.3724081999999,626.3724081999999,627.2638037000006,627.2638037000006,None,num_6,0.3764352999996845,627.2638037000006,None,happy,0,Happy,627.6525779,None,None,627.6525779,None,,,,,,,,,,,,,,,,,,,,,,,,,,,,,,,,,,,,,,,,,,,,,,,,,,,,,4,001,male,29,600,300,2022_Aug_03_0941,Experiment,2021.1.4,361.2729814736989,
images\S7_F_S_01.png,images\S7_F_S_01_scrambled.png,7,sad,-10,female,3,,280,off,1,0.5,0.75,0.5,0.918,3,279,4,1,1,0,0,0,0,3,,,,,,0,99,99,99,,,,,,,,,,,,,,,,,,,,,,,,,,,,,,,,,,,,,,,,,,,,,,,,,,,,,,,,,627.7358482999998,628.2357005000003,628.2357005000003,628.9854801000001,628.9854801000001,629.4853772000006,629.4853772000006,630.4073527999999,630.4073527999999,None,num_4,0.5449807999993936,630.4073527999999,None,sad,0,Sad,630.9626509000005,None,None,630.9626509000005,None,,,,,,,,,,,,,,,,,,,,,,,,,,,,,,,,,,,,,,,,,,,,,,,,,,,,,4,001,male,29,600,300,2022_Aug_03_0941,Experiment,2021.1.4,361.2729814736989,
images\S6_M_H_03.png,images\S6_M_H_03_scrambled.png,6,happy,30,male,6,,393,off,1,0.5,0.75,0.5,0.796,3,392,5,1,1,0,0,0,0,6,,,,,,0,100,100,100,,,,,,,,,,,,,,,,,,,,,,,,,,,,,,,,,,,,,,,,,,,,,,,,,,,,,,,,,631.0098487000005,631.5125591000005,631.5125591000005,632.2678561000002,632.2678561000002,632.7704303999999,632.7704303999999,633.5729793,633.5729793,None,num_6,0.33932180000010703,633.5729793,None,happy,0,Happy,633.9228749,None,None,633.9228749,None,,,,,,,,,,,,,,,,,,,,,,,,,,,,,,,,,,,,,,,,,,,,,,,,,,,,,4,001,male,29,600,300,2022_Aug_03_0941,Experiment,2021.1.4,361.2729814736989,
images\S2_M_H_03.png,images\S2_M_H_03_scrambled.png,2,happy,30,male,6,,189,on,2,0.5,0.75,0.5,0.914,3,188,1,1,2,2,2,32,128,166,,,,,,0,101,101,101,,,,,,,,,,,,,,,,,,,,,,,,,,,,,,,,,,,,,,,,,,,,,,,,,,,,,,,,,633.9700483000006,634.4699099,634.4699099,635.2225282999998,635.2225282999998,635.7250800000002,635.7250800000002,636.6415748,636.6415748,None,num_6,0.46274739999989833,636.6415748,None,happy,0,Happy,637.1220125500001,None,None,637.1220125500001,None,,,,,,,,,,,,,,,,,,,,,,,,,,,,,,,,,,,,,,,,,,,,,,,,,,,,,4,001,male,29,600,300,2022_Aug_03_0941,Experiment,2021.1.4,361.2729814736989,
images\blank.jpg,images\blank.jpg,none,none,none,none,0,,645,on,2,0.5,0.75,0.5,0.861,0,644,2,1,1,3,3,48,192,240,,,,,,0,102,102,102,,,,,,,,,,,,,,,,,,,,,,,,,,,,,,,,,,,,,,,,,,,,,,,,,,,,,,,,,637.2081735000002,637.7105762000001,637.7105762000001,638.4631530000006,638.4631530000006,638.9685656000001,638.9685656000001,639.8322606000002,639.8322606000002,639.8322606000002,None,,639.8322606000002,None,miss,0,,642.8312662500006,None,None,642.8312662500006,None,,,,,,,,,,,,,,,,,,,,,,,,,,,,,,,,,,,,,,,,,,,,,,,,,,,,,4,001,male,29,600,300,2022_Aug_03_0941,Experiment,2021.1.4,361.2729814736989,
images\S3_F_H_01.png,images\S3_F_H_01_scrambled.png,3,happy,10,female,4,,193,on,2,0.5,0.75,0.5,0.766,3,192,3,1,1,2,2,32,128,164,,,,,,0,103,103,103,,,,,,,,,,,,,,,,,,,,,,,,,,,,,,,,,,,,,,,,,,,,,,,,,,,,,,,,,642.9509478999998,643.4504587000001,643.4504587000001,644.2030602000004,644.2030602000004,644.7084553000004,644.7084553000004,645.4748381999998,645.4748381999998,None,num_6,0.31745150000006106,645.4748381999998,642.9509478999998,happy,0,Happy,645.8167529000003,None,None,645.8167529000003,None,,,,,,,,,,,,,,,,,,,,,,,,,,,,,,,,,,,,,,,,,,,,,,,,,,,,,4,001,male,29,600,300,2022_Aug_03_0941,Experiment,2021.1.4,361.2729814736989,
images\S7_F_S_02.png,images\S7_F_S_02_scrambled.png,7,sad,-20,female,2,,341,on,2,0.5,0.75,0.5,0.886,3,340,4,1,1,2,2,32,128,162,,,,,,0,104,104,104,,,,,,,,,,,,,,,,,,,,,,,,,,,,,,,,,,,,,,,,,,,,,,,,,,,,,,,,,645.8691683000006,646.3718133000002,646.3718133000002,647.1243619000006,647.1243619000006,647.6271026000004,647.6271026000004,648.5183980000002,648.5183980000002,None,num_4,0.3539092000000892,648.5183980000002,None,sad,0,Sad,648.88496545,None,None,648.88496545,None,,,,,,,,,,,,,,,,,,,,,,,,,,,,,,,,,,,,,,,,,,,,,,,,,,,,,4,001,male,29,600,300,2022_Aug_03_0941,Experiment,2021.1.4,361.2729814736989,
images\blank.jpg,images\blank.jpg,none,none,none,none,0,,617,on,2,0.5,0.75,0.5,0.822,0,616,5,1,1,3,3,48,192,240,,,,,,0,105,105,105,,,,,,,,,,,,,,,,,,,,,,,,,,,,,,,,,,,,,,,,,,,,,,,,,,,,,,,,,648.9683898000003,649.4736463999998,649.4736463999998,650.2233843000004,650.2233843000004,650.7261624000002,650.7261624000002,651.5508202000001,651.5508202000001,651.5508202000001,None,,651.5508202000001,None,miss,0,,654.55263005,None,None,654.55263005,None,,,,,,,,,,,,,,,,,,,,,,,,,,,,,,,,,,,,,,,,,,,,,,,,,,,,,4,001,male,29,600,300,2022_Aug_03_0941,Experiment,2021.1.4,361.2729814736989,
images\S6_M_S_01.png,images\S6_M_S_01_scrambled.png,6,sad,-10,male,3,,34,off,1,0.5,0.75,0.5,0.812,3,33,1,1,1,0,0,0,0,3,,,,,,0,106,106,106,,,,,,,,,,,,,,,,,,,,,,,,,,,,,,,,,,,,,,,,,,,,,,,,,,,,,,,,,654.6638756000002,655.1691168000007,655.1691168000007,655.9217210000006,655.9217210000006,656.4271804,656.4271804,657.2434905,657.2434905,None,num_4,0.31682249999994383,657.2434905,654.6638756000002,sad,0,Sad,657.5711641000004,None,None,657.5711641000004,None,,,,,,,,,,,,,,,,,,,,,,,,,,,,,,,,,,,,,,,,,,,,,,,,,,,,,4,001,male,29,600,300,2022_Aug_03_0941,Experiment,2021.1.4,361.2729814736989,
images\S9_F_S_03.png,images\S9_F_S_03_scrambled.png,9,sad,-30,female,1,,414,off,1,0.5,0.75,0.5,0.81,3,413,2,1,1,0,0,0,0,1,,,,,,0,107,107,107,,,,,,,,,,,,,,,,,,,,,,,,,,,,,,,,,,,,,,,,,,,,,,,,,,,,,,,,,657.6183354000004,658.1181796999999,658.1181796999999,658.8735323000001,658.8735323000001,659.3789352000003,659.3789352000003,660.1925941999998,660.1925941999998,None,num_4,0.4156846999994741,660.1925941999998,None,sad,0,Sad,660.6202368,None,None,660.6202368,None,,,,,,,,,,,,,,,,,,,,,,,,,,,,,,,,,,,,,,,,,,,,,,,,,,,,,4,001,male,29,600,300,2022_Aug_03_0941,Experiment,2021.1.4,361.2729814736989,
images\S6_M_H_02.png,images\S6_M_H_02_scrambled.png,6,happy,20,male,5,,152,off,1,0.5,0.75,0.5,0.832,3,151,3,1,1,0,0,0,0,5,,,,,,0,108,108,108,,,,,,,,,,,,,,,,,,,,,,,,,,,,,,,,,,,,,,,,,,,,,,,,,,,,,,,,,660.7284895000003,661.2283415000002,661.2283415000002,661.9809002000002,661.9809002000002,662.4864126000002,662.4864126000002,663.3193523999998,663.3193523999998,None,num_6,0.3370978999992076,663.3193523999998,None,happy,0,Happy,663.6805285500002,None,None,663.6805285500002,None,,,,,,,,,,,,,,,,,,,,,,,,,,,,,,,,,,,,,,,,,,,,,,,,,,,,,4,001,male,29,600,300,2022_Aug_03_0941,Experiment,2021.1.4,361.2729814736989,
images\S6_M_S_03.png,images\S6_M_S_03_scrambled.png,6,sad,-30,male,1,,516,off,1,0.5,0.75,0.5,0.784,3,515,4,2,1,0,0,0,0,1,,,,,,0,109,109,109,,,,,,,,,,,,,,,,,,,,,,,,,,,,,,,,,,,,,,,,,,,,,,,,,,,,,,,,,663.7386200000001,664.2385217000001,664.2385217000001,664.9882803999999,664.9882803999999,665.4909563000001,665.4909563000001,666.2768163999999,666.2768163999999,None,num_4,0.33950389999972685,666.2768163999999,None,sad,0,Sad,666.6378907000009,None,None,666.6378907000009,None,,,,,,,,,,,,,,,,,,,,,,,,,,,,,,,,,,,,,,,,,,,,,,,,,,,,,4,001,male,29,600,300,2022_Aug_03_0941,Experiment,2021.1.4,361.2729814736989,
images\S1_F_S_03.png,images\S1_F_S_03_scrambled.png,1,sad,-30,female,1,,246,off,1,0.5,0.75,0.5,0.837,3,245,5,1,2,0,0,0,0,1,,,,,,0,110,110,110,,,,,,,,,,,,,,,,,,,,,,,,,,,,,,,,,,,,,,,,,,,,,,,,,,,,,,,,,666.6905428999999,667.1932115999998,667.1932115999998,667.9457652000001,667.9457652000001,668.4483832000005,668.4483832000005,669.2925818000003,669.2925818000003,None,num_4,0.29179130000011355,669.2925818000003,None,sad,0,Sad,669.6037029000003,None,None,669.6037029000003,None,,,,,,,,,,,,,,,,,,,,,,,,,,,,,,,,,,,,,,,,,,,,,,,,,,,,,4,001,male,29,600,300,2022_Aug_03_0941,Experiment,2021.1.4,361.2729814736989,
images\S8_M_S_02.png,images\S8_M_S_02_scrambled.png,8,sad,-20,male,2,,287,off,1,0.5,0.75,0.5,0.854,3,286,6,1,1,0,0,0,0,2,,,,,,0,111,111,111,,,,,,,,,,,,,,,,,,,,,,,,,,,,,,,,,,,,,,,,,,,,,,,,,,,,,,,,,669.6563096999998,670.1589258000004,670.1589258000004,670.9086950999999,670.9086950999999,671.4085365000001,671.4085365000001,672.2667486999999,672.2667486999999,None,num_4,0.3654207999998107,672.2667486999999,None,sad,0,Sad,672.6498707500004,None,None,672.6498707500004,None,,,,,,,,,,,,,,,,,,,,,,,,,,,,,,,,,,,,,,,,,,,,,,,,,,,,,4,001,male,29,600,300,2022_Aug_03_0941,Experiment,2021.1.4,361.2729814736989,
images\S7_F_H_02.png,images\S7_F_H_02_scrambled.png,7,happy,20,female,5,,98,on,2,0.5,0.75,0.5,0.868,3,97,1,1,1,2,2,32,128,165,,,,,,0,112,112,112,,,,,,,,,,,,,,,,,,,,,,,,,,,,,,,,,,,,,,,,,,,,,,,,,,,,,,,,,672.6970453000004,673.1969104,673.1969104,673.9466470000007,673.9466470000007,674.4521888999998,674.4521888999998,675.3240033000002,675.3240033000002,None,num_6,0.5562665000006746,675.3240033000002,None,happy,0,Happy,675.8905370000008,None,None,675.8905370000008,None,,,,,,,,,,,,,,,,,,,,,,,,,,,,,,,,,,,,,,,,,,,,,,,,,,,,,4,001,male,29,600,300,2022_Aug_03_0941,Experiment,2021.1.4,361.2729814736989,
images\S4_M_H_01.png,images\S4_M_H_01_scrambled.png,4,happy,10,male,4,,559,on,2,0.5,0.75,0.5,0.95,3,558,2,1,1,2,2,32,128,164,,,,,,0,113,113,113,,,,,,,,,,,,,,,,,,,,,,,,,,,,,,,,,,,,,,,,,,,,,,,,,,,,,,,,,675.9404900999998,676.4460054000001,676.4460054000001,677.1984326000002,677.1984326000002,677.6982816,677.6982816,678.6508023000006,678.6508023000006,None,num_4,0.38148589999946125,678.6508023000006,None,sad,0,Happy,679.0423918500002,None,None,679.0423918500002,None,,,,,,,,,,,,,,,,,,,,,,,,,,,,,,,,,,,,,,,,,,,,,,,,,,,,,4,001,male,29,600,300,2022_Aug_03_0941,Experiment,2021.1.4,361.2729814736989,
images\S1_F_H_01.png,images\S1_F_H_01_scrambled.png,1,happy,10,female,4,,481,off,1,0.5,0.75,0.5,0.855,3,480,1,1,2,0,0,0,0,4,,,,,,0,114,114,114,,,,,,,,,,,,,,,,,,,,,,,,,,,,,,,,,,,,,,,,,,,,,,,,,,,,,,,,,679.1033948000004,679.6060244,679.6060244,680.3585987000006,680.3585987000006,680.8613046,680.8613046,681.7221694,681.7221694,None,num_6,0.33400389999951585,681.7221694,None,happy,0,Happy,682.0691815000006,None,None,682.0691815000006,None,,,,,,,,,,,,,,,,,,,,,,,,,,,,,,,,,,,,,,,,,,,,,,,,,,,,,4,001,male,29,600,300,2022_Aug_03_0941,Experiment,2021.1.4,361.2729814736989,
images\blank.jpg,images\blank.jpg,none,none,none,none,0,,609,on,2,0.5,0.75,0.5,0.786,0,608,1,1,1,3,3,48,192,240,,,,,,0,115,115,115,,,,,,,,,,,,,,,,,,,,,,,,,,,,,,,,,,,,,,,,,,,,,,,,,,,,,,,,,682.1526883000006,682.6579276000002,682.6579276000002,683.4076353,683.4076353,683.913071,683.913071,684.7017049000005,684.7017049000005,684.7017049000005,None,,684.7017049000005,None,miss,0,,687.7063833999998,None,None,687.7063833999998,None,,,,,,,,,,,,,,,,,,,,,,,,,,,,,,,,,,,,,,,,,,,,,,,,,,,,,4,001,male,29,600,300,2022_Aug_03_0941,Experiment,2021.1.4,361.2729814736989,
images\S3_F_H_03.png,images\S3_F_H_03_scrambled.png,3,happy,30,female,6,,495,off,1,0.5,0.75,0.5,0.792,3,494,1,1,1,0,0,0,0,6,,,,,,0,116,116,116,,,,,,,,,,,,,,,,,,,,,,,,,,,,,,,,,,,,,,,,,,,,,,,,,,,,,,,,,687.8259889999999,688.3255613000001,688.3255613000001,689.0753460000005,689.0753460000005,689.5780001000003,689.5780001000003,690.3722521999998,690.3722521999998,None,num_6,0.32405870000002324,690.3722521999998,687.8259889999999,happy,0,Happy,690.7109690000003,None,None,690.7109690000003,None,,,,,,,,,,,,,,,,,,,,,,,,,,,,,,,,,,,,,,,,,,,,,,,,,,,,,4,001,male,29,600,300,2022_Aug_03_0941,Experiment,2021.1.4,361.2729814736989,
images\S5_F_S_02.png,images\S5_F_S_02_scrambled.png,5,sad,-20,female,2,,29,off,1,0.5,0.75,0.5,0.904,3,28,2,1,1,0,0,0,0,2,,,,,,0,117,117,117,,,,,,,,,,,,,,,,,,,,,,,,,,,,,,,,,,,,,,,,,,,,,,,,,,,,,,,,,690.7581547999998,691.2635793999998,691.2635793999998,692.0133166000005,692.0133166000005,692.5187474000004,692.5187474000004,693.4269042000005,693.4269042000005,None,num_6,0.30128140000033454,693.4269042000005,None,happy,0,Sad,693.7350400000003,None,None,693.7350400000003,None,,,,,,,,,,,,,,,,,,,,,,,,,,,,,,,,,,,,,,,,,,,,,,,,,,,,,4,001,male,29,600,300,2022_Aug_03_0941,Experiment,2021.1.4,361.2729814736989,
images\S6_M_S_01.png,images\S6_M_S_01_scrambled.png,6,sad,-10,male,3,,94,on,2,0.5,0.75,0.5,0.947,3,93,1,1,1,2,2,32,128,163,,,,,,0,118,118,118,,,,,,,,,,,,,,,,,,,,,,,,,,,,,,,,,,,,,,,,,,,,,,,,,,,,,,,,,693.7849921000006,694.2876802999999,694.2876802999999,695.0401737000002,695.0401737000002,695.5427970000001,695.5427970000001,696.4925598999998,696.4925598999998,None,num_4,1.1398867999996583,696.4925598999998,None,sad,0,Sad,697.6477251000002,None,None,697.6477251000002,None,,,,,,,,,,,,,,,,,,,,,,,,,,,,,,,,,,,,,,,,,,,,,,,,,,,,,4,001,male,29,600,300,2022_Aug_03_0941,Experiment,2021.1.4,361.2729814736989,
images\S9_F_H_01.png,images\S9_F_H_01_scrambled.png,9,happy,10,female,4,,289,off,1,0.5,0.75,0.5,0.875,3,288,1,1,1,0,0,0,0,4,,,,,,0,119,119,119,,,,,,,,,,,,,,,,,,,,,,,,,,,,,,,,,,,,,,,,,,,,,,,,,,,,,,,,,697.6949089,698.1975974000006,698.1975974000006,698.9500884999998,698.9500884999998,699.4527643000001,699.4527643000001,700.3330282000006,700.3330282000006,None,num_6,0.5471500000003289,700.3330282000006,None,happy,0,Happy,700.8939584000005,None,None,700.8939584000005,None,,,,,,,,,,,,,,,,,,,,,,,,,,,,,,,,,,,,,,,,,,,,,,,,,,,,,4,001,male,29,600,300,2022_Aug_03_0941,Experiment,2021.1.4,361.2729814736989,
images\S9_F_H_02.png,images\S9_F_H_02_scrambled.png,9,happy,20,female,5,,470,on,2,0.5,0.75,0.5,0.942,3,469,1,2,1,2,2,32,128,165,,,,,,0,120,120,120,,,,,,,,,,,,,,,,,,,,,,,,,,,,,,,,,,,,,,,,,,,,,,,,,,,,,,,,,700.9411336000003,701.4437529000006,701.4437529000006,702.1935197000003,702.1935197000003,702.6989512999999,702.6989512999999,703.6430767000002,703.6430767000002,None,num_6,0.5250586000001931,703.6430767000002,None,happy,0,Happy,704.1818318000002,None,None,704.1818318000002,None,,,,,,,,,,,,,,,,,,,,,,,,,,,,,,,,,,,,,,,,,,,,,,,,,,,,,4,001,male,29,600,300,2022_Aug_03_0941,Experiment,2021.1.4,361.2729814736989,
images\S4_M_S_01.png,images\S4_M_S_01_scrambled.png,4,sad,-10,male,3,,562,on,2,0.5,0.75,0.5,0.754,3,561,2,1,1,2,2,32,128,163,,,,,,0,121,121,121,,,,,,,,,,,,,,,,,,,,,,,,,,,,,,,,,,,,,,,,,,,,,,,,,,,,,,,,,704.2290164000005,704.7317724000004,704.7317724000004,705.4841987,705.4841987,705.9868227000006,705.9868227000006,706.7477361000001,706.7477361000001,None,num_4,0.5484204000003956,706.7477361000001,None,sad,0,Sad,707.3086476000004,None,None,707.3086476000004,None,,,,,,,,,,,,,,,,,,,,,,,,,,,,,,,,,,,,,,,,,,,,,,,,,,,,,4,001,male,29,600,300,2022_Aug_03_0941,Experiment,2021.1.4,361.2729814736989,
images\S9_F_S_01.png,images\S9_F_S_01_scrambled.png,9,sad,-10,female,3,,592,on,2,0.5,0.75,0.5,0.804,3,591,3,1,2,2,2,32,128,163,,,,,,0,122,122,122,,,,,,,,,,,,,,,,,,,,,,,,,,,,,,,,,,,,,,,,,,,,,,,,,,,,,,,,,707.3558274000006,707.8556810999999,707.8556810999999,708.6082577000006,708.6082577000006,709.1136459999998,709.1136459999998,709.9217901000002,709.9217901000002,None,num_6,0.278563299999405,709.9217901000002,None,happy,0,Sad,710.21338725,None,None,710.21338725,None,,,,,,,,,,,,,,,,,,,,,,,,,,,,,,,,,,,,,,,,,,,,,,,,,,,,,4,001,male,29,600,300,2022_Aug_03_0941,Experiment,2021.1.4,361.2729814736989,
images\S10_M_S_03.png,images\S10_M_S_03_scrambled.png,10,sad,-30,male,1,,180,off,1,0.5,0.75,0.5,0.904,3,179,1,1,1,0,0,0,0,1,,,,,,0,123,123,123,,,,,,,,,,,,,,,,,,,,,,,,,,,,,,,,,,,,,,,,,,,,,,,,,,,,,,,,,710.2771524,710.7825891000002,710.7825891000002,711.5379197000002,711.5379197000002,712.0405350000001,712.0405350000001,712.9485523000003,712.9485523000003,None,num_4,0.5637419999993654,712.9485523000003,None,sad,0,Sad,713.5290912000004,None,None,713.5290912000004,None,,,,,,,,,,,,,,,,,,,,,,,,,,,,,,,,,,,,,,,,,,,,,,,,,,,,,4,001,male,29,600,300,2022_Aug_03_0941,Experiment,2021.1.4,361.2729814736989,
images\S2_M_S_03.png,images\S2_M_S_03_scrambled.png,2,sad,-30,male,1,,12,off,1,0.5,0.75,0.5,0.776,3,11,2,1,2,0,0,0,0,1,,,,,,0,124,124,124,,,,,,,,,,,,,,,,,,,,,,,,,,,,,,,,,,,,,,,,,,,,,,,,,,,,,,,,,713.5816920000007,714.0815345000001,714.0815345000001,714.8313395000005,714.8313395000005,715.3339476000001,715.3339476000001,716.1171445999998,716.1171445999998,None,num_4,0.40317009999944275,716.1171445999998,None,sad,0,Sad,716.5420355000007,None,None,716.5420355000007,None,,,,,,,,,,,,,,,,,,,,,,,,,,,,,,,,,,,,,,,,,,,,,,,,,,,,,4,001,male,29,600,300,2022_Aug_03_0941,Experiment,2021.1.4,361.2729814736989,
images\S6_M_H_02.png,images\S6_M_H_02_scrambled.png,6,happy,20,male,5,,212,on,2,0.5,0.75,0.5,0.752,3,211,1,1,1,2,2,32,128,165,,,,,,0,125,125,125,,,,,,,,,,,,,,,,,,,,,,,,,,,,,,,,,,,,,,,,,,,,,,,,,,,,,,,,,716.5946492000003,717.0973736000005,717.0973736000005,717.8470624000001,717.8470624000001,718.3525805999998,718.3525805999998,719.1078303000004,719.1078303000004,None,num_6,0.5164355999995678,719.1078303000004,None,happy,0,Happy,719.6466708500009,None,None,719.6466708500009,None,,,,,,,,,,,,,,,,,,,,,,,,,,,,,,,,,,,,,,,,,,,,,,,,,,,,,4,001,male,29,600,300,2022_Aug_03_0941,Experiment,2021.1.4,361.2729814736989,
images\blank.jpg,images\blank.jpg,none,none,none,none,0,,626,on,2,0.5,0.75,0.5,0.879,0,625,2,1,1,3,3,48,192,240,,,,,,0,126,126,126,,,,,,,,,,,,,,,,,,,,,,,,,,,,,,,,,,,,,,,,,,,,,,,,,,,,,,,,,719.7330005000003,720.2379852000004,720.2379852000004,720.9877560000004,720.9877560000004,721.4903647000001,721.4903647000001,722.3734718000005,722.3734718000005,722.3734718000005,None,,722.3734718000005,None,miss,0,,725.3753201500007,None,None,725.3753201500007,None,,,,,,,,,,,,,,,,,,,,,,,,,,,,,,,,,,,,,,,,,,,,,,,,,,,,,4,001,male,29,600,300,2022_Aug_03_0941,Experiment,2021.1.4,361.2729814736989,
images\S5_F_H_02.png,images\S5_F_H_02_scrambled.png,5,happy,20,female,5,,446,on,2,0.5,0.75,0.5,0.843,3,445,3,1,1,2,2,32,128,165,,,,,,0,127,127,127,,,,,,,,,,,,,,,,,,,,,,,,,,,,,,,,,,,,,,,,,,,,,,,,,,,,,,,,,725.4920792000003,725.9945609000006,725.9945609000006,726.7472293000001,726.7472293000001,727.2525429000007,727.2525429000007,728.1023236999999,728.1023236999999,None,num_6,0.47381139999924926,728.1023236999999,725.4920792000003,happy,0,Happy,728.5882273000003,None,None,728.5882273000003,None,,,,,,,,,,,,,,,,,,,,,,,,,,,,,,,,,,,,,,,,,,,,,,,,,,,,,4,001,male,29,600,300,2022_Aug_03_0941,Experiment,2021.1.4,361.2729814736989,
images\S5_F_H_01.png,images\S5_F_H_01_scrambled.png,5,happy,10,female,4,,385,off,1,0.5,0.75,0.5,0.851,3,384,1,2,1,0,0,0,0,4,,,,,,0,128,128,128,,,,,,,,,,,,,,,,,,,,,,,,,,,,,,,,,,,,,,,,,,,,,,,,,,,,,,,,,728.6353939,729.1380619000001,729.1380619000001,729.8933857000002,729.8933857000002,730.3960887000003,730.3960887000003,731.2540506000005,731.2540506000005,None,num_6,0.4341581999997288,731.2540506000005,None,happy,0,Happy,731.7039428500002,None,None,731.7039428500002,None,,,,,,,,,,,,,,,,,,,,,,,,,,,,,,,,,,,,,,,,,,,,,,,,,,,,,4,001,male,29,600,300,2022_Aug_03_0941,Experiment,2021.1.4,361.2729814736989,
images\S10_M_S_02.png,images\S10_M_S_02_scrambled.png,10,sad,-20,male,2,,539,off,1,0.5,0.75,0.5,0.776,3,538,2,1,1,0,0,0,0,2,,,,,,0,129,129,129,,,,,,,,,,,,,,,,,,,,,,,,,,,,,,,,,,,,,,,,,,,,,,,,,,,,,,,,,731.7483252000002,732.2537559000002,732.2537559000002,733.0035001000006,733.0035001000006,733.5089261000003,733.5089261000003,734.2921239000007,734.2921239000007,None,num_4,0.3560535999995409,734.2921239000007,None,sad,0,Sad,734.6613395,None,None,734.6613395,None,,,,,,,,,,,,,,,,,,,,,,,,,,,,,,,,,,,,,,,,,,,,,,,,,,,,,4,001,male,29,600,300,2022_Aug_03_0941,Experiment,2021.1.4,361.2729814736989,
images\S5_F_H_03.png,images\S5_F_H_03_scrambled.png,5,happy,30,female,6,,27,off,1,0.5,0.75,0.5,0.825,3,26,3,1,1,0,0,0,0,6,,,,,,0,130,130,130,,,,,,,,,,,,,,,,,,,,,,,,,,,,,,,,,,,,,,,,,,,,,,,,,,,,,,,,,734.7446282999999,735.2473411000001,735.2473411000001,736.0026324999999,736.0026324999999,736.5052553000005,736.5052553000005,737.3327768999998,737.3327768999998,None,num_6,0.4035575999996581,737.3327768999998,None,happy,0,Happy,737.7492606000005,None,space,737.7492606000005,None,41.066677300000265,,,,,,,,,,,,,,,,,,,,,,,,,,,,,,,,,,,,,,,,,,,,,,,,,,,,4,001,male,29,600,300,2022_Aug_03_0941,Experiment,2021.1.4,361.2729814736989,
images\S3_F_S_02.png,images\S3_F_S_02_scrambled.png,3,sad,-20,female,2,,557,on,2,0.5,0.75,0.5,0.927,3,556,1,1,1,2,2,32,128,162,,,,,,0,131,131,131,,,,,,,,,,,,,,,,,,,,,,,,,,,,,,,,,,,,,,,,,,,,,,,,,,,,,,,,,778.8726707000005,779.3753554000004,779.3753554000004,780.1279421999998,780.1279421999998,780.6333924999999,780.6333924999999,781.5635781999999,781.5635781999999,None,num_4,0.43674879999980476,781.5635781999999,None,sad,0,Sad,782.0106915000002,None,None,782.0106915000002,None,,,,,,,,,,,,,,,,,,,,,,,,,,,,,,,,,,,,,,,,,,,,,,,,,,,,,4,001,male,29,600,300,2022_Aug_03_0941,Experiment,2021.1.4,361.2729814736989,
images\S7_F_S_01.png,images\S7_F_S_01_scrambled.png,7,sad,-10,female,3,,160,off,1,0.5,0.75,0.5,0.81,3,159,1,1,1,0,0,0,0,3,,,,,,0,132,132,132,,,,,,,,,,,,,,,,,,,,,,,,,,,,,,,,,,,,,,,,,,,,,,,,,,,,,,,,,782.0606373,782.5632599,782.5632599,783.3130028000005,783.3130028000005,783.8184642000006,783.8184642000006,784.6322062999998,784.6322062999998,None,num_6,2.6240140999998403,784.6322062999998,None,happy,0,Sad,787.2618841000001,None,None,787.2618841000001,None,,,,,,,,,,,,,,,,,,,,,,,,,,,,,,,,,,,,,,,,,,,,,,,,,,,,,4,001,male,29,600,300,2022_Aug_03_0941,Experiment,2021.1.4,361.2729814736989,
images\S6_M_S_02.png,images\S6_M_S_02_scrambled.png,6,sad,-20,male,2,,455,on,2,0.5,0.75,0.5,0.751,3,454,1,1,1,2,2,32,128,162,,,,,,0,133,133,133,,,,,,,,,,,,,,,,,,,,,,,,,,,,,,,,,,,,,,,,,,,,,,,,,,,,,,,,,787.3451310999999,787.8505246000004,787.8505246000004,788.6030821000004,788.6030821000004,789.1056961000004,789.1056961000004,789.8610620999998,789.8610620999998,None,num_4,0.4672660000005635,789.8610620999998,None,sad,0,Sad,790.3498902000005,None,None,790.3498902000005,None,,,,,,,,,,,,,,,,,,,,,,,,,,,,,,,,,,,,,,,,,,,,,,,,,,,,,4,001,male,29,600,300,2022_Aug_03_0941,Experiment,2021.1.4,361.2729814736989,
images\S6_M_S_03.png,images\S6_M_S_03_scrambled.png,6,sad,-30,male,1,,396,off,1,0.5,0.75,0.5,0.866,3,395,1,2,1,0,0,0,0,1,,,,,,0,134,134,134,,,,,,,,,,,,,,,,,,,,,,,,,,,,,,,,,,,,,,,,,,,,,,,,,,,,,,,,,790.4025435000003,790.9023561000004,790.9023561000004,791.6577500000003,791.6577500000003,792.1631335000002,792.1631335000002,793.0323982999998,793.0323982999998,None,num_4,0.31976940000004106,793.0323982999998,None,sad,0,Sad,793.3711235500004,None,None,793.3711235500004,None,,,,,,,,,,,,,,,,,,,,,,,,,,,,,,,,,,,,,,,,,,,,,,,,,,,,,4,001,male,29,600,300,2022_Aug_03_0941,Experiment,2021.1.4,361.2729814736989,
images\S8_M_H_02.png,images\S8_M_H_02_scrambled.png,8,happy,20,male,5,,224,on,2,0.5,0.75,0.5,0.765,3,223,1,1,1,2,2,32,128,165,,,,,,0,135,135,135,,,,,,,,,,,,,,,,,,,,,,,,,,,,,,,,,,,,,,,,,,,,,,,,,,,,,,,,,793.4182556000005,793.9181082000005,793.9181082000005,794.6734635000003,794.6734635000003,795.1732974000006,795.1732974000006,795.9424849000006,795.9424849000006,None,num_6,0.31381660000079137,795.9424849000006,None,happy,0,Happy,796.2758595000008,None,None,796.2758595000008,None,,,,,,,,,,,,,,,,,,,,,,,,,,,,,,,,,,,,,,,,,,,,,,,,,,,,,4,001,male,29,600,300,2022_Aug_03_0941,Experiment,2021.1.4,361.2729814736989,
images\S3_F_H_02.png,images\S3_F_H_02_scrambled.png,3,happy,20,female,5,,14,off,1,0.5,0.75,0.5,0.766,3,13,1,1,2,0,0,0,0,5,,,,,,0,136,136,136,,,,,,,,,,,,,,,,,,,,,,,,,,,,,,,,,,,,,,,,,,,,,,,,,,,,,,,,,796.3284800000001,796.8312351000004,796.8312351000004,797.5809108000003,797.5809108000003,798.0807552000006,798.0807552000006,798.8527576000006,798.8527576000006,None,num_6,0.34745850000035716,798.8527576000006,None,happy,0,Happy,799.2276921000004,None,None,799.2276921000004,None,,,,,,,,,,,,,,,,,,,,,,,,,,,,,,,,,,,,,,,,,,,,,,,,,,,,,4,001,male,29,600,300,2022_Aug_03_0941,Experiment,2021.1.4,361.2729814736989,
images\S5_F_H_02.png,images\S5_F_H_02_scrambled.png,5,happy,20,female,5,,506,off,1,0.5,0.75,0.5,0.899,3,505,2,1,3,0,0,0,0,5,,,,,,0,137,137,137,,,,,,,,,,,,,,,,,,,,,,,,,,,,,,,,,,,,,,,,,,,,,,,,,,,,,,,,,799.2914539000003,799.7912959000005,799.7912959000005,800.5410734000006,800.5410734000006,801.0409635000005,801.0409635000005,801.9463249,801.9463249,None,num_6,0.3178493999994316,801.9463249,None,happy,0,Happy,802.27671955,None,None,802.27671955,None,,,,,,,,,,,,,,,,,,,,,,,,,,,,,,,,,,,,,,,,,,,,,,,,,,,,,4,001,male,29,600,300,2022_Aug_03_0941,Experiment,2021.1.4,361.2729814736989,
images\S8_M_H_01.png,images\S8_M_H_01_scrambled.png,8,happy,10,male,4,,343,on,2,0.5,0.75,0.5,0.844,3,342,1,1,1,2,2,32,128,164,,,,,,0,138,138,138,,,,,,,,,,,,,,,,,,,,,,,,,,,,,,,,,,,,,,,,,,,,,,,,,,,,,,,,,802.3405352999998,802.8403628000005,802.8403628000005,803.5929534000006,803.5929534000006,804.0983530000003,804.0983530000003,804.9480936,804.9480936,None,num_6,0.44398110000020097,804.9480936,None,happy,0,Happy,805.4034763000005,None,None,805.4034763000005,None,,,,,,,,,,,,,,,,,,,,,,,,,,,,,,,,,,,,,,,,,,,,,,,,,,,,,4,001,male,29,600,300,2022_Aug_03_0941,Experiment,2021.1.4,361.2729814736989,
images\blank.jpg,images\blank.jpg,none,none,none,none,0,,647,on,2,0.5,0.75,0.5,0.796,0,646,2,1,1,3,3,48,192,240,,,,,,0,139,139,139,,,,,,,,,,,,,,,,,,,,,,,,,,,,,,,,,,,,,,,,,,,,,,,,,,,,,,,,,805.4870613000003,805.9922741999999,805.9922741999999,806.7475457999999,806.7475457999999,807.2529369000003,807.2529369000003,808.0527057999998,808.0527057999998,808.0527057999998,None,,808.0527057999998,None,miss,0,,811.0517500500004,None,None,811.0517500500004,None,,,,,,,,,,,,,,,,,,,,,,,,,,,,,,,,,,,,,,,,,,,,,,,,,,,,,4,001,male,29,600,300,2022_Aug_03_0941,Experiment,2021.1.4,361.2729814736989,
