image_face,image_scram,avatar,emo,emotion,sex,trigeeg,dac,trial_no,NMES,stimtime,baseline,iti,face,scr_face,resp_time,index,count_NMES,count_avatar,count_emotion,dac1,dac2,dac1_output,dac2_output,trigs_out,nmes,practice_trials.thisRepN,practice_trials.thisTrialN,practice_trials.thisN,practice_trials.thisIndex,real_trials.thisRepN,real_trials.thisTrialN,real_trials.thisN,real_trials.thisIndex,trials.thisRepN,trials.thisTrialN,trials.thisN,trials.thisIndex,position,Welcome.started,Welcome.stopped,Welcome_resp.keys,Welcome_resp.rt,text_2.started,text_2.stopped,form_2.index,form_2.itemText,form_2.type,form_2.response,form_2.rt,key_resp_4.keys,key_resp_4.rt,key_resp_4.started,key_resp_4.stopped,instructions.started,instructions.stopped,end_instr.keys,end_instr.rt,instructions_2.started,instructions_2.stopped,end_instr_2.keys,end_instr_2.rt,end_instr_2.started,end_instr_2.stopped,instruct_keypress.started,instruct_keypress.stopped,end_instruct_keypress.keys,end_instruct_keypress.rt,start_practice.started,start_practice.stopped,start_practice_resp.keys,start_practice_resp.rt,prac_baseline.started,prac_baseline.stopped,prac_iti.started,prac_iti.stopped,prac_stimulus.started,prac_stimulus.stopped,prac_scram_stim.started,prac_scram_stim.stopped,prac_stimulus_resp.started,prac_stimulus_resp.stopped,prac_resp.keys,prac_resp.started,prac_resp.stopped,prac_resp.rt,transition_to_real.started,transition_to_real.stopped,end_transition_to_real.keys,end_transition_to_real.rt,fixation_cross.started,fixation_cross.stopped,tr_iti.started,tr_iti.stopped,stimulus.started,stimulus.stopped,scram_stim.started,scram_stim.stopped,response_txt.started,response_txt.stopped,response.keys,response.rt,response.started,response.stopped,participant_Resp,grouping,corAnswer,break_msg.started,break_msg.stopped,end_break.keys,end_break.started,end_break.stopped,end_break.rt,text.started,text.stopped,key_resp_3.keys,key_resp_3.rt,key_resp_3.started,key_resp_3.stopped,fix_cross_comf.started,fix_cross_comf.stopped,stimulation_comf.started,stimulation_comf.stopped,rate_instr.started,rate_instr.stopped,comfort_rating.response,comfort_rating.rt,comfort_rating.started,comfort_rating.stopped,resp_form.keys,resp_form.rt,resp_form.started,resp_form.stopped,survey_instructions.started,survey_instructions.stopped,key_resp_2.keys,key_resp_2.rt,key_resp_2.started,key_resp_2.stopped,form.index,form.itemText,form.type,form.response,form.rt,key_resp.keys,key_resp.rt,key_resp.started,key_resp.stopped,text_3.started,text_3.stopped,rate_smile.response,rate_smile.rt,rate_smile.started,rate_smile.stopped,key_resp_5.keys,key_resp_5.rt,key_resp_5.started,key_resp_5.stopped,end_msg.started,end_msg.stopped,end_resp.keys,end_resp.rt,end_resp.started,end_resp.stopped,participant,session,gender,age,LEFT,RIGHT,date,expName,psychopyVersion,frameRate,
,,,,,,,,,,,,,,,,,,,,,,,,,,,,,,,,,,,,,,H-S,37.78370290000021,None,num_add,2.5446328999996695,,,,,,,,,,,,,,,,,,,,,,,,,,,,,,,,,,,,,,,,,,,,,,,,,,,,,,,,,,,,,,,,,,,,,,,,,,,,,,,,,,,,,,,,,,,,,,,,,,,,,,,,,,,,,,,,,,,,,,,,,,5,001,male,20,500,500,2022_Aug_06_1237,Experiment,2021.1.4,360.1202801723732,
,,,,,,,,,,,,,,,,,,,,,,,,,,,,,,,,,,,,,,,,,,,40.3400101999996,42.37548669999978,1,"This scale consistes of a number of words that describe different feelings and emotion. Read each item and then list the number from the scale below each word. Indicate (by clicking) to what extend you feel this way RIGHT NOW, that is, AT THE PRESENT MOMENT.",description,,,,,,,,,,,,,,,,,,,,,,,,,,,,,,,,,,,,,,,,,,,,,,,,,,,,,,,,,,,,,,,,,,,,,,,,,,,,,,,,,,,,,,,,,,,,,,,,,,,,,,,,,,,,,,,,,,,,,5,001,male,20,500,500,2022_Aug_06_1237,Experiment,2021.1.4,360.1202801723732,
,,,,,,,,,,,,,,,,,,,,,,,,,,,,,,,,,,,,,,,,,,,,,2,Interested,rating,4.0,15.080801500000234,,,,,,,,,,,,,,,,,,,,,,,,,,,,,,,,,,,,,,,,,,,,,,,,,,,,,,,,,,,,,,,,,,,,,,,,,,,,,,,,,,,,,,,,,,,,,,,,,,,,,,,,,,,,,,,,,,,5,001,male,20,500,500,2022_Aug_06_1237,Experiment,2021.1.4,360.1202801723732,
,,,,,,,,,,,,,,,,,,,,,,,,,,,,,,,,,,,,,,,,,,,,,3,Distressed,rating,1.0,20.068334499999764,,,,,,,,,,,,,,,,,,,,,,,,,,,,,,,,,,,,,,,,,,,,,,,,,,,,,,,,,,,,,,,,,,,,,,,,,,,,,,,,,,,,,,,,,,,,,,,,,,,,,,,,,,,,,,,,,,,5,001,male,20,500,500,2022_Aug_06_1237,Experiment,2021.1.4,360.1202801723732,
,,,,,,,,,,,,,,,,,,,,,,,,,,,,,,,,,,,,,,,,,,,,,4,Excited,rating,3.0,22.370582500000637,,,,,,,,,,,,,,,,,,,,,,,,,,,,,,,,,,,,,,,,,,,,,,,,,,,,,,,,,,,,,,,,,,,,,,,,,,,,,,,,,,,,,,,,,,,,,,,,,,,,,,,,,,,,,,,,,,,5,001,male,20,500,500,2022_Aug_06_1237,Experiment,2021.1.4,360.1202801723732,
,,,,,,,,,,,,,,,,,,,,,,,,,,,,,,,,,,,,,,,,,,,,,5,Upset,rating,1.0,24.042827600000237,,,,,,,,,,,,,,,,,,,,,,,,,,,,,,,,,,,,,,,,,,,,,,,,,,,,,,,,,,,,,,,,,,,,,,,,,,,,,,,,,,,,,,,,,,,,,,,,,,,,,,,,,,,,,,,,,,,5,001,male,20,500,500,2022_Aug_06_1237,Experiment,2021.1.4,360.1202801723732,
,,,,,,,,,,,,,,,,,,,,,,,,,,,,,,,,,,,,,,,,,,,,,6,Strong,rating,4.0,28.74710899999991,,,,,,,,,,,,,,,,,,,,,,,,,,,,,,,,,,,,,,,,,,,,,,,,,,,,,,,,,,,,,,,,,,,,,,,,,,,,,,,,,,,,,,,,,,,,,,,,,,,,,,,,,,,,,,,,,,,5,001,male,20,500,500,2022_Aug_06_1237,Experiment,2021.1.4,360.1202801723732,
,,,,,,,,,,,,,,,,,,,,,,,,,,,,,,,,,,,,,,,,,,,,,7,Guilty,rating,1.0,9.38874179999948,,,,,,,,,,,,,,,,,,,,,,,,,,,,,,,,,,,,,,,,,,,,,,,,,,,,,,,,,,,,,,,,,,,,,,,,,,,,,,,,,,,,,,,,,,,,,,,,,,,,,,,,,,,,,,,,,,,5,001,male,20,500,500,2022_Aug_06_1237,Experiment,2021.1.4,360.1202801723732,
,,,,,,,,,,,,,,,,,,,,,,,,,,,,,,,,,,,,,,,,,,,,,8,Scared,rating,1.0,6.732247999999345,,,,,,,,,,,,,,,,,,,,,,,,,,,,,,,,,,,,,,,,,,,,,,,,,,,,,,,,,,,,,,,,,,,,,,,,,,,,,,,,,,,,,,,,,,,,,,,,,,,,,,,,,,,,,,,,,,,5,001,male,20,500,500,2022_Aug_06_1237,Experiment,2021.1.4,360.1202801723732,
,,,,,,,,,,,,,,,,,,,,,,,,,,,,,,,,,,,,,,,,,,,,,9,Hostile,rating,1.0,7.349468699999306,,,,,,,,,,,,,,,,,,,,,,,,,,,,,,,,,,,,,,,,,,,,,,,,,,,,,,,,,,,,,,,,,,,,,,,,,,,,,,,,,,,,,,,,,,,,,,,,,,,,,,,,,,,,,,,,,,,5,001,male,20,500,500,2022_Aug_06_1237,Experiment,2021.1.4,360.1202801723732,
,,,,,,,,,,,,,,,,,,,,,,,,,,,,,,,,,,,,,,,,,,,,,10,Enthusiastic,rating,4.0,5.137792600000466,,,,,,,,,,,,,,,,,,,,,,,,,,,,,,,,,,,,,,,,,,,,,,,,,,,,,,,,,,,,,,,,,,,,,,,,,,,,,,,,,,,,,,,,,,,,,,,,,,,,,,,,,,,,,,,,,,,5,001,male,20,500,500,2022_Aug_06_1237,Experiment,2021.1.4,360.1202801723732,
,,,,,,,,,,,,,,,,,,,,,,,,,,,,,,,,,,,,,,,,,,,,,11,Proud,rating,5.0,5.721337500000118,,,,,,,,,,,,,,,,,,,,,,,,,,,,,,,,,,,,,,,,,,,,,,,,,,,,,,,,,,,,,,,,,,,,,,,,,,,,,,,,,,,,,,,,,,,,,,,,,,,,,,,,,,,,,,,,,,,5,001,male,20,500,500,2022_Aug_06_1237,Experiment,2021.1.4,360.1202801723732,
,,,,,,,,,,,,,,,,,,,,,,,,,,,,,,,,,,,,,,,,,,,,,12,Irritable,rating,1.0,6.494466699999975,,,,,,,,,,,,,,,,,,,,,,,,,,,,,,,,,,,,,,,,,,,,,,,,,,,,,,,,,,,,,,,,,,,,,,,,,,,,,,,,,,,,,,,,,,,,,,,,,,,,,,,,,,,,,,,,,,,5,001,male,20,500,500,2022_Aug_06_1237,Experiment,2021.1.4,360.1202801723732,
,,,,,,,,,,,,,,,,,,,,,,,,,,,,,,,,,,,,,,,,,,,,,13,Alert,rating,3.0,14.757261400000061,,,,,,,,,,,,,,,,,,,,,,,,,,,,,,,,,,,,,,,,,,,,,,,,,,,,,,,,,,,,,,,,,,,,,,,,,,,,,,,,,,,,,,,,,,,,,,,,,,,,,,,,,,,,,,,,,,,5,001,male,20,500,500,2022_Aug_06_1237,Experiment,2021.1.4,360.1202801723732,
,,,,,,,,,,,,,,,,,,,,,,,,,,,,,,,,,,,,,,,,,,,,,14,Ashamed,rating,1.0,4.616022000000157,,,,,,,,,,,,,,,,,,,,,,,,,,,,,,,,,,,,,,,,,,,,,,,,,,,,,,,,,,,,,,,,,,,,,,,,,,,,,,,,,,,,,,,,,,,,,,,,,,,,,,,,,,,,,,,,,,,5,001,male,20,500,500,2022_Aug_06_1237,Experiment,2021.1.4,360.1202801723732,
,,,,,,,,,,,,,,,,,,,,,,,,,,,,,,,,,,,,,,,,,,,,,15,Inspired,rating,3.0,13.903166500000225,,,,,,,,,,,,,,,,,,,,,,,,,,,,,,,,,,,,,,,,,,,,,,,,,,,,,,,,,,,,,,,,,,,,,,,,,,,,,,,,,,,,,,,,,,,,,,,,,,,,,,,,,,,,,,,,,,,5,001,male,20,500,500,2022_Aug_06_1237,Experiment,2021.1.4,360.1202801723732,
,,,,,,,,,,,,,,,,,,,,,,,,,,,,,,,,,,,,,,,,,,,,,16,Nervous,rating,1.0,13.095834100000502,,,,,,,,,,,,,,,,,,,,,,,,,,,,,,,,,,,,,,,,,,,,,,,,,,,,,,,,,,,,,,,,,,,,,,,,,,,,,,,,,,,,,,,,,,,,,,,,,,,,,,,,,,,,,,,,,,,5,001,male,20,500,500,2022_Aug_06_1237,Experiment,2021.1.4,360.1202801723732,
,,,,,,,,,,,,,,,,,,,,,,,,,,,,,,,,,,,,,,,,,,,,,17,Determined,rating,3.0,12.075187699999333,,,,,,,,,,,,,,,,,,,,,,,,,,,,,,,,,,,,,,,,,,,,,,,,,,,,,,,,,,,,,,,,,,,,,,,,,,,,,,,,,,,,,,,,,,,,,,,,,,,,,,,,,,,,,,,,,,,5,001,male,20,500,500,2022_Aug_06_1237,Experiment,2021.1.4,360.1202801723732,
,,,,,,,,,,,,,,,,,,,,,,,,,,,,,,,,,,,,,,,,,,,,,18,Attentive,rating,4.0,14.586729399999967,,,,,,,,,,,,,,,,,,,,,,,,,,,,,,,,,,,,,,,,,,,,,,,,,,,,,,,,,,,,,,,,,,,,,,,,,,,,,,,,,,,,,,,,,,,,,,,,,,,,,,,,,,,,,,,,,,,5,001,male,20,500,500,2022_Aug_06_1237,Experiment,2021.1.4,360.1202801723732,
,,,,,,,,,,,,,,,,,,,,,,,,,,,,,,,,,,,,,,,,,,,,,19,Jittery,rating,1.0,12.306516000000556,,,,,,,,,,,,,,,,,,,,,,,,,,,,,,,,,,,,,,,,,,,,,,,,,,,,,,,,,,,,,,,,,,,,,,,,,,,,,,,,,,,,,,,,,,,,,,,,,,,,,,,,,,,,,,,,,,,5,001,male,20,500,500,2022_Aug_06_1237,Experiment,2021.1.4,360.1202801723732,
,,,,,,,,,,,,,,,,,,,,,,,,,,,,,,,,,,,,,,,,,,,,,20,Active,rating,2.0,21.61147329999949,,,,,,,,,,,,,,,,,,,,,,,,,,,,,,,,,,,,,,,,,,,,,,,,,,,,,,,,,,,,,,,,,,,,,,,,,,,,,,,,,,,,,,,,,,,,,,,,,,,,,,,,,,,,,,,,,,,5,001,male,20,500,500,2022_Aug_06_1237,Experiment,2021.1.4,360.1202801723732,
,,,,,,,,,,,,,,,,,,,,,,,,,,,,,,,,,,,,,,,,,,,,,21,Afraid,rating,1.0,18.997717000000193,,,,,,,,,,,,,,,,,,,,,,,,,,,,,,,,,,,,,,,,,,,,,,,,,,,,,,,,,,,,,,,,,,,,,,,,,,,,,,,,,,,,,,,,,,,,,,,,,,,,,,,,,,,,,,,,,,,5,001,male,20,500,500,2022_Aug_06_1237,Experiment,2021.1.4,360.1202801723732,
,,,,,,,,,,,,,,,,,,,,,,,,,,,,,,,,,,,,,,,,,,,,,22,Press the + button to submit your answers,description,,,,,,,,,,,,,,,,,,,,,,,,,,,,,,,,,,,,,,,,,,,,,,,,,,,,,,,,,,,,,,,,,,,,,,,,,,,,,,,,,,,,,,,,,,,,,,,,,,,,,,,,,,,,,,,,,,,,,5,001,male,20,500,500,2022_Aug_06_1237,Experiment,2021.1.4,360.1202801723732,
,,,,,,,,,,,,,,,,,,,,,,,,,,,,,,,,,,,,,,,,,,,,,,,,,,num_add,79.26364720000038,50.39245519999986,None,,,,,,,,,,,,,,,,,,,,,,,,,,,,,,,,,,,,,,,,,,,,,,,,,,,,,,,,,,,,,,,,,,,,,,,,,,,,,,,,,,,,,,,,,,,,,,,,,,,,,,,,,,,,,,,5,001,male,20,500,500,2022_Aug_06_1237,Experiment,2021.1.4,360.1202801723732,
,,,,,,,,,,,,,,,,,,,,,,,,,,,,,,,,,,,,,,,,,,,,,,,,,,,,,,129.66522280000027,None,num_add,1.670915600000626,,,,,,,,,,,,,,,,,,,,,,,,,,,,,,,,,,,,,,,,,,,,,,,,,,,,,,,,,,,,,,,,,,,,,,,,,,,,,,,,,,,,,,,,,,,,,,,,,,,,,,,,,,,5,001,male,20,500,500,2022_Aug_06_1237,Experiment,2021.1.4,360.1202801723732,
,,,,,,,,,,,,,,,,,,,,,,,,,,,,,,,,,,,,,,,,,,,,,,,,,,,,,,,,,,131.34805179999967,None,num_add,5.484025400000064,131.34805179999967,None,,,,,,,,,,,,,,,,,,,,,,,,,,,,,,,,,,,,,,,,,,,,,,,,,,,,,,,,,,,,,,,,,,,,,,,,,,,,,,,,,,,,,,,,,,,,,,,,,,,,,5,001,male,20,500,500,2022_Aug_06_1237,Experiment,2021.1.4,360.1202801723732,
,,,,,,,,,,,,,,,,,,,,,,,,,,,,,,,,,,,,,,,,,,,,,,,,,,,,,,,,,,,,,,,,136.85467590000007,None,num_add,21.041540799999893,,,,,,,,,,,,,,,,,,,,,,,,,,,,,,,,,,,,,,,,,,,,,,,,,,,,,,,,,,,,,,,,,,,,,,,,,,,,,,,,,,,,,,,,,,,,,,,,,5,001,male,20,500,500,2022_Aug_06_1237,Experiment,2021.1.4,360.1202801723732,
,,,,,,,,,,,,,,,,,,,,,,,,,,,,,,,,,,,,,,,,,,,,,,,,,,,,,,,,,,,,,,,,,,,,157.9065241999997,None,space,30.00555279999935,,,,,,,,,,,,,,,,,,,,,,,,,,,,,,,,,,,,,,,,,,,,,,,,,,,,,,,,,,,,,,,,,,,,,,,,,,,,,,,,,,,,,,,,,,,,,5,001,male,20,500,500,2022_Aug_06_1237,Experiment,2021.1.4,360.1202801723732,
images\S22_M_S_01.png,images\S22_M_S_01_scrambled.png,22,Sad,0.1,M,0,0,practice,on,2,0.5,0.75,0.5,0.867,3,,,,,,,,,,,0,0,0,5,,,,,,,,,,,,,,,,,,,,,,,,,,,,,,,,,,,,,,,,,,,188.07777259999966,188.5776219999998,188.5776219999998,189.3329963999995,189.3329963999995,189.8383463,189.8383463,190.71037160000014,190.71037160000014,None,None,190.71037160000014,None,,,,,,,,,,,,,,,,,,,,,,,,,,,,,,,,,,,,,,,,,,,,,,,,,,,,,,,,,,,,,,,,,,,,,,,,,,,,,,,,5,001,male,20,500,500,2022_Aug_06_1237,Experiment,2021.1.4,360.1202801723732,
images\S22_M_S_03.png,images\S22_M_S_03_scrambled.png,22,Sad,0.3,M,0,0,practice,on,2,0.5,0.75,0.5,0.794,3,,,,,,,,,,,0,1,1,7,,,,,,,,,,,,,,,,,,,,,,,,,,,,,,,,,,,,,,,,,,,193.7954555999995,194.29806430000008,194.29806430000008,195.0478336999995,195.0478336999995,195.55051589999948,195.55051589999948,196.34465480000017,196.34465480000017,193.7954555999995,num_6,196.34465480000017,193.7954555999995,0.8234625000004598,,,,,,,,,,,,,,,,,,,,,,,,,,,,,,,,,,,,,,,,,,,,,,,,,,,,,,,,,,,,,,,,,,,,,,,,,,,,,,,5,001,male,20,500,500,2022_Aug_06_1237,Experiment,2021.1.4,360.1202801723732,
images\S22_M_S_02.png,images\S22_M_S_02_scrambled.png,22,Sad,0.2,M,0,0,practice,off,1,0.5,0.75,0.5,0.751,3,,,,,,,,,,,0,2,2,3,,,,,,,,,,,,,,,,,,,,,,,,,,,,,,,,,,,,,,,,,,,197.255494,197.7581166,197.7581166,198.5134747000002,198.5134747000002,199.01327690000016,199.01327690000016,199.76864449999994,199.76864449999994,None,num_6,199.76864449999994,None,0.8555770000002667,,,,,,,,,,,,,,,,,,,,,,,,,,,,,,,,,,,,,,,,,,,,,,,,,,,,,,,,,,,,,,,,,,,,,,,,,,,,,,,5,001,male,20,500,500,2022_Aug_06_1237,Experiment,2021.1.4,360.1202801723732,
images\S21_F_H_01.png,images\S21_F_H_01_scrambled.png,21,Happy,-0.1,F,0,0,practice,off,1,0.5,0.75,0.5,0.853,3,,,,,,,,,,,0,3,3,0,,,,,,,,,,,,,,,,,,,,,,,,,,,,,,,,,,,,,,,,,,,200.72387359999993,201.22927429999982,201.22927429999982,201.9819336999999,201.9819336999999,202.48445829999946,202.48445829999946,203.34258950000003,203.34258950000003,None,num_4,203.34258950000003,None,0.6334837000003972,,,,,,,,,,,,,,,,,,,,,,,,,,,,,,,,,,,,,,,,,,,,,,,,,,,,,,,,,,,,,,,,,,,,,,,,,,,,,,,5,001,male,20,500,500,2022_Aug_06_1237,Experiment,2021.1.4,360.1202801723732,
images\S22_M_H_02.png,images\S22_M_H_02_scrambled.png,22,Happy,-0.2,M,0,0,practice,off,1,0.5,0.75,0.5,0.883,3,,,,,,,,,,,0,4,4,2,,,,,,,,,,,,,,,,,,,,,,,,,,,,,,,,,,,,,,,,,,,204.06450419999965,204.5672198000002,204.5672198000002,205.31688889999987,205.31688889999987,205.82241539999995,205.82241539999995,206.7081232999999,206.7081232999999,None,num_4,206.7081232999999,None,0.3878411000005144,,,,,,,,,,,,,,,,,,,,,,,,,,,,,,,,,,,,,,,,,,,,,,,,,,,,,,,,,,,,,,,,,,,,,,,,,,,,,,,5,001,male,20,500,500,2022_Aug_06_1237,Experiment,2021.1.4,360.1202801723732,
images\S21_F_H_02.png,images\S21_F_H_02_scrambled.png,21,Happy,-0.2,F,0,0,practice,off,1,0.5,0.75,0.5,0.91,3,,,,,,,,,,,0,5,5,1,,,,,,,,,,,,,,,,,,,,,,,,,,,,,,,,,,,,,,,,,,,207.18858550000004,207.69397149999986,207.69397149999986,208.44660589999967,208.44660589999967,208.94909480000024,208.94909480000024,209.8627716000001,209.8627716000001,None,num_4,209.8627716000001,None,0.3054108999995151,,,,,,,,,,,,,,,,,,,,,,,,,,,,,,,,,,,,,,,,,,,,,,,,,,,,,,,,,,,,,,,,,,,,,,,,,,,,,,,5,001,male,20,500,500,2022_Aug_06_1237,Experiment,2021.1.4,360.1202801723732,
images\S22_M_S_03.png,images\S22_M_S_03_scrambled.png,22,Sad,0.3,M,0,0,practice,on,2,0.5,0.75,0.5,0.87,3,,,,,,,,,,,0,6,6,4,,,,,,,,,,,,,,,,,,,,,,,,,,,,,,,,,,,,,,,,,,,210.22371419999945,210.72632909999993,210.72632909999993,211.4789112999997,211.4789112999997,211.9787209999995,211.9787209999995,212.85349560000031,212.85349560000031,None,num_6,212.85349560000031,None,0.17058859999997367,,,,,,,,,,,,,,,,,,,,,,,,,,,,,,,,,,,,,,,,,,,,,,,,,,,,,,,,,,,,,,,,,,,,,,,,,,,,,,,5,001,male,20,500,500,2022_Aug_06_1237,Experiment,2021.1.4,360.1202801723732,
images\S22_M_S_02.png,images\S22_M_S_02_scrambled.png,22,Sad,0.2,M,0,0,practice,on,2,0.5,0.75,0.5,0.783,3,,,,,,,,,,,0,7,7,6,,,,,,,,,,,,,,,,,,,,,,,,,,,,,,,,,,,,,,,,,,,213.08686469999975,213.58933389999947,213.58933389999947,214.34202350000032,214.34202350000032,214.8474409999999,214.8474409999999,215.6331485999999,215.6331485999999,None,num_6,215.6331485999999,None,0.07100079999963782,,,,,,,,,,,,,,,,,,,,,,,,,,,,,,,,,,,,,,,,,,,,,,,,,,,,,,,,,,,,,,,,,,,,,,,,,,,,,,,5,001,male,20,500,500,2022_Aug_06_1237,Experiment,2021.1.4,360.1202801723732,
,,,,,,,,,,,,,,,,,,,,,,,,,,,,,,,,,,,,,,,,,,,,,,,,,,,,,,,,,,,,,,,,,,,,,,,,,,,,,,,,,,,,,,215.75534700000026,None,space,53.156568499999594,,,,,,,,,,,,,,,,,,,,,,,,,,,,,,,,,,,,,,,,,,,,,,,,,,,,,,,,,,,,,,,,,,,,,,,,,,,5,001,male,20,500,500,2022_Aug_06_1237,Experiment,2021.1.4,360.1202801723732,
images\S9_F_H_02.png,images\S9_F_H_02_scrambled.png,9,happy,20,female,5,,350,on,2,0.5,0.75,0.5,0.948,3,349,1,1,1,2,2,32,128,165,,,,,,0,0,0,0,,,,,,,,,,,,,,,,,,,,,,,,,,,,,,,,,,,,,,,,,,,,,,,,,,,,,,,,,269.46377759999996,269.9691901999995,269.9691901999995,270.7245119999998,270.7245119999998,271.2272234000002,271.2272234000002,272.18239209999956,272.18239209999956,None,num_4,0.281509599999481,272.18239209999956,None,happy,1,Happy,272.48514614999976,None,None,272.48514614999976,None,,,,,,,,,,,,,,,,,,,,,,,,,,,,,,,,,,,,,,,,,,,,,,,,,,,,,5,001,male,20,500,500,2022_Aug_06_1237,Experiment,2021.1.4,360.1202801723732,
images\S9_F_H_01.png,images\S9_F_H_01_scrambled.png,9,happy,10,female,4,,109,on,2,0.5,0.75,0.5,0.916,3,108,2,2,1,2,2,32,128,164,,,,,,0,1,1,1,,,,,,,,,,,,,,,,,,,,,,,,,,,,,,,,,,,,,,,,,,,,,,,,,,,,,,,,,272.5989191999997,273.1043311000003,273.1043311000003,273.85699190000014,273.85699190000014,274.3623663999997,274.3623663999997,275.2842152000003,275.2842152000003,None,num_4,0.33175109999956476,275.2842152000003,None,happy,1,Happy,275.6342560000003,None,None,275.6342560000003,None,,,,,,,,,,,,,,,,,,,,,,,,,,,,,,,,,,,,,,,,,,,,,,,,,,,,,5,001,male,20,500,500,2022_Aug_06_1237,Experiment,2021.1.4,360.1202801723732,
images\S2_M_S_01.png,images\S2_M_S_01_scrambled.png,2,sad,-10,male,3,,370,off,1,0.5,0.75,0.5,0.948,3,369,1,1,1,0,0,0,0,3,,,,,,0,2,2,2,,,,,,,,,,,,,,,,,,,,,,,,,,,,,,,,,,,,,,,,,,,,,,,,,,,,,,,,,275.7480426000002,276.2533427999997,276.2533427999997,277.0031157000003,277.0031157000003,277.50854900000013,277.50854900000013,278.4638034999998,278.4638034999998,None,num_6,0.6240477999999712,278.4638034999998,None,sad,1,Sad,279.1052645499999,None,None,279.1052645499999,None,,,,,,,,,,,,,,,,,,,,,,,,,,,,,,,,,,,,,,,,,,,,,,,,,,,,,5,001,male,20,500,500,2022_Aug_06_1237,Experiment,2021.1.4,360.1202801723732,
images\S4_M_S_03.png,images\S4_M_S_03_scrambled.png,4,sad,-30,male,1,,564,on,2,0.5,0.75,0.5,0.895,3,563,1,1,1,2,2,32,128,161,,,,,,0,3,3,3,,,,,,,,,,,,,,,,,,,,,,,,,,,,,,,,,,,,,,,,,,,,,,,,,,,,,,,,,279.1885580999997,279.68839370000023,279.68839370000023,280.43816659999993,280.43816659999993,280.9408195999995,280.9408195999995,281.83777159999954,281.83777159999954,None,num_6,1.4582227999999304,281.83777159999954,None,sad,1,Sad,283.3067434000004,None,None,283.3067434000004,None,,,,,,,,,,,,,,,,,,,,,,,,,,,,,,,,,,,,,,,,,,,,,,,,,,,,,5,001,male,20,500,500,2022_Aug_06_1237,Experiment,2021.1.4,360.1202801723732,
images\S5_F_S_01.png,images\S5_F_S_01_scrambled.png,5,sad,-10,female,3,,88,on,2,0.5,0.75,0.5,0.859,3,87,2,1,1,2,2,32,128,163,,,,,,0,4,4,4,,,,,,,,,,,,,,,,,,,,,,,,,,,,,,,,,,,,,,,,,,,,,,,,,,,,,,,,,283.3900373999995,283.8898739999995,283.8898739999995,284.6452111999997,284.6452111999997,285.14787520000027,285.14787520000027,286.00588830000015,286.00588830000015,None,num_4,0.44210990000010497,286.00588830000015,None,happy,1,Sad,286.4558538000001,None,None,286.4558538000001,None,,,,,,,,,,,,,,,,,,,,,,,,,,,,,,,,,,,,,,,,,,,,,,,,,,,,,5,001,male,20,500,500,2022_Aug_06_1237,Experiment,2021.1.4,360.1202801723732,
images\S4_M_S_03.png,images\S4_M_S_03_scrambled.png,4,sad,-30,male,1,,84,on,2,0.5,0.75,0.5,0.9,3,83,3,1,1,2,2,32,128,161,,,,,,0,5,5,5,,,,,,,,,,,,,,,,,,,,,,,,,,,,,,,,,,,,,,,,,,,,,,,,,,,,,,,,,286.5140640999998,287.0194878000002,287.0194878000002,287.7720333999996,287.7720333999996,288.27749419999964,288.27749419999964,289.18274889999975,289.18274889999975,None,num_6,0.3692174999996496,289.18274889999975,None,sad,1,Sad,289.5799429499998,None,None,289.5799429499998,None,,,,,,,,,,,,,,,,,,,,,,,,,,,,,,,,,,,,,,,,,,,,,,,,,,,,,5,001,male,20,500,500,2022_Aug_06_1237,Experiment,2021.1.4,360.1202801723732,
images\S6_M_S_03.png,images\S6_M_S_03_scrambled.png,6,sad,-30,male,1,,36,off,1,0.5,0.75,0.5,0.775,3,35,1,1,2,0,0,0,0,1,,,,,,0,6,6,6,,,,,,,,,,,,,,,,,,,,,,,,,,,,,,,,,,,,,,,,,,,,,,,,,,,,,,,,,289.6686460000001,290.1740762999998,290.1740762999998,290.9238157,290.9238157,291.42656329999954,291.42656329999954,292.2040068999995,292.2040068999995,None,num_6,0.6598603000002186,292.2040068999995,None,sad,1,Sad,292.8787992999996,None,None,292.8787992999996,None,,,,,,,,,,,,,,,,,,,,,,,,,,,,,,,,,,,,,,,,,,,,,,,,,,,,,5,001,male,20,500,500,2022_Aug_06_1237,Experiment,2021.1.4,360.1202801723732,
images\S8_M_H_01.png,images\S8_M_H_01_scrambled.png,8,happy,10,male,4,,283,off,1,0.5,0.75,0.5,0.885,3,282,2,1,1,0,0,0,0,4,,,,,,0,7,7,7,,,,,,,,,,,,,,,,,,,,,,,,,,,,,,,,,,,,,,,,,,,,,,,,,,,,,,,,,292.96208990000014,293.4647127999997,293.4647127999997,294.2172408999995,294.2172408999995,294.72269700000015,294.72269700000015,295.60848179999994,295.60848179999994,None,num_4,0.4238530000002356,295.60848179999994,None,happy,1,Happy,296.0585779500002,None,None,296.0585779500002,None,,,,,,,,,,,,,,,,,,,,,,,,,,,,,,,,,,,,,,,,,,,,,,,,,,,,,5,001,male,20,500,500,2022_Aug_06_1237,Experiment,2021.1.4,360.1202801723732,
images\S7_F_S_03.png,images\S7_F_S_03_scrambled.png,7,sad,-30,female,1,,102,on,2,0.5,0.75,0.5,0.813,3,101,1,1,1,2,2,32,128,161,,,,,,0,8,8,8,,,,,,,,,,,,,,,,,,,,,,,,,,,,,,,,,,,,,,,,,,,,,,,,,,,,,,,,,296.1499961999998,296.6526766999996,296.6526766999996,297.40799999999945,297.40799999999945,297.9133689,297.9133689,298.72973920000004,298.72973920000004,None,num_4,0.8941187999998874,298.72973920000004,None,happy,1,Sad,299.62949130000015,None,None,299.62949130000015,None,,,,,,,,,,,,,,,,,,,,,,,,,,,,,,,,,,,,,,,,,,,,,,,,,,,,,5,001,male,20,500,500,2022_Aug_06_1237,Experiment,2021.1.4,360.1202801723732,
images\S2_M_S_01.png,images\S2_M_S_01_scrambled.png,2,sad,-10,male,3,,550,on,2,0.5,0.75,0.5,0.765,3,549,2,1,1,2,2,32,128,163,,,,,,0,9,9,9,,,,,,,,,,,,,,,,,,,,,,,,,,,,,,,,,,,,,,,,,,,,,,,,,,,,,,,,,299.6766797,300.17932629999996,300.17932629999996,300.9319637999997,300.9319637999997,301.4344841000002,301.4344841000002,302.20366959999956,302.20366959999956,None,num_6,0.8361613999995825,302.20366959999956,None,sad,1,Sad,303.0506615000004,None,None,303.0506615000004,None,,,,,,,,,,,,,,,,,,,,,,,,,,,,,,,,,,,,,,,,,,,,,,,,,,,,,5,001,male,20,500,500,2022_Aug_06_1237,Experiment,2021.1.4,360.1202801723732,
images\S8_M_H_01.png,images\S8_M_H_01_scrambled.png,8,happy,10,male,4,,43,off,1,0.5,0.75,0.5,0.837,3,42,1,1,1,0,0,0,0,4,,,,,,0,10,10,10,,,,,,,,,,,,,,,,,,,,,,,,,,,,,,,,,,,,,,,,,,,,,,,,,,,,,,,,,303.0978561000002,303.6032808,303.6032808,304.3530122000002,304.3530122000002,304.85844689999976,304.85844689999976,305.69982249999975,305.69982249999975,None,num_4,0.5240966000001208,305.69982249999975,None,happy,1,Happy,306.24703115000057,None,None,306.24703115000057,None,,,,,,,,,,,,,,,,,,,,,,,,,,,,,,,,,,,,,,,,,,,,,,,,,,,,,5,001,male,20,500,500,2022_Aug_06_1237,Experiment,2021.1.4,360.1202801723732,
images\S2_M_H_01.png,images\S2_M_H_01_scrambled.png,2,happy,10,male,4,,367,off,1,0.5,0.75,0.5,0.882,3,366,2,1,2,0,0,0,0,4,,,,,,0,11,11,11,,,,,,,,,,,,,,,,,,,,,,,,,,,,,,,,,,,,,,,,,,,,,,,,,,,,,,,,,306.35519079999995,306.8578566999995,306.8578566999995,307.61314089999996,307.61314089999996,308.11855860000014,308.11855860000014,309.0015777999997,309.0015777999997,None,num_4,0.3742938999994294,309.0015777999997,None,happy,1,Happy,309.4070384000006,None,None,309.4070384000006,None,,,,,,,,,,,,,,,,,,,,,,,,,,,,,,,,,,,,,,,,,,,,,,,,,,,,,5,001,male,20,500,500,2022_Aug_06_1237,Experiment,2021.1.4,360.1202801723732,
images\S9_F_H_03.png,images\S9_F_H_03_scrambled.png,9,happy,30,female,6,,531,off,1,0.5,0.75,0.5,0.868,3,530,3,1,1,0,0,0,0,6,,,,,,0,12,12,12,,,,,,,,,,,,,,,,,,,,,,,,,,,,,,,,,,,,,,,,,,,,,,,,,,,,,,,,,309.51530980000007,310.01792829999977,310.01792829999977,310.7705353000001,310.7705353000001,311.27315649999946,311.27315649999946,312.14506170000004,312.14506170000004,None,num_4,0.2549841000000015,312.14506170000004,None,happy,1,Happy,312.41722295000045,None,None,312.41722295000045,None,,,,,,,,,,,,,,,,,,,,,,,,,,,,,,,,,,,,,,,,,,,,,,,,,,,,,5,001,male,20,500,500,2022_Aug_06_1237,Experiment,2021.1.4,360.1202801723732,
images\S7_F_H_02.png,images\S7_F_H_02_scrambled.png,7,happy,20,female,5,,338,on,2,0.5,0.75,0.5,0.816,3,337,1,1,1,2,2,32,128,165,,,,,,0,13,13,13,,,,,,,,,,,,,,,,,,,,,,,,,,,,,,,,,,,,,,,,,,,,,,,,,,,,,,,,,312.50324699999965,313.00589219999983,313.00589219999983,313.7556919999997,313.7556919999997,314.25550939999994,314.25550939999994,315.0775662999995,315.0775662999995,None,num_4,0.38632419999976264,315.0775662999995,None,happy,1,Happy,315.49134700000013,None,None,315.49134700000013,None,,,,,,,,,,,,,,,,,,,,,,,,,,,,,,,,,,,,,,,,,,,,,,,,,,,,,5,001,male,20,500,500,2022_Aug_06_1237,Experiment,2021.1.4,360.1202801723732,
images\S10_M_S_03.png,images\S10_M_S_03_scrambled.png,10,sad,-30,male,1,,360,on,2,0.5,0.75,0.5,0.907,3,359,2,1,1,2,2,32,128,161,,,,,,0,14,14,14,,,,,,,,,,,,,,,,,,,,,,,,,,,,,,,,,,,,,,,,,,,,,,,,,,,,,,,,,315.5939959999996,316.09940319999987,316.09940319999987,316.8547171,316.8547171,317.3573974000001,317.3573974000001,318.2682028999998,318.2682028999998,None,num_4,0.2038775999999416,318.2682028999998,None,happy,1,Sad,318.4764879000004,None,None,318.4764879000004,None,,,,,,,,,,,,,,,,,,,,,,,,,,,,,,,,,,,,,,,,,,,,,,,,,,,,,5,001,male,20,500,500,2022_Aug_06_1237,Experiment,2021.1.4,360.1202801723732,
images\blank.jpg,images\blank.jpg,none,none,none,none,0,,612,on,2,0.5,0.75,0.5,0.766,0,611,3,1,1,3,3,48,192,240,,,,,,0,15,15,15,,,,,,,,,,,,,,,,,,,,,,,,,,,,,,,,,,,,,,,,,,,,,,,,,,,,,,,,,318.6099720000002,319.11246589999973,319.11246589999973,319.86490219999996,319.86490219999996,320.3675925999996,320.3675925999996,321.13950980000027,321.13950980000027,321.13950980000027,None,,321.13950980000027,None,miss,1,,324.1413713500001,None,None,324.1413713500001,None,,,,,,,,,,,,,,,,,,,,,,,,,,,,,,,,,,,,,,,,,,,,,,,,,,,,,5,001,male,20,500,500,2022_Aug_06_1237,Experiment,2021.1.4,360.1202801723732,
images\S9_F_H_01.png,images\S9_F_H_01_scrambled.png,9,happy,10,female,4,,409,off,1,0.5,0.75,0.5,0.886,3,408,1,1,1,0,0,0,0,4,,,,,,0,16,16,16,,,,,,,,,,,,,,,,,,,,,,,,,,,,,,,,,,,,,,,,,,,,,,,,,,,,,,,,,324.2554361000002,324.7578782999999,324.7578782999999,325.5075907999999,325.5075907999999,326.01303310000003,326.01303310000003,326.90173779999986,326.90173779999986,None,num_4,0.3381073999998989,326.90173779999986,324.2554361000002,happy,1,Happy,327.26269740000043,None,None,327.26269740000043,None,,,,,,,,,,,,,,,,,,,,,,,,,,,,,,,,,,,,,,,,,,,,,,,,,,,,,5,001,male,20,500,500,2022_Aug_06_1237,Experiment,2021.1.4,360.1202801723732,
images\S1_F_H_02.png,images\S1_F_H_02_scrambled.png,1,happy,20,female,5,,482,off,1,0.5,0.75,0.5,0.886,3,481,2,1,1,0,0,0,0,5,,,,,,0,17,17,17,,,,,,,,,,,,,,,,,,,,,,,,,,,,,,,,,,,,,,,,,,,,,,,,,,,,,,,,,327.3737149999997,327.8764277999999,327.8764277999999,328.6261187,328.6261187,329.1286947999997,329.1286947999997,330.01733669999976,330.01733669999976,None,num_4,0.26255870000022696,330.01733669999976,None,happy,1,Happy,330.30623689999993,None,None,330.30623689999993,None,,,,,,,,,,,,,,,,,,,,,,,,,,,,,,,,,,,,,,,,,,,,,,,,,,,,,5,001,male,20,500,500,2022_Aug_06_1237,Experiment,2021.1.4,360.1202801723732,
images\S8_M_S_03.png,images\S8_M_S_03_scrambled.png,8,sad,-30,male,1,,348,on,2,0.5,0.75,0.5,0.79,3,347,1,1,1,2,2,32,128,161,,,,,,0,18,18,18,,,,,,,,,,,,,,,,,,,,,,,,,,,,,,,,,,,,,,,,,,,,,,,,,,,,,,,,,330.4199748000001,330.9198129999995,330.9198129999995,331.6751532999997,331.6751532999997,332.1777548,332.1777548,332.9719543000001,332.9719543000001,None,num_6,0.3318291000005047,332.9719543000001,None,sad,1,Sad,333.3191031500005,None,None,333.3191031500005,None,,,,,,,,,,,,,,,,,,,,,,,,,,,,,,,,,,,,,,,,,,,,,,,,,,,,,5,001,male,20,500,500,2022_Aug_06_1237,Experiment,2021.1.4,360.1202801723732,
images\S4_M_H_02.png,images\S4_M_H_02_scrambled.png,4,happy,20,male,5,,380,off,1,0.5,0.75,0.5,0.862,3,379,1,1,1,0,0,0,0,5,,,,,,0,19,19,19,,,,,,,,,,,,,,,,,,,,,,,,,,,,,,,,,,,,,,,,,,,,,,,,,,,,,,,,,333.43015449999984,333.9300081000001,333.9300081000001,334.6826186999997,334.6826186999997,335.1851756999995,335.1851756999995,336.05169560000013,336.05169560000013,None,num_4,0.23607579999952577,336.05169560000013,None,happy,1,Happy,336.3126811000002,None,None,336.3126811000002,None,,,,,,,,,,,,,,,,,,,,,,,,,,,,,,,,,,,,,,,,,,,,,,,,,,,,,5,001,male,20,500,500,2022_Aug_06_1237,Experiment,2021.1.4,360.1202801723732,
images\S4_M_S_02.png,images\S4_M_S_02_scrambled.png,4,sad,-20,male,2,,443,on,2,0.5,0.75,0.5,0.894,3,442,1,2,1,2,2,32,128,162,,,,,,0,20,20,20,,,,,,,,,,,,,,,,,,,,,,,,,,,,,,,,,,,,,,,,,,,,,,,,,,,,,,,,,336.42367860000013,336.9290640999998,336.9290640999998,337.67883579999943,337.67883579999943,338.1815939999997,338.1815939999997,339.0784515999994,339.0784515999994,None,num_6,0.23323080000045593,339.0784515999994,None,sad,1,Sad,339.32279629999994,None,None,339.32279629999994,None,,,,,,,,,,,,,,,,,,,,,,,,,,,,,,,,,,,,,,,,,,,,,,,,,,,,,5,001,male,20,500,500,2022_Aug_06_1237,Experiment,2021.1.4,360.1202801723732,
images\S5_F_S_02.png,images\S5_F_S_02_scrambled.png,5,sad,-20,female,2,,89,on,2,0.5,0.75,0.5,0.769,3,88,2,1,2,2,2,32,128,162,,,,,,0,21,21,21,,,,,,,,,,,,,,,,,,,,,,,,,,,,,,,,,,,,,,,,,,,,,,,,,,,,,,,,,339.4338590999996,339.93650609999986,339.93650609999986,340.6862764999996,340.6862764999996,341.1861315999995,341.1861315999995,341.9581320999996,341.9581320999996,None,num_4,0.13771509999969567,341.9581320999996,None,happy,1,Sad,342.1053019000001,None,None,342.1053019000001,None,,,,,,,,,,,,,,,,,,,,,,,,,,,,,,,,,,,,,,,,,,,,,,,,,,,,,5,001,male,20,500,500,2022_Aug_06_1237,Experiment,2021.1.4,360.1202801723732,
images\S8_M_S_03.png,images\S8_M_S_03_scrambled.png,8,sad,-30,male,1,,528,off,1,0.5,0.75,0.5,0.804,3,527,1,1,1,0,0,0,0,1,,,,,,0,22,22,22,,,,,,,,,,,,,,,,,,,,,,,,,,,,,,,,,,,,,,,,,,,,,,,,,,,,,,,,,342.1607985999999,342.6634103999995,342.6634103999995,343.4131803999999,343.4131803999999,343.9186128000001,343.9186128000001,344.7266778000003,344.7266778000003,None,num_6,0.2491557000003013,344.7266778000003,None,sad,1,Sad,344.9961089499998,None,None,344.9961089499998,None,,,,,,,,,,,,,,,,,,,,,,,,,,,,,,,,,,,,,,,,,,,,,,,,,,,,,5,001,male,20,500,500,2022_Aug_06_1237,Experiment,2021.1.4,360.1202801723732,
images\S10_M_S_01.png,images\S10_M_S_01_scrambled.png,10,sad,-10,male,3,,298,off,1,0.5,0.75,0.5,0.903,3,297,2,1,1,0,0,0,0,3,,,,,,0,23,23,23,,,,,,,,,,,,,,,,,,,,,,,,,,,,,,,,,,,,,,,,,,,,,,,,,,,,,,,,,345.10988670000006,345.6125277000001,345.6125277000001,346.36228669999946,346.36228669999946,346.8621401999999,346.8621401999999,347.7674903999996,347.7674903999996,None,num_4,0.35225790000004054,347.7674903999996,None,happy,1,Sad,348.1256397999996,None,None,348.1256397999996,None,,,,,,,,,,,,,,,,,,,,,,,,,,,,,,,,,,,,,,,,,,,,,,,,,,,,,5,001,male,20,500,500,2022_Aug_06_1237,Experiment,2021.1.4,360.1202801723732,
images\S3_F_H_01.png,images\S3_F_H_01_scrambled.png,3,happy,10,female,4,,133,off,1,0.5,0.75,0.5,0.887,3,132,3,1,1,0,0,0,0,4,,,,,,0,24,24,24,,,,,,,,,,,,,,,,,,,,,,,,,,,,,,,,,,,,,,,,,,,,,,,,,,,,,,,,,348.21447929999977,348.7170976999996,348.7170976999996,349.4725005999999,349.4725005999999,349.97787939999944,349.97787939999944,350.86921110000003,350.86921110000003,None,num_4,0.21858630000042467,350.86921110000003,None,happy,1,Happy,351.1108964500004,None,None,351.1108964500004,None,,,,,,,,,,,,,,,,,,,,,,,,,,,,,,,,,,,,,,,,,,,,,,,,,,,,,5,001,male,20,500,500,2022_Aug_06_1237,Experiment,2021.1.4,360.1202801723732,
images\S2_M_H_03.png,images\S2_M_H_03_scrambled.png,2,happy,30,male,6,,129,off,1,0.5,0.75,0.5,0.934,3,128,4,1,1,0,0,0,0,6,,,,,,0,25,25,25,,,,,,,,,,,,,,,,,,,,,,,,,,,,,,,,,,,,,,,,,,,,,,,,,,,,,,,,,351.2246680999997,351.7273822999996,351.7273822999996,352.48266330000024,352.48266330000024,352.9824486999996,352.9824486999996,353.9183162999998,353.9183162999998,None,num_4,2.377628999999615,353.9183162999998,None,happy,1,Happy,356.30922610000016,None,None,356.30922610000016,None,,,,,,,,,,,,,,,,,,,,,,,,,,,,,,,,,,,,,,,,,,,,,,,,,,,,,5,001,male,20,500,500,2022_Aug_06_1237,Experiment,2021.1.4,360.1202801723732,
images\S5_F_S_03.png,images\S5_F_S_03_scrambled.png,5,sad,-30,female,1,,450,on,2,0.5,0.75,0.5,0.779,3,449,1,1,1,2,2,32,128,161,,,,,,0,26,26,26,,,,,,,,,,,,,,,,,,,,,,,,,,,,,,,,,,,,,,,,,,,,,,,,,,,,,,,,,356.3925214000001,356.89514549999967,356.89514549999967,357.6477249999998,357.6477249999998,358.15313049999986,358.15313049999986,358.9363093000002,358.9363093000002,None,num_4,0.40739209999992454,358.9363093000002,None,happy,1,Sad,359.35271869999997,None,None,359.35271869999997,None,,,,,,,,,,,,,,,,,,,,,,,,,,,,,,,,,,,,,,,,,,,,,,,,,,,,,5,001,male,20,500,500,2022_Aug_06_1237,Experiment,2021.1.4,360.1202801723732,
images\S3_F_H_01.png,images\S3_F_H_01_scrambled.png,3,happy,10,female,4,,73,on,2,0.5,0.75,0.5,0.768,3,72,2,1,1,2,2,32,128,164,,,,,,0,27,27,27,,,,,,,,,,,,,,,,,,,,,,,,,,,,,,,,,,,,,,,,,,,,,,,,,,,,,,,,,359.39993479999976,359.89976260000003,359.89976260000003,360.6523645999996,360.6523645999996,361.15774109999984,361.15774109999984,361.9325471000002,361.9325471000002,None,None,,361.9325471000002,None,miss,1,Happy,364.9343291499995,None,None,364.9343291499995,None,,,,,,,,,,,,,,,,,,,,,,,,,,,,,,,,,,,,,,,,,,,,,,,,,,,,,5,001,male,20,500,500,2022_Aug_06_1237,Experiment,2021.1.4,360.1202801723732,
images\S4_M_H_02.png,images\S4_M_H_02_scrambled.png,4,happy,20,male,5,,200,on,2,0.5,0.75,0.5,0.765,3,199,3,1,1,2,2,32,128,165,,,,,,0,28,28,28,,,,,,,,,,,,,,,,,,,,,,,,,,,,,,,,,,,,,,,,,,,,,,,,,,,,,,,,,364.98431639999944,365.48692630000005,365.48692630000005,366.23672869999973,366.23672869999973,366.7422177999997,366.7422177999997,367.5141112000001,367.5141112000001,364.98431639999944,num_4,0.42977109999992535,367.5141112000001,364.98431639999944,happy,1,Happy,367.9611920999996,None,None,367.9611920999996,None,,,,,,,,,,,,,,,,,,,,,,,,,,,,,,,,,,,,,,,,,,,,,,,,,,,,,5,001,male,20,500,500,2022_Aug_06_1237,Experiment,2021.1.4,360.1202801723732,
images\S9_F_H_01.png,images\S9_F_H_01_scrambled.png,9,happy,10,female,4,,349,on,2,0.5,0.75,0.5,0.836,3,348,4,1,1,2,2,32,128,164,,,,,,0,29,29,29,,,,,,,,,,,,,,,,,,,,,,,,,,,,,,,,,,,,,,,,,,,,,,,,,,,,,,,,,368.00838719999956,368.5138039000003,368.5138039000003,369.2663255999996,369.2663255999996,369.7717468999999,369.7717468999999,370.61316850000003,370.61316850000003,None,num_4,0.29862670000056823,370.61316850000003,None,happy,1,Happy,370.93811300000016,None,None,370.93811300000016,None,,,,,,,,,,,,,,,,,,,,,,,,,,,,,,,,,,,,,,,,,,,,,,,,,,,,,5,001,male,20,500,500,2022_Aug_06_1237,Experiment,2021.1.4,360.1202801723732,
images\S6_M_H_01.png,images\S6_M_H_01_scrambled.png,6,happy,10,male,4,,391,off,1,0.5,0.75,0.5,0.88,3,390,1,1,2,0,0,0,0,4,,,,,,0,30,30,30,,,,,,,,,,,,,,,,,,,,,,,,,,,,,,,,,,,,,,,,,,,,,,,,,,,,,,,,,371.0491070999997,371.55185359999996,371.55185359999996,372.3042876999998,372.3042876999998,372.8041207999995,372.8041207999995,373.6872768000003,373.6872768000003,None,num_6,0.8006207000007635,373.6872768000003,None,sad,1,Happy,374.49250759999995,None,None,374.49250759999995,None,,,,,,,,,,,,,,,,,,,,,,,,,,,,,,,,,,,,,,,,,,,,,,,,,,,,,5,001,male,20,500,500,2022_Aug_06_1237,Experiment,2021.1.4,360.1202801723732,
images\S2_M_H_02.png,images\S2_M_H_02_scrambled.png,2,happy,20,male,5,,548,on,2,0.5,0.75,0.5,0.785,3,547,1,1,1,2,2,32,128,165,,,,,,0,31,31,31,,,,,,,,,,,,,,,,,,,,,,,,,,,,,,,,,,,,,,,,,,,,,,,,,,,,,,,,,374.57579949999945,375.0784120999997,375.0784120999997,375.8309638999999,375.8309638999999,376.3308469000003,376.3308469000003,377.12232609999955,377.12232609999955,None,num_4,0.2694908999992549,377.12232609999955,None,happy,1,Happy,377.41388410000036,None,None,377.41388410000036,None,,,,,,,,,,,,,,,,,,,,,,,,,,,,,,,,,,,,,,,,,,,,,,,,,,,,,5,001,male,20,500,500,2022_Aug_06_1237,Experiment,2021.1.4,360.1202801723732,
images\S7_F_H_01.png,images\S7_F_H_01_scrambled.png,7,happy,10,female,4,,397,off,1,0.5,0.75,0.5,0.769,3,396,1,1,1,0,0,0,0,4,,,,,,0,32,32,32,,,,,,,,,,,,,,,,,,,,,,,,,,,,,,,,,,,,,,,,,,,,,,,,,,,,,,,,,377.5248878000002,378.0275634999998,378.0275634999998,378.78288150000026,378.78288150000026,379.28826560000016,379.28826560000016,380.0630579999997,380.0630579999997,None,num_4,0.2648902000000817,380.0630579999997,None,happy,1,Happy,380.3491598999999,None,None,380.3491598999999,None,,,,,,,,,,,,,,,,,,,,,,,,,,,,,,,,,,,,,,,,,,,,,,,,,,,,,5,001,male,20,500,500,2022_Aug_06_1237,Experiment,2021.1.4,360.1202801723732,
images\S10_M_S_02.png,images\S10_M_S_02_scrambled.png,10,sad,-20,male,2,,299,off,1,0.5,0.75,0.5,0.942,3,298,2,1,1,0,0,0,0,2,,,,,,0,33,33,33,,,,,,,,,,,,,,,,,,,,,,,,,,,,,,,,,,,,,,,,,,,,,,,,,,,,,,,,,380.46287179999945,380.96831010000005,380.96831010000005,381.7208148999998,381.7208148999998,382.223473,382.223473,383.1676526000001,383.1676526000001,None,num_4,0.376223299999765,383.1676526000001,None,happy,1,Sad,383.5480557000001,None,None,383.5480557000001,None,,,,,,,,,,,,,,,,,,,,,,,,,,,,,,,,,,,,,,,,,,,,,,,,,,,,,5,001,male,20,500,500,2022_Aug_06_1237,Experiment,2021.1.4,360.1202801723732,
images\blank.jpg,images\blank.jpg,none,none,none,none,0,,617,on,2,0.5,0.75,0.5,0.822,0,616,1,1,1,3,3,48,192,240,,,,,,0,34,34,34,,,,,,,,,,,,,,,,,,,,,,,,,,,,,,,,,,,,,,,,,,,,,,,,,,,,,,,,,383.63434119999965,384.1395286999996,384.1395286999996,384.89217370000006,384.89217370000006,385.39467049999985,385.39467049999985,386.21667830000024,386.21667830000024,386.21667830000024,None,,386.21667830000024,None,miss,1,,389.21574525000005,None,None,389.21574525000005,None,,,,,,,,,,,,,,,,,,,,,,,,,,,,,,,,,,,,,,,,,,,,,,,,,,,,,5,001,male,20,500,500,2022_Aug_06_1237,Experiment,2021.1.4,360.1202801723732,
images\S8_M_S_02.png,images\S8_M_S_02_scrambled.png,8,sad,-20,male,2,,227,on,2,0.5,0.75,0.5,0.847,3,226,2,1,1,2,2,32,128,162,,,,,,0,35,35,35,,,,,,,,,,,,,,,,,,,,,,,,,,,,,,,,,,,,,,,,,,,,,,,,,,,,,,,,,389.3631151999998,389.8683272999997,389.8683272999997,390.62365260000024,390.62365260000024,391.12347150000005,391.12347150000005,391.9704353999996,391.9704353999996,None,num_6,0.27743520000058197,391.9704353999996,389.3631151999998,sad,1,Sad,392.27601200000026,None,None,392.27601200000026,None,,,,,,,,,,,,,,,,,,,,,,,,,,,,,,,,,,,,,,,,,,,,,,,,,,,,,5,001,male,20,500,500,2022_Aug_06_1237,Experiment,2021.1.4,360.1202801723732,
images\S6_M_H_01.png,images\S6_M_H_01_scrambled.png,6,happy,10,male,4,,31,off,1,0.5,0.75,0.5,0.773,3,30,1,1,1,0,0,0,0,4,,,,,,0,36,36,36,,,,,,,,,,,,,,,,,,,,,,,,,,,,,,,,,,,,,,,,,,,,,,,,,,,,,,,,,392.3314244000003,392.83407009999974,392.83407009999974,393.58661570000004,393.58661570000004,394.0921239999998,394.0921239999998,394.86952999999994,394.86952999999994,None,num_4,0.29824180000014167,394.86952999999994,None,happy,1,Happy,395.1918190500005,None,None,395.1918190500005,None,,,,,,,,,,,,,,,,,,,,,,,,,,,,,,,,,,,,,,,,,,,,,,,,,,,,,5,001,male,20,500,500,2022_Aug_06_1237,Experiment,2021.1.4,360.1202801723732,
images\S1_F_H_02.png,images\S1_F_H_02_scrambled.png,1,happy,20,female,5,,422,on,2,0.5,0.75,0.5,0.879,3,421,1,1,1,2,2,32,128,165,,,,,,0,37,37,37,,,,,,,,,,,,,,,,,,,,,,,,,,,,,,,,,,,,,,,,,,,,,,,,,,,,,,,,,395.2416457999998,395.74715490000017,395.74715490000017,396.49959899999976,396.49959899999976,397.0022968000003,397.0022968000003,397.88808549999976,397.88808549999976,None,num_4,0.2636497000003146,397.88808549999976,None,happy,1,Happy,398.1742021,None,None,398.1742021,None,,,,,,,,,,,,,,,,,,,,,,,,,,,,,,,,,,,,,,,,,,,,,,,,,,,,,5,001,male,20,500,500,2022_Aug_06_1237,Experiment,2021.1.4,360.1202801723732,
images\S8_M_S_01.png,images\S8_M_S_01_scrambled.png,8,sad,-10,male,3,,586,on,2,0.5,0.75,0.5,0.788,3,585,2,1,1,2,2,32,128,163,,,,,,0,38,38,38,,,,,,,,,,,,,,,,,,,,,,,,,,,,,,,,,,,,,,,,,,,,,,,,,,,,,,,,,398.2851518999996,398.7877744999996,398.7877744999996,399.5431182000002,399.5431182000002,400.0485246999997,400.0485246999997,400.8427541000001,400.8427541000001,None,num_4,0.18894499999987602,400.8427541000001,None,happy,1,Sad,401.0427694,None,None,401.0427694,None,,,,,,,,,,,,,,,,,,,,,,,,,,,,,,,,,,,,,,,,,,,,,,,,,,,,,5,001,male,20,500,500,2022_Aug_06_1237,Experiment,2021.1.4,360.1202801723732,
images\S6_M_H_02.png,images\S6_M_H_02_scrambled.png,6,happy,20,male,5,,212,on,2,0.5,0.75,0.5,0.752,3,211,3,1,1,2,2,32,128,165,,,,,,0,39,39,39,,,,,,,,,,,,,,,,,,,,,,,,,,,,,,,,,,,,,,,,,,,,,,,,,,,,,,,,,401.15926709999985,401.66191100000015,401.66191100000015,402.41442709999956,402.41442709999956,402.91715999999997,402.91715999999997,403.6724561000001,403.6724561000001,None,num_4,0.22315549999984796,403.6724561000001,None,happy,1,Happy,403.9112196500005,None,None,403.9112196500005,None,,,,,,,,,,,,,,,,,,,,,,,,,,,,,,,,,,,,,,,,,,,,,,,,,,,,,5,001,male,20,500,500,2022_Aug_06_1237,Experiment,2021.1.4,360.1202801723732,
images\S6_M_S_01.png,images\S6_M_S_01_scrambled.png,6,sad,-10,male,3,,94,on,2,0.5,0.75,0.5,0.947,3,93,4,2,1,2,2,32,128,163,,,,,,0,40,40,40,,,,,,,,,,,,,,,,,,,,,,,,,,,,,,,,,,,,,,,,,,,,,,,,,,,,,,,,,404.0250439000001,404.52772559999994,404.52772559999994,405.28026919999957,405.28026919999957,405.7828360000003,405.7828360000003,406.7325387000001,406.7325387000001,None,num_4,0.18712839999989228,406.7325387000001,None,happy,1,Sad,406.9297745500003,None,None,406.9297745500003,None,,,,,,,,,,,,,,,,,,,,,,,,,,,,,,,,,,,,,,,,,,,,,,,,,,,,,5,001,male,20,500,500,2022_Aug_06_1237,Experiment,2021.1.4,360.1202801723732,
images\S1_F_H_03.png,images\S1_F_H_03_scrambled.png,1,happy,30,female,6,,3,off,1,0.5,0.75,0.5,0.76,3,2,1,1,1,0,0,0,0,6,,,,,,0,41,41,41,,,,,,,,,,,,,,,,,,,,,,,,,,,,,,,,,,,,,,,,,,,,,,,,,,,,,,,,,407.0407852999997,407.5434269999996,407.5434269999996,408.29316479999943,408.29316479999943,408.7958325999998,408.7958325999998,409.5622215000003,409.5622215000003,None,num_4,0.22162699999989854,409.5622215000003,None,happy,1,Happy,409.7982793000001,None,None,409.7982793000001,None,,,,,,,,,,,,,,,,,,,,,,,,,,,,,,,,,,,,,,,,,,,,,,,,,,,,,5,001,male,20,500,500,2022_Aug_06_1237,Experiment,2021.1.4,360.1202801723732,
images\S7_F_H_03.png,images\S7_F_H_03_scrambled.png,7,happy,30,female,6,,99,on,2,0.5,0.75,0.5,0.813,3,98,1,1,2,2,2,32,128,166,,,,,,0,42,42,42,,,,,,,,,,,,,,,,,,,,,,,,,,,,,,,,,,,,,,,,,,,,,,,,,,,,,,,,,409.88435599999957,410.38699649999944,410.38699649999944,411.1367567999996,411.1367567999996,411.64222919999975,411.64222919999975,412.45854679999957,412.45854679999957,None,num_4,0.3011999000000287,412.45854679999957,None,happy,1,Happy,412.78636860000006,None,None,412.78636860000006,None,,,,,,,,,,,,,,,,,,,,,,,,,,,,,,,,,,,,,,,,,,,,,,,,,,,,,5,001,male,20,500,500,2022_Aug_06_1237,Experiment,2021.1.4,360.1202801723732,
images\S9_F_H_01.png,images\S9_F_H_01_scrambled.png,9,happy,10,female,4,,289,off,1,0.5,0.75,0.5,0.875,3,288,1,1,1,0,0,0,0,4,,,,,,0,43,43,43,,,,,,,,,,,,,,,,,,,,,,,,,,,,,,,,,,,,,,,,,,,,,,,,,,,,,,,,,412.8389963999998,413.34175719999985,413.34175719999985,414.09140879999995,414.09140879999995,414.59691920000023,414.59691920000023,415.47721290000027,415.47721290000027,None,num_4,0.4107231000007232,415.47721290000027,None,happy,1,Happy,415.9019576999999,None,None,415.9019576999999,None,,,,,,,,,,,,,,,,,,,,,,,,,,,,,,,,,,,,,,,,,,,,,,,,,,,,,5,001,male,20,500,500,2022_Aug_06_1237,Experiment,2021.1.4,360.1202801723732,
images\S7_F_S_01.png,images\S7_F_S_01_scrambled.png,7,sad,-10,female,3,,220,on,2,0.5,0.75,0.5,0.927,3,219,1,1,1,2,2,32,128,163,,,,,,0,44,44,44,,,,,,,,,,,,,,,,,,,,,,,,,,,,,,,,,,,,,,,,,,,,,,,,,,,,,,,,,415.9852522000001,416.4906424999999,416.4906424999999,417.24040909999985,417.24040909999985,417.74032089999946,417.74032089999946,418.6733426999999,418.6733426999999,None,num_6,0.38240849999965576,418.6733426999999,None,sad,1,Sad,419.07042490000003,None,None,419.07042490000003,None,,,,,,,,,,,,,,,,,,,,,,,,,,,,,,,,,,,,,,,,,,,,,,,,,,,,,5,001,male,20,500,500,2022_Aug_06_1237,Experiment,2021.1.4,360.1202801723732,
images\S4_M_H_02.png,images\S4_M_H_02_scrambled.png,4,happy,20,male,5,,80,on,2,0.5,0.75,0.5,0.756,3,79,2,1,1,2,2,32,128,165,,,,,,0,45,45,45,,,,,,,,,,,,,,,,,,,,,,,,,,,,,,,,,,,,,,,,,,,,,,,,,,,,,,,,,419.12039039999945,419.62301039999966,419.62301039999966,420.3783588999995,420.3783588999995,420.8781743999998,420.8781743999998,421.6362739999995,421.6362739999995,None,num_4,0.21941609999976208,421.6362739999995,None,happy,1,Happy,421.87792640000043,None,None,421.87792640000043,None,,,,,,,,,,,,,,,,,,,,,,,,,,,,,,,,,,,,,,,,,,,,,,,,,,,,,5,001,male,20,500,500,2022_Aug_06_1237,Experiment,2021.1.4,360.1202801723732,
images\S9_F_H_02.png,images\S9_F_H_02_scrambled.png,9,happy,20,female,5,,50,off,1,0.5,0.75,0.5,0.945,3,49,1,1,2,0,0,0,0,5,,,,,,0,46,46,46,,,,,,,,,,,,,,,,,,,,,,,,,,,,,,,,,,,,,,,,,,,,,,,,,,,,,,,,,421.94174250000015,422.4472241000003,422.4472241000003,423.1997449999999,423.1997449999999,423.7024185999999,423.7024185999999,424.6521517000001,424.6521517000001,None,num_4,0.25146760000006907,424.6521517000001,None,happy,1,Happy,424.91863694999984,None,None,424.91863694999984,None,,,,,,,,,,,,,,,,,,,,,,,,,,,,,,,,,,,,,,,,,,,,,,,,,,,,,5,001,male,20,500,500,2022_Aug_06_1237,Experiment,2021.1.4,360.1202801723732,
images\blank.jpg,images\blank.jpg,none,none,none,none,0,,620,on,2,0.5,0.75,0.5,0.873,0,619,1,1,1,3,3,48,192,240,,,,,,0,47,47,47,,,,,,,,,,,,,,,,,,,,,,,,,,,,,,,,,,,,,,,,,,,,,,,,,,,,,,,,,425.0020859999995,425.5073887999997,425.5073887999997,426.26268699999946,426.26268699999946,426.76805199999944,426.76805199999944,427.6400429999994,427.6400429999994,427.6400429999994,None,,427.6400429999994,None,miss,1,,430.6446794000003,None,None,430.6446794000003,None,,,,,,,,,,,,,,,,,,,,,,,,,,,,,,,,,,,,,,,,,,,,,,,,,,,,,5,001,male,20,500,500,2022_Aug_06_1237,Experiment,2021.1.4,360.1202801723732,
images\S7_F_H_03.png,images\S7_F_H_03_scrambled.png,7,happy,30,female,6,,579,on,2,0.5,0.75,0.5,0.814,3,578,2,1,1,2,2,32,128,166,,,,,,0,48,48,48,,,,,,,,,,,,,,,,,,,,,,,,,,,,,,,,,,,,,,,,,,,,,,,,,,,,,,,,,430.764279,431.26676789999965,431.26676789999965,432.0164069000002,432.0164069000002,432.52190429999973,432.52190429999973,433.33824110000023,433.33824110000023,None,num_4,0.5734168999997564,433.33824110000023,430.764279,happy,1,Happy,433.9241729000005,None,None,433.9241729000005,None,,,,,,,,,,,,,,,,,,,,,,,,,,,,,,,,,,,,,,,,,,,,,,,,,,,,,5,001,male,20,500,500,2022_Aug_06_1237,Experiment,2021.1.4,360.1202801723732,
images\blank.jpg,images\blank.jpg,none,none,none,none,0,,608,on,2,0.5,0.75,0.5,0.944,0,607,3,1,1,3,3,48,192,240,,,,,,0,49,49,49,,,,,,,,,,,,,,,,,,,,,,,,,,,,,,,,,,,,,,,,,,,,,,,,,,,,,,,,,434.01051019999977,434.5129017999998,434.5129017999998,435.26822360000006,435.26822360000006,435.7708057,435.7708057,436.7177894999995,436.7177894999995,436.7177894999995,None,,436.7177894999995,None,miss,1,,439.71683214999985,None,None,439.71683214999985,None,,,,,,,,,,,,,,,,,,,,,,,,,,,,,,,,,,,,,,,,,,,,,,,,,,,,,5,001,male,20,500,500,2022_Aug_06_1237,Experiment,2021.1.4,360.1202801723732,
images\S4_M_H_01.png,images\S4_M_H_01_scrambled.png,4,happy,10,male,4,,19,off,1,0.5,0.75,0.5,0.934,3,18,1,1,1,0,0,0,0,4,,,,,,0,50,50,50,,,,,,,,,,,,,,,,,,,,,,,,,,,,,,,,,,,,,,,,,,,,,,,,,,,,,,,,,439.86410590000014,440.3666081000001,440.3666081000001,441.11639860000014,441.11639860000014,441.6219033999996,441.6219033999996,442.5576633999999,442.5576633999999,None,num_6,0.489892300000065,442.5576633999999,439.86410590000014,sad,1,Happy,443.0519094000001,None,None,443.0519094000001,None,,,,,,,,,,,,,,,,,,,,,,,,,,,,,,,,,,,,,,,,,,,,,,,,,,,,,5,001,male,20,500,500,2022_Aug_06_1237,Experiment,2021.1.4,360.1202801723732,
images\S5_F_H_03.png,images\S5_F_H_03_scrambled.png,5,happy,30,female,6,,207,on,2,0.5,0.75,0.5,0.801,3,206,1,1,1,2,2,32,128,166,,,,,,0,51,51,51,,,,,,,,,,,,,,,,,,,,,,,,,,,,,,,,,,,,,,,,,,,,,,,,,,,,,,,,,443.1629776,443.662816,443.662816,444.4153871999997,444.4153871999997,444.9152661999997,444.9152661999997,445.7233449999994,445.7233449999994,None,num_4,0.24428160000024945,445.7233449999994,None,happy,1,Happy,445.9871800000001,None,None,445.9871800000001,None,,,,,,,,,,,,,,,,,,,,,,,,,,,,,,,,,,,,,,,,,,,,,,,,,,,,,5,001,male,20,500,500,2022_Aug_06_1237,Experiment,2021.1.4,360.1202801723732,
images\S2_M_H_02.png,images\S2_M_H_02_scrambled.png,2,happy,20,male,5,,8,off,1,0.5,0.75,0.5,0.782,3,7,1,1,1,0,0,0,0,5,,,,,,0,52,52,52,,,,,,,,,,,,,,,,,,,,,,,,,,,,,,,,,,,,,,,,,,,,,,,,,,,,,,,,,446.0372139000001,446.5397237999996,446.5397237999996,447.2950315999997,447.2950315999997,447.79768309999963,447.79768309999963,448.5807471999997,448.5807471999997,None,num_4,0.2909324000002016,448.5807471999997,None,happy,1,Happy,448.8891076,None,None,448.8891076,None,,,,,,,,,,,,,,,,,,,,,,,,,,,,,,,,,,,,,,,,,,,,,,,,,,,,,5,001,male,20,500,500,2022_Aug_06_1237,Experiment,2021.1.4,360.1202801723732,
images\S6_M_H_01.png,images\S6_M_H_01_scrambled.png,6,happy,10,male,4,,151,off,1,0.5,0.75,0.5,0.775,3,150,2,1,1,0,0,0,0,4,,,,,,0,53,53,53,,,,,,,,,,,,,,,,,,,,,,,,,,,,,,,,,,,,,,,,,,,,,,,,,,,,,,,,,448.9417478999994,449.4472538,449.4472538,450.1996978999996,450.1996978999996,450.7023829999998,450.7023829999998,451.47707040000023,451.47707040000023,None,num_4,0.3624656000001778,451.47707040000023,None,happy,1,Happy,451.85198219999984,None,None,451.85198219999984,None,,,,,,,,,,,,,,,,,,,,,,,,,,,,,,,,,,,,,,,,,,,,,,,,,,,,,5,001,male,20,500,500,2022_Aug_06_1237,Experiment,2021.1.4,360.1202801723732,
images\S7_F_H_03.png,images\S7_F_H_03_scrambled.png,7,happy,30,female,6,,519,off,1,0.5,0.75,0.5,0.856,3,518,3,1,1,0,0,0,0,6,,,,,,0,54,54,54,,,,,,,,,,,,,,,,,,,,,,,,,,,,,,,,,,,,,,,,,,,,,,,,,,,,,,,,,451.90206789999957,452.40742899999987,452.40742899999987,453.1598948999999,453.1598948999999,453.6625630999997,453.6625630999997,454.52338409999993,454.52338409999993,None,num_4,0.21226819999992586,454.52338409999993,None,happy,1,Happy,454.75677165000025,None,None,454.75677165000025,None,,,,,,,,,,,,,,,,,,,,,,,,,,,,,,,,,,,,,,,,,,,,,,,,,,,,,5,001,male,20,500,500,2022_Aug_06_1237,Experiment,2021.1.4,360.1202801723732,
images\blank.jpg,images\blank.jpg,none,none,none,none,0,,607,on,2,0.5,0.75,0.5,0.925,0,606,1,1,1,3,3,48,192,240,,,,,,0,55,55,55,,,,,,,,,,,,,,,,,,,,,,,,,,,,,,,,,,,,,,,,,,,,,,,,,,,,,,,,,454.8428795,455.3481321999998,455.3481321999998,456.1034440000003,456.1034440000003,456.60884949999945,456.60884949999945,457.5363103999998,457.5363103999998,457.5363103999998,None,,457.5363103999998,None,miss,1,,460.5381914499999,None,None,460.5381914499999,None,,,,,,,,,,,,,,,,,,,,,,,,,,,,,,,,,,,,,,,,,,,,,,,,,,,,,5,001,male,20,500,500,2022_Aug_06_1237,Experiment,2021.1.4,360.1202801723732,
images\S6_M_H_01.png,images\S6_M_H_01_scrambled.png,6,happy,10,male,4,,211,on,2,0.5,0.75,0.5,0.877,3,210,2,1,1,2,2,32,128,164,,,,,,0,56,56,56,,,,,,,,,,,,,,,,,,,,,,,,,,,,,,,,,,,,,,,,,,,,,,,,,,,,,,,,,460.6523006999996,461.1574783999995,461.1574783999995,461.9071869999998,461.9071869999998,462.4126433000001,462.4126433000001,463.2928842000001,463.2928842000001,None,num_4,0.234798999999839,463.2928842000001,460.6523006999996,happy,1,Happy,463.55123940000067,None,None,463.55123940000067,None,,,,,,,,,,,,,,,,,,,,,,,,,,,,,,,,,,,,,,,,,,,,,,,,,,,,,5,001,male,20,500,500,2022_Aug_06_1237,Experiment,2021.1.4,360.1202801723732,
images\S6_M_H_01.png,images\S6_M_H_01_scrambled.png,6,happy,10,male,4,,571,on,2,0.5,0.75,0.5,0.849,3,570,3,2,2,2,2,32,128,164,,,,,,0,57,57,57,,,,,,,,,,,,,,,,,,,,,,,,,,,,,,,,,,,,,,,,,,,,,,,,,,,,,,,,,463.60666369999944,464.1122027000001,464.1122027000001,464.86743860000024,464.86743860000024,465.37283879999995,465.37283879999995,466.2252990999996,466.2252990999996,None,num_4,0.44634099999984755,466.2252990999996,None,happy,1,Happy,466.68916009999975,None,None,466.68916009999975,None,,,,,,,,,,,,,,,,,,,,,,,,,,,,,,,,,,,,,,,,,,,,,,,,,,,,,5,001,male,20,500,500,2022_Aug_06_1237,Experiment,2021.1.4,360.1202801723732,
images\S7_F_S_01.png,images\S7_F_S_01_scrambled.png,7,sad,-10,female,3,,460,on,2,0.5,0.75,0.5,0.865,3,459,4,1,1,2,2,32,128,163,,,,,,0,58,58,58,,,,,,,,,,,,,,,,,,,,,,,,,,,,,,,,,,,,,,,,,,,,,,,,,,,,,,,,,466.74181469999985,467.2416739999999,467.2416739999999,467.9914504999997,467.9914504999997,468.4969447000003,468.4969447000003,469.36880479999945,469.36880479999945,None,num_6,0.2707892999997057,469.36880479999945,None,sad,1,Sad,469.65206615000034,None,None,469.65206615000034,None,,,,,,,,,,,,,,,,,,,,,,,,,,,,,,,,,,,,,,,,,,,,,,,,,,,,,5,001,male,20,500,500,2022_Aug_06_1237,Experiment,2021.1.4,360.1202801723732,
images\S3_F_S_03.png,images\S3_F_S_03_scrambled.png,3,sad,-30,female,1,,18,off,1,0.5,0.75,0.5,0.753,3,17,1,1,1,0,0,0,0,1,,,,,,0,59,59,59,,,,,,,,,,,,,,,,,,,,,,,,,,,,,,,,,,,,,,,,,,,,,,,,,,,,,,,,,469.7631672999996,470.26572450000003,470.26572450000003,471.01829499999985,471.01829499999985,471.52369389999967,471.52369389999967,472.2819233,472.2819233,None,num_6,0.3416422000000239,472.2819233,None,sad,1,Sad,472.63723519999985,None,None,472.63723519999985,None,,,,,,,,,,,,,,,,,,,,,,,,,,,,,,,,,,,,,,,,,,,,,,,,,,,,,5,001,male,20,500,500,2022_Aug_06_1237,Experiment,2021.1.4,360.1202801723732,
images\S10_M_S_03.png,images\S10_M_S_03_scrambled.png,10,sad,-30,male,1,,240,on,2,0.5,0.75,0.5,0.772,3,239,1,1,2,2,2,32,128,161,,,,,,0,60,60,60,,,,,,,,,,,,,,,,,,,,,,,,,,,,,,,,,,,,,,,,,,,,,,,,,,,,,,,,,472.6844326999999,473.1871218999995,473.1871218999995,473.9424264999998,473.9424264999998,474.44782209999994,474.44782209999994,475.22252169999956,475.22252169999956,None,num_6,0.44116400000075373,475.22252169999956,None,sad,1,Sad,475.6919477000001,None,None,475.6919477000001,None,,,,,,,,,,,,,,,,,,,,,,,,,,,,,,,,,,,,,,,,,,,,,,,,,,,,,5,001,male,20,500,500,2022_Aug_06_1237,Experiment,2021.1.4,360.1202801723732,
images\S8_M_S_02.png,images\S8_M_S_02_scrambled.png,8,sad,-20,male,2,,467,on,2,0.5,0.75,0.5,0.86,3,466,2,1,1,2,2,32,128,162,,,,,,0,61,61,61,,,,,,,,,,,,,,,,,,,,,,,,,,,,,,,,,,,,,,,,,,,,,,,,,,,,,,,,,475.7445895000001,476.24445360000027,476.24445360000027,476.99711599999955,476.99711599999955,477.4995968000003,477.4995968000003,478.36325299999953,478.36325299999953,None,num_4,0.33235029999923427,478.36325299999953,None,happy,1,Sad,478.7076305999999,None,None,478.7076305999999,None,,,,,,,,,,,,,,,,,,,,,,,,,,,,,,,,,,,,,,,,,,,,,,,,,,,,,5,001,male,20,500,500,2022_Aug_06_1237,Experiment,2021.1.4,360.1202801723732,
images\blank.jpg,images\blank.jpg,none,none,none,none,0,,605,on,2,0.5,0.75,0.5,0.94,0,604,3,1,1,3,3,48,192,240,,,,,,0,62,62,62,,,,,,,,,,,,,,,,,,,,,,,,,,,,,,,,,,,,,,,,,,,,,,,,,,,,,,,,,478.79660499999954,479.2962986000002,479.2962986000002,480.0460371999998,480.0460371999998,480.54865549999977,480.54865549999977,481.4900683999995,481.4900683999995,481.4900683999995,None,,481.4900683999995,None,miss,1,,484.4947345999999,None,None,484.4947345999999,None,,,,,,,,,,,,,,,,,,,,,,,,,,,,,,,,,,,,,,,,,,,,,,,,,,,,,5,001,male,20,500,500,2022_Aug_06_1237,Experiment,2021.1.4,360.1202801723732,
images\S3_F_S_03.png,images\S3_F_S_03_scrambled.png,3,sad,-30,female,1,,78,on,2,0.5,0.75,0.5,0.878,3,77,4,1,1,2,2,32,128,161,,,,,,0,63,63,63,,,,,,,,,,,,,,,,,,,,,,,,,,,,,,,,,,,,,,,,,,,,,,,,,,,,,,,,,484.61423509999986,485.11669379999967,485.11669379999967,485.8721432000002,485.8721432000002,486.3746357,486.3746357,487.2577570000003,487.2577570000003,None,num_6,0.2619077000008474,487.2577570000003,484.61423509999986,sad,1,Sad,487.54105359999994,None,None,487.54105359999994,None,,,,,,,,,,,,,,,,,,,,,,,,,,,,,,,,,,,,,,,,,,,,,,,,,,,,,5,001,male,20,500,500,2022_Aug_06_1237,Experiment,2021.1.4,360.1202801723732,
images\S6_M_H_03.png,images\S6_M_H_03_scrambled.png,6,happy,30,male,6,,333,on,2,0.5,0.75,0.5,0.937,3,332,5,1,1,2,2,32,128,166,,,,,,0,64,64,64,,,,,,,,,,,,,,,,,,,,,,,,,,,,,,,,,,,,,,,,,,,,,,,,,,,,,,,,,487.64925309999944,488.15202640000007,488.15202640000007,488.9016591999998,488.9016591999998,489.40151369999967,489.40151369999967,490.3429035999998,490.3429035999998,None,num_4,0.24064999999973224,490.3429035999998,None,happy,1,Happy,490.60397340000054,None,None,490.60397340000054,None,,,,,,,,,,,,,,,,,,,,,,,,,,,,,,,,,,,,,,,,,,,,,,,,,,,,,5,001,male,20,500,500,2022_Aug_06_1237,Experiment,2021.1.4,360.1202801723732,
images\S5_F_S_01.png,images\S5_F_S_01_scrambled.png,5,sad,-10,female,3,,208,on,2,0.5,0.75,0.5,0.95,3,207,6,1,1,2,2,32,128,163,,,,,,0,65,65,65,,,,,,,,,,,,,,,,,,,,,,,,,,,,,,,,,,,,,,,,,,,,,,,,,,,,,,,,,490.65940520000004,491.1621180000002,491.1621180000002,491.9146080999999,491.9146080999999,492.4172189000001,492.4172189000001,493.3725394000003,493.3725394000003,None,num_4,0.36305299999912677,493.3725394000003,None,happy,1,Sad,493.7474708499999,None,None,493.7474708499999,None,,,,,,,,,,,,,,,,,,,,,,,,,,,,,,,,,,,,,,,,,,,,,,,,,,,,,5,001,male,20,500,500,2022_Aug_06_1237,Experiment,2021.1.4,360.1202801723732,
images\S7_F_S_03.png,images\S7_F_S_03_scrambled.png,7,sad,-30,female,1,,162,off,1,0.5,0.75,0.5,0.813,3,161,1,1,1,0,0,0,0,1,,,,,,0,66,66,66,,,,,,,,,,,,,,,,,,,,,,,,,,,,,,,,,,,,,,,,,,,,,,,,,,,,,,,,,493.8140126999997,494.31942660000004,494.31942660000004,495.0691813000003,495.0691813000003,495.5719573999995,495.5719573999995,496.39113929999985,496.39113929999985,None,num_6,0.26461419999941427,496.39113929999985,None,sad,1,Sad,496.67713749999984,None,None,496.67713749999984,None,,,,,,,,,,,,,,,,,,,,,,,,,,,,,,,,,,,,,,,,,,,,,,,,,,,,,5,001,male,20,500,500,2022_Aug_06_1237,Experiment,2021.1.4,360.1202801723732,
images\S4_M_S_03.png,images\S4_M_S_03_scrambled.png,4,sad,-30,male,1,,504,off,1,0.5,0.75,0.5,0.906,3,503,2,1,2,0,0,0,0,1,,,,,,0,67,67,67,,,,,,,,,,,,,,,,,,,,,,,,,,,,,,,,,,,,,,,,,,,,,,,,,,,,,,,,,496.7297814000003,497.2324626999998,497.2324626999998,497.9877588999998,497.9877588999998,498.4931633999995,498.4931633999995,499.4013097999996,499.4013097999996,None,num_6,0.2142889999995532,499.4013097999996,None,sad,1,Sad,499.6428584000005,None,None,499.6428584000005,None,,,,,,,,,,,,,,,,,,,,,,,,,,,,,,,,,,,,,,,,,,,,,,,,,,,,,5,001,male,20,500,500,2022_Aug_06_1237,Experiment,2021.1.4,360.1202801723732,
images\S5_F_H_02.png,images\S5_F_H_02_scrambled.png,5,happy,20,female,5,,206,on,2,0.5,0.75,0.5,0.786,3,205,1,1,1,2,2,32,128,165,,,,,,0,68,68,68,,,,,,,,,,,,,,,,,,,,,,,,,,,,,,,,,,,,,,,,,,,,,,,,,,,,,,,,,499.7538531,500.25650029999997,500.25650029999997,501.0062589999998,501.0062589999998,501.5061145999998,501.5061145999998,502.2975710999999,502.2975710999999,None,num_6,0.24604289999933826,502.2975710999999,None,sad,1,Happy,502.55036404999964,None,None,502.55036404999964,None,,,,,,,,,,,,,,,,,,,,,,,,,,,,,,,,,,,,,,,,,,,,,,,,,,,,,5,001,male,20,500,500,2022_Aug_06_1237,Experiment,2021.1.4,360.1202801723732,
images\S1_F_S_01.png,images\S1_F_S_01_scrambled.png,1,sad,-10,female,3,,484,off,1,0.5,0.75,0.5,0.846,3,483,1,1,1,0,0,0,0,3,,,,,,0,69,69,69,,,,,,,,,,,,,,,,,,,,,,,,,,,,,,,,,,,,,,,,,,,,,,,,,,,,,,,,,502.65851250000014,503.1583506999996,503.1583506999996,503.91089959999954,503.91089959999954,504.4164423000002,504.4164423000002,505.26326939999944,505.26326939999944,None,num_4,0.24030649999986053,505.26326939999944,None,happy,1,Sad,505.51055765000046,None,None,505.51055765000046,None,,,,,,,,,,,,,,,,,,,,,,,,,,,,,,,,,,,,,,,,,,,,,,,,,,,,,5,001,male,20,500,500,2022_Aug_06_1237,Experiment,2021.1.4,360.1202801723732,
images\S6_M_S_02.png,images\S6_M_S_02_scrambled.png,6,sad,-20,male,2,,35,off,1,0.5,0.75,0.5,0.914,3,34,2,1,1,0,0,0,0,2,,,,,,0,70,70,70,,,,,,,,,,,,,,,,,,,,,,,,,,,,,,,,,,,,,,,,,,,,,,,,,,,,,,,,,505.6187111999998,506.12410230000023,506.12410230000023,506.87678229999983,506.87678229999983,507.3792986999997,507.3792986999997,508.29565529999945,508.29565529999945,None,num_6,0.21591979999993782,508.29565529999945,None,sad,1,Sad,508.53184484999974,None,None,508.53184484999974,None,,,,,,,,,,,,,,,,,,,,,,,,,,,,,,,,,,,,,,,,,,,,,,,,,,,,,5,001,male,20,500,500,2022_Aug_06_1237,Experiment,2021.1.4,360.1202801723732,
images\S1_F_H_01.png,images\S1_F_H_01_scrambled.png,1,happy,10,female,4,,241,off,1,0.5,0.75,0.5,0.882,3,240,3,1,1,0,0,0,0,4,,,,,,0,71,71,71,,,,,,,,,,,,,,,,,,,,,,,,,,,,,,,,,,,,,,,,,,,,,,,,,,,,,,,,,508.6400027999998,509.1426719000001,509.1426719000001,509.89797629999975,509.89797629999975,510.4006032999996,510.4006032999996,511.2865230999996,511.2865230999996,None,num_6,0.26502179999988584,511.2865230999996,None,sad,1,Happy,511.55859995000037,None,None,511.55859995000037,None,,,,,,,,,,,,,,,,,,,,,,,,,,,,,,,,,,,,,,,,,,,,,,,,,,,,,5,001,male,20,500,500,2022_Aug_06_1237,Experiment,2021.1.4,360.1202801723732,
images\blank.jpg,images\blank.jpg,none,none,none,none,0,,649,on,2,0.5,0.75,0.5,0.814,0,648,1,1,1,3,3,48,192,240,,,,,,0,72,72,72,,,,,,,,,,,,,,,,,,,,,,,,,,,,,,,,,,,,,,,,,,,,,,,,,,,,,,,,,511.65320879999945,512.1583838999995,512.1583838999995,512.9136736,512.9136736,513.4164285999996,513.4164285999996,514.2300396999999,514.2300396999999,514.2300396999999,None,,514.2300396999999,None,miss,1,,517.2318656999996,None,None,517.2318656999996,None,,,,,,,,,,,,,,,,,,,,,,,,,,,,,,,,,,,,,,,,,,,,,,,,,,,,,5,001,male,20,500,500,2022_Aug_06_1237,Experiment,2021.1.4,360.1202801723732,
images\S10_M_S_03.png,images\S10_M_S_03_scrambled.png,10,sad,-30,male,1,,420,off,1,0.5,0.75,0.5,0.813,3,419,1,1,1,0,0,0,0,1,,,,,,0,73,73,73,,,,,,,,,,,,,,,,,,,,,,,,,,,,,,,,,,,,,,,,,,,,,,,,,,,,,,,,,517.3514973000001,517.8538387999997,517.8538387999997,518.6091614999996,518.6091614999996,519.1119044999996,519.1119044999996,519.9310950999998,519.9310950999998,None,num_4,0.24443719999999303,519.9310950999998,517.3514973000001,happy,1,Sad,520.1893787499998,None,None,520.1893787499998,None,,,,,,,,,,,,,,,,,,,,,,,,,,,,,,,,,,,,,,,,,,,,,,,,,,,,,5,001,male,20,500,500,2022_Aug_06_1237,Experiment,2021.1.4,360.1202801723732,
images\S1_F_H_01.png,images\S1_F_H_01_scrambled.png,1,happy,10,female,4,,1,off,1,0.5,0.75,0.5,0.759,3,0,2,1,1,0,0,0,0,4,,,,,,0,74,74,74,,,,,,,,,,,,,,,,,,,,,,,,,,,,,,,,,,,,,,,,,,,,,,,,,,,,,,,,,520.2475324999996,520.7529667999997,520.7529667999997,521.5054786000001,521.5054786000001,522.0053166999996,522.0053166999996,522.7663350000003,522.7663350000003,None,num_4,0.2091273000005458,522.7663350000003,None,happy,1,Happy,522.9967391999999,None,None,522.9967391999999,None,,,,,,,,,,,,,,,,,,,,,,,,,,,,,,,,,,,,,,,,,,,,,,,,,,,,,5,001,male,20,500,500,2022_Aug_06_1237,Experiment,2021.1.4,360.1202801723732,
images\S7_F_S_01.png,images\S7_F_S_01_scrambled.png,7,sad,-10,female,3,,160,off,1,0.5,0.75,0.5,0.81,3,159,3,1,1,0,0,0,0,3,,,,,,0,75,75,75,,,,,,,,,,,,,,,,,,,,,,,,,,,,,,,,,,,,,,,,,,,,,,,,,,,,,,,,,523.0523351000002,523.5548509,523.5548509,524.3046228000003,524.3046228000003,524.8072898999999,524.8072898999999,525.6236737999998,525.6236737999998,None,num_6,0.23180150000007416,525.6236737999998,None,sad,1,Sad,525.8652695000001,None,None,525.8652695000001,None,,,,,,,,,,,,,,,,,,,,,,,,,,,,,,,,,,,,,,,,,,,,,,,,,,,,,5,001,male,20,500,500,2022_Aug_06_1237,Experiment,2021.1.4,360.1202801723732,
images\S5_F_H_03.png,images\S5_F_H_03_scrambled.png,5,happy,30,female,6,,147,off,1,0.5,0.75,0.5,0.861,3,146,4,1,1,0,0,0,0,6,,,,,,0,76,76,76,,,,,,,,,,,,,,,,,,,,,,,,,,,,,,,,,,,,,,,,,,,,,,,,,,,,,,,,,525.9124536999998,526.4150757999996,526.4150757999996,527.1676722000002,527.1676722000002,527.673057,527.673057,528.5367575,528.5367575,None,num_4,0.2227956999995513,528.5367575,None,happy,1,Happy,528.7811177000003,None,None,528.7811177000003,None,,,,,,,,,,,,,,,,,,,,,,,,,,,,,,,,,,,,,,,,,,,,,,,,,,,,,5,001,male,20,500,500,2022_Aug_06_1237,Experiment,2021.1.4,360.1202801723732,
images\S3_F_S_01.png,images\S3_F_S_01_scrambled.png,3,sad,-10,female,3,,496,off,1,0.5,0.75,0.5,0.844,3,495,5,1,1,0,0,0,0,3,,,,,,0,77,77,77,,,,,,,,,,,,,,,,,,,,,,,,,,,,,,,,,,,,,,,,,,,,,,,,,,,,,,,,,528.8893197999996,529.3919512000002,529.3919512000002,530.1444822000003,530.1444822000003,530.6471773000003,530.6471773000003,531.4940813000003,531.4940813000003,None,num_6,0.3535359999996217,531.4940813000003,None,sad,1,Sad,531.8606497000001,None,None,531.8606497000001,None,,,,,,,,,,,,,,,,,,,,,,,,,,,,,,,,,,,,,,,,,,,,,,,,,,,,,5,001,male,20,500,500,2022_Aug_06_1237,Experiment,2021.1.4,360.1202801723732,
images\S2_M_S_02.png,images\S2_M_S_02_scrambled.png,2,sad,-20,male,2,,491,off,1,0.5,0.75,0.5,0.767,3,490,6,1,1,0,0,0,0,2,,,,,,0,78,78,78,,,,,,,,,,,,,,,,,,,,,,,,,,,,,,,,,,,,,,,,,,,,,,,,,,,,,,,,,531.9467059999997,532.4521625999996,532.4521625999996,533.2046542999997,533.2046542999997,533.7073039999996,533.7073039999996,534.4764997000002,534.4764997000002,None,num_6,0.6188793999999689,534.4764997000002,None,sad,1,Sad,535.109622,None,None,535.109622,None,,,,,,,,,,,,,,,,,,,,,,,,,,,,,,,,,,,,,,,,,,,,,,,,,,,,,5,001,male,20,500,500,2022_Aug_06_1237,Experiment,2021.1.4,360.1202801723732,
images\S1_F_S_01.png,images\S1_F_S_01_scrambled.png,1,sad,-10,female,3,,64,on,2,0.5,0.75,0.5,0.879,3,63,1,1,1,2,2,32,128,163,,,,,,0,79,79,79,,,,,,,,,,,,,,,,,,,,,,,,,,,,,,,,,,,,,,,,,,,,,,,,,,,,,,,,,535.1596012,535.6622932,535.6622932,536.4120047999995,536.4120047999995,536.9174318999994,536.9174318999994,537.8004408999996,537.8004408999996,None,num_4,0.23910870000054274,537.8004408999996,None,happy,1,Sad,538.0505314500001,None,None,538.0505314500001,None,,,,,,,,,,,,,,,,,,,,,,,,,,,,,,,,,,,,,,,,,,,,,,,,,,,,,5,001,male,20,500,500,2022_Aug_06_1237,Experiment,2021.1.4,360.1202801723732,
images\S9_F_H_01.png,images\S9_F_H_01_scrambled.png,9,happy,10,female,4,,229,on,2,0.5,0.75,0.5,0.914,3,228,2,1,1,2,2,32,128,164,,,,,,0,80,80,80,,,,,,,,,,,,,,,,,,,,,,,,,,,,,,,,,,,,,,,,,,,,,,,,,,,,,,,,,538.1059145999998,538.6085615000002,538.6085615000002,539.3638719,539.3638719,539.8666346,539.8666346,540.7829038,540.7829038,None,num_4,0.6885204000000158,540.7829038,None,happy,1,Happy,541.4826536999999,None,None,541.4826536999999,None,,,,,,,,,,,,,,,,,,,,,,,,,,,,,,,,,,,,,,,,,,,,,,,,,,,,,5,001,male,20,500,500,2022_Aug_06_1237,Experiment,2021.1.4,360.1202801723732,
images\S4_M_S_03.png,images\S4_M_S_03_scrambled.png,4,sad,-30,male,1,,324,on,2,0.5,0.75,0.5,0.865,3,323,3,1,1,2,2,32,128,161,,,,,,0,81,81,81,,,,,,,,,,,,,,,,,,,,,,,,,,,,,,,,,,,,,,,,,,,,,,,,,,,,,,,,,541.5298633000002,542.0324792000001,542.0324792000001,542.7822458,542.7822458,543.2876811999995,543.2876811999995,544.1569591999996,544.1569591999996,None,num_6,0.21854870000061055,544.1569591999996,None,sad,1,Sad,544.3984808000005,None,None,544.3984808000005,None,,,,,,,,,,,,,,,,,,,,,,,,,,,,,,,,,,,,,,,,,,,,,,,,,,,,,5,001,male,20,500,500,2022_Aug_06_1237,Experiment,2021.1.4,360.1202801723732,
images\S2_M_S_01.png,images\S2_M_S_01_scrambled.png,2,sad,-10,male,3,,430,on,2,0.5,0.75,0.5,0.928,3,429,4,1,1,2,2,32,128,163,,,,,,0,82,82,82,,,,,,,,,,,,,,,,,,,,,,,,,,,,,,,,,,,,,,,,,,,,,,,,,,,,,,,,,544.4622829,544.9677222999999,544.9677222999999,545.7202208999997,545.7202208999997,546.2201299999997,546.2201299999997,547.1531555000001,547.1531555000001,None,num_4,0.20646519999991142,547.1531555000001,None,happy,1,Sad,547.3669639,None,None,547.3669639,None,,,,,,,,,,,,,,,,,,,,,,,,,,,,,,,,,,,,,,,,,,,,,,,,,,,,,5,001,male,20,500,500,2022_Aug_06_1237,Experiment,2021.1.4,360.1202801723732,
images\blank.jpg,images\blank.jpg,none,none,none,none,0,,611,on,2,0.5,0.75,0.5,0.847,0,610,5,1,1,3,3,48,192,240,,,,,,0,83,83,83,,,,,,,,,,,,,,,,,,,,,,,,,,,,,,,,,,,,,,,,,,,,,,,,,,,,,,,,,547.4505569000003,547.9528666999995,547.9528666999995,548.7082245000001,548.7082245000001,549.2108128,549.2108128,550.0578145,550.0578145,550.0578145,None,,550.0578145,None,miss,1,,553.0596558999996,None,None,553.0596558999996,None,,,,,,,,,,,,,,,,,,,,,,,,,,,,,,,,,,,,,,,,,,,,,,,,,,,,,5,001,male,20,500,500,2022_Aug_06_1237,Experiment,2021.1.4,360.1202801723732,
images\S8_M_H_01.png,images\S8_M_H_01_scrambled.png,8,happy,10,male,4,,403,off,1,0.5,0.75,0.5,0.903,3,402,1,1,1,0,0,0,0,4,,,,,,0,84,84,84,,,,,,,,,,,,,,,,,,,,,,,,,,,,,,,,,,,,,,,,,,,,,,,,,,,,,,,,,553.1709064999995,553.6705515000003,553.6705515000003,554.4231343000001,554.4231343000001,554.9285236999995,554.9285236999995,555.8337996,555.8337996,None,num_4,0.26961449999998877,555.8337996,553.1709064999995,happy,1,Happy,556.1281952999998,None,None,556.1281952999998,None,,,,,,,,,,,,,,,,,,,,,,,,,,,,,,,,,,,,,,,,,,,,,,,,,,,,,5,001,male,20,500,500,2022_Aug_06_1237,Experiment,2021.1.4,360.1202801723732,
images\blank.jpg,images\blank.jpg,none,none,none,none,0,,601,on,2,0.5,0.75,0.5,0.885,0,600,1,1,1,3,3,48,192,240,,,,,,0,85,85,85,,,,,,,,,,,,,,,,,,,,,,,,,,,,,,,,,,,,,,,,,,,,,,,,,,,,,,,,,556.2283083000002,556.7307163999994,556.7307163999994,557.4832627999995,557.4832627999995,557.988679,557.988679,558.8745815000002,558.8745815000002,558.8745815000002,None,,558.8745815000002,None,miss,1,,561.8763755499999,None,None,561.8763755499999,None,,,,,,,,,,,,,,,,,,,,,,,,,,,,,,,,,,,,,,,,,,,,,,,,,,,,,5,001,male,20,500,500,2022_Aug_06_1237,Experiment,2021.1.4,360.1202801723732,
images\S4_M_S_01.png,images\S4_M_S_01_scrambled.png,4,sad,-10,male,3,,322,on,2,0.5,0.75,0.5,0.862,3,321,2,1,1,2,2,32,128,163,,,,,,0,86,86,86,,,,,,,,,,,,,,,,,,,,,,,,,,,,,,,,,,,,,,,,,,,,,,,,,,,,,,,,,562.0264957999998,562.5317846999997,562.5317846999997,563.2814708999995,563.2814708999995,563.7869497000002,563.7869497000002,564.6533299000002,564.6533299000002,None,num_6,0.2421833999997034,564.6533299000002,562.0264957999998,sad,1,Sad,564.9060079000001,None,None,564.9060079000001,None,,,,,,,,,,,,,,,,,,,,,,,,,,,,,,,,,,,,,,,,,,,,,,,,,,,,,5,001,male,20,500,500,2022_Aug_06_1237,Experiment,2021.1.4,360.1202801723732,
images\S7_F_S_01.png,images\S7_F_S_01_scrambled.png,7,sad,-10,female,3,,280,off,1,0.5,0.75,0.5,0.918,3,279,1,1,2,0,0,0,0,3,,,,,,0,87,87,87,,,,,,,,,,,,,,,,,,,,,,,,,,,,,,,,,,,,,,,,,,,,,,,,,,,,,,,,,564.9559600000002,565.4586113999994,565.4586113999994,566.2139207999999,566.2139207999999,566.7165210000003,566.7165210000003,567.6385205999995,567.6385205999995,None,num_4,0.2410227999998824,567.6385205999995,None,happy,1,Sad,567.8913266499999,None,None,567.8913266499999,None,,,,,,,,,,,,,,,,,,,,,,,,,,,,,,,,,,,,,,,,,,,,,,,,,,,,,5,001,male,20,500,500,2022_Aug_06_1237,Experiment,2021.1.4,360.1202801723732,
images\S6_M_S_02.png,images\S6_M_S_02_scrambled.png,6,sad,-20,male,2,,455,on,2,0.5,0.75,0.5,0.751,3,454,1,1,1,2,2,32,128,162,,,,,,0,88,88,88,,,,,,,,,,,,,,,,,,,,,,,,,,,,,,,,,,,,,,,,,,,,,,,,,,,,,,,,,567.9550413999996,568.4605811000001,568.4605811000001,569.2130152999998,569.2130152999998,569.7156402999999,569.7156402999999,570.4737322999999,570.4737322999999,None,num_6,0.2857046999997692,570.4737322999999,None,sad,1,Sad,570.7875727999999,None,None,570.7875727999999,None,,,,,,,,,,,,,,,,,,,,,,,,,,,,,,,,,,,,,,,,,,,,,,,,,,,,,5,001,male,20,500,500,2022_Aug_06_1237,Experiment,2021.1.4,360.1202801723732,
images\blank.jpg,images\blank.jpg,none,none,none,none,0,,624,on,2,0.5,0.75,0.5,0.784,0,623,2,1,1,3,3,48,192,240,,,,,,0,89,89,89,,,,,,,,,,,,,,,,,,,,,,,,,,,,,,,,,,,,,,,,,,,,,,,,,,,,,,,,,570.8877087999999,571.3929044999995,571.3929044999995,572.1426344000001,572.1426344000001,572.6480585999998,572.6480585999998,573.4367407,573.4367407,573.4367407,None,,573.4367407,None,miss,1,,576.4357682499999,None,None,576.4357682499999,None,,,,,,,,,,,,,,,,,,,,,,,,,,,,,,,,,,,,,,,,,,,,,,,,,,,,,5,001,male,20,500,500,2022_Aug_06_1237,Experiment,2021.1.4,360.1202801723732,
images\blank.jpg,images\blank.jpg,none,none,none,none,0,,650,on,2,0.5,0.75,0.5,0.941,0,649,3,2,2,3,3,48,192,240,,,,,,0,90,90,90,,,,,,,,,,,,,,,,,,,,,,,,,,,,,,,,,,,,,,,,,,,,,,,,,,,,,,,,,576.4579719000003,576.9607025999994,576.9607025999994,577.7103596999996,577.7103596999996,578.2130210999994,578.2130210999994,579.1571953000002,579.1571953000002,579.1571953000002,None,,579.1571953000002,576.4579719000003,miss,1,,582.1562757500001,None,None,582.1562757500001,None,,,,,,,,,,,,,,,,,,,,,,,,,,,,,,,,,,,,,,,,,,,,,,,,,,,,,5,001,male,20,500,500,2022_Aug_06_1237,Experiment,2021.1.4,360.1202801723732,
images\blank.jpg,images\blank.jpg,none,none,none,none,0,,604,on,2,0.5,0.75,0.5,0.878,0,603,4,3,3,3,3,48,192,240,,,,,,0,91,91,91,,,,,,,,,,,,,,,,,,,,,,,,,,,,,,,,,,,,,,,,,,,,,,,,,,,,,,,,,582.1867661999995,582.6893767000001,582.6893767000001,583.4391439999999,583.4391439999999,583.9419023999999,583.9419023999999,584.8221253000002,584.8221253000002,584.8221253000002,None,,584.8221253000002,582.1867661999995,miss,1,,587.8267625999997,None,None,587.8267625999997,None,,,,,,,,,,,,,,,,,,,,,,,,,,,,,,,,,,,,,,,,,,,,,,,,,,,,,5,001,male,20,500,500,2022_Aug_06_1237,Experiment,2021.1.4,360.1202801723732,
images\S9_F_S_03.png,images\S9_F_S_03_scrambled.png,9,sad,-30,female,1,,234,on,2,0.5,0.75,0.5,0.822,3,233,5,1,1,2,2,32,128,161,,,,,,0,92,92,92,,,,,,,,,,,,,,,,,,,,,,,,,,,,,,,,,,,,,,,,,,,,,,,,,,,,,,,,,587.9878610999995,588.4931433000002,588.4931433000002,589.2457988999995,589.2457988999995,589.7512220999997,589.7512220999997,590.5758610000003,590.5758610000003,None,num_4,0.2474910999999338,590.5758610000003,587.9878610999995,happy,1,Sad,590.8286280000002,None,None,590.8286280000002,None,,,,,,,,,,,,,,,,,,,,,,,,,,,,,,,,,,,,,,,,,,,,,,,,,,,,,5,001,male,20,500,500,2022_Aug_06_1237,Experiment,2021.1.4,360.1202801723732,
images\S8_M_S_03.png,images\S8_M_S_03_scrambled.png,8,sad,-30,male,1,,408,off,1,0.5,0.75,0.5,0.89,3,407,1,1,2,0,0,0,0,1,,,,,,0,93,93,93,,,,,,,,,,,,,,,,,,,,,,,,,,,,,,,,,,,,,,,,,,,,,,,,,,,,,,,,,590.8868547000002,591.3923097999996,591.3923097999996,592.1420226,592.1420226,592.6446491999995,592.6446491999995,593.5417200000002,593.5417200000002,None,num_6,0.26571140000032756,593.5417200000002,None,sad,1,Sad,593.8360622,None,None,593.8360622,None,,,,,,,,,,,,,,,,,,,,,,,,,,,,,,,,,,,,,,,,,,,,,,,,,,,,,5,001,male,20,500,500,2022_Aug_06_1237,Experiment,2021.1.4,360.1202801723732,
images\S3_F_S_01.png,images\S3_F_S_01_scrambled.png,3,sad,-10,female,3,,16,off,1,0.5,0.75,0.5,0.812,3,15,2,1,1,0,0,0,0,3,,,,,,0,94,94,94,,,,,,,,,,,,,,,,,,,,,,,,,,,,,,,,,,,,,,,,,,,,,,,,,,,,,,,,,593.8916240999997,594.3941189999996,594.3941189999996,595.1467325000003,595.1467325000003,595.6492662999999,595.6492662999999,596.4684953999995,596.4684953999995,None,num_4,0.21894040000006498,596.4684953999995,None,happy,1,Sad,596.7018036499999,None,None,596.7018036499999,None,,,,,,,,,,,,,,,,,,,,,,,,,,,,,,,,,,,,,,,,,,,,,,,,,,,,,5,001,male,20,500,500,2022_Aug_06_1237,Experiment,2021.1.4,360.1202801723732,
images\S3_F_H_01.png,images\S3_F_H_01_scrambled.png,3,happy,10,female,4,,553,on,2,0.5,0.75,0.5,0.78,3,552,1,2,1,2,2,32,128,164,,,,,,0,95,95,95,,,,,,,,,,,,,,,,,,,,,,,,,,,,,,,,,,,,,,,,,,,,,,,,,,,,,,,,,596.7628181,597.2682526999997,597.2682526999997,598.0208891000002,598.0208891000002,598.5234106999997,598.5234106999997,599.3093397000002,599.3093397000002,None,num_4,0.28202760000021954,599.3093397000002,None,happy,1,Happy,599.6175670000002,None,None,599.6175670000002,None,,,,,,,,,,,,,,,,,,,,,,,,,,,,,,,,,,,,,,,,,,,,,,,,,,,,,5,001,male,20,500,500,2022_Aug_06_1237,Experiment,2021.1.4,360.1202801723732,
images\S2_M_S_03.png,images\S2_M_S_03_scrambled.png,2,sad,-30,male,1,,552,on,2,0.5,0.75,0.5,0.782,3,551,2,1,1,2,2,32,128,161,,,,,,0,96,96,96,,,,,,,,,,,,,,,,,,,,,,,,,,,,,,,,,,,,,,,,,,,,,,,,,,,,,,,,,599.7285781,600.2339904,600.2339904,600.9865295,600.9865295,601.4919997999996,601.4919997999996,602.2777803999998,602.2777803999998,None,num_6,1.0896925000006377,602.2777803999998,None,sad,1,Sad,603.3774701000002,None,None,603.3774701000002,None,,,,,,,,,,,,,,,,,,,,,,,,,,,,,,,,,,,,,,,,,,,,,,,,,,,,,5,001,male,20,500,500,2022_Aug_06_1237,Experiment,2021.1.4,360.1202801723732,
images\S1_F_H_02.png,images\S1_F_H_02_scrambled.png,1,happy,20,female,5,,122,off,1,0.5,0.75,0.5,0.751,3,121,1,1,1,0,0,0,0,5,,,,,,0,97,97,97,,,,,,,,,,,,,,,,,,,,,,,,,,,,,,,,,,,,,,,,,,,,,,,,,,,,,,,,,603.4274270999995,603.9328274999998,603.9328274999998,604.6854989000003,604.6854989000003,605.1880303999997,605.1880303999997,605.9433466,605.9433466,None,num_4,0.2880530999991606,605.9433466,None,happy,1,Happy,606.2488953000002,None,None,606.2488953000002,None,,,,,,,,,,,,,,,,,,,,,,,,,,,,,,,,,,,,,,,,,,,,,,,,,,,,,5,001,male,20,500,500,2022_Aug_06_1237,Experiment,2021.1.4,360.1202801723732,
images\S3_F_S_01.png,images\S3_F_S_01_scrambled.png,3,sad,-10,female,3,,76,on,2,0.5,0.75,0.5,0.912,3,75,1,1,1,2,2,32,128,163,,,,,,0,98,98,98,,,,,,,,,,,,,,,,,,,,,,,,,,,,,,,,,,,,,,,,,,,,,,,,,,,,,,,,,606.3015439000001,606.8013970000002,606.8013970000002,607.5567597999998,607.5567597999998,608.0621804000002,608.0621804000002,608.9785194999995,608.9785194999995,None,num_4,0.2768440999998347,608.9785194999995,None,happy,1,Sad,609.2674563,None,None,609.2674563,None,,,,,,,,,,,,,,,,,,,,,,,,,,,,,,,,,,,,,,,,,,,,,,,,,,,,,5,001,male,20,500,500,2022_Aug_06_1237,Experiment,2021.1.4,360.1202801723732,
images\S3_F_H_02.png,images\S3_F_H_02_scrambled.png,3,happy,20,female,5,,374,off,1,0.5,0.75,0.5,0.877,3,373,1,2,1,0,0,0,0,5,,,,,,0,99,99,99,,,,,,,,,,,,,,,,,,,,,,,,,,,,,,,,,,,,,,,,,,,,,,,,,,,,,,,,,609.3811404999997,609.8837843000001,609.8837843000001,610.6364488999998,610.6364488999998,611.1418410999995,611.1418410999995,612.0220772000002,612.0220772000002,None,num_4,0.40124350000041886,612.0220772000002,None,happy,1,Happy,612.4385647999998,None,None,612.4385647999998,None,,,,,,,,,,,,,,,,,,,,,,,,,,,,,,,,,,,,,,,,,,,,,,,,,,,,,5,001,male,20,500,500,2022_Aug_06_1237,Experiment,2021.1.4,360.1202801723732,
images\S9_F_H_03.png,images\S9_F_H_03_scrambled.png,9,happy,30,female,6,,111,on,2,0.5,0.75,0.5,0.864,3,110,1,1,1,2,2,32,128,166,,,,,,0,100,100,100,,,,,,,,,,,,,,,,,,,,,,,,,,,,,,,,,,,,,,,,,,,,,,,,,,,,,,,,,612.4857477999994,612.9883638000001,612.9883638000001,613.7381347999999,613.7381347999999,614.2435660000001,614.2435660000001,615.1127569,615.1127569,None,num_4,0.27859859999989567,615.1127569,None,happy,1,Happy,615.4126998000002,None,None,615.4126998000002,None,,,,,,,,,,,,,,,,,,,,,,,,,,,,,,,,,,,,,,,,,,,,,,,,,,,,,5,001,male,20,500,500,2022_Aug_06_1237,Experiment,2021.1.4,360.1202801723732,
images\S6_M_S_02.png,images\S6_M_S_02_scrambled.png,6,sad,-20,male,2,,275,off,1,0.5,0.75,0.5,0.814,3,274,1,1,1,0,0,0,0,2,,,,,,0,101,101,101,,,,,,,,,,,,,,,,,,,,,,,,,,,,,,,,,,,,,,,,,,,,,,,,,,,,,,,,,615.4792636000002,615.9819508999999,615.9819508999999,616.7316749000001,616.7316749000001,617.2371254,617.2371254,618.0534681999998,618.0534681999998,None,num_4,0.32191710000006424,618.0534681999998,None,happy,1,Sad,618.3840059000004,None,None,618.3840059000004,None,,,,,,,,,,,,,,,,,,,,,,,,,,,,,,,,,,,,,,,,,,,,,,,,,,,,,5,001,male,20,500,500,2022_Aug_06_1237,Experiment,2021.1.4,360.1202801723732,
images\S6_M_S_03.png,images\S6_M_S_03_scrambled.png,6,sad,-30,male,1,,336,on,2,0.5,0.75,0.5,0.866,3,335,1,2,1,2,2,32,128,161,,,,,,0,102,102,102,,,,,,,,,,,,,,,,,,,,,,,,,,,,,,,,,,,,,,,,,,,,,,,,,,,,,,,,,618.4422426000001,618.9476807000001,618.9476807000001,619.7030016999997,619.7030016999997,620.2056198,620.2056198,621.0775762000003,621.0775762000003,None,num_6,0.09776860000056331,621.0775762000003,None,sad,1,Sad,621.2025865000005,None,None,621.2025865000005,None,,,,,,,,,,,,,,,,,,,,,,,,,,,,,,,,,,,,,,,,,,,,,,,,,,,,,5,001,male,20,500,500,2022_Aug_06_1237,Experiment,2021.1.4,360.1202801723732,
images\S5_F_S_01.png,images\S5_F_S_01_scrambled.png,5,sad,-10,female,3,,328,on,2,0.5,0.75,0.5,0.774,3,327,2,1,1,2,2,32,128,163,,,,,,0,103,103,103,,,,,,,,,,,,,,,,,,,,,,,,,,,,,,,,,,,,,,,,,,,,,,,,,,,,,,,,,621.2691439,621.7718967000001,621.7718967000001,622.5271646000001,622.5271646000001,623.0297175999995,623.0297175999995,623.8073101,623.8073101,None,num_4,0.20804889999999432,623.8073101,None,happy,1,Sad,624.0267576499996,None,None,624.0267576499996,None,,,,,,,,,,,,,,,,,,,,,,,,,,,,,,,,,,,,,,,,,,,,,,,,,,,,,5,001,male,20,500,500,2022_Aug_06_1237,Experiment,2021.1.4,360.1202801723732,
images\S7_F_S_01.png,images\S7_F_S_01_scrambled.png,7,sad,-10,female,3,,340,on,2,0.5,0.75,0.5,0.923,3,339,3,1,2,2,2,32,128,163,,,,,,0,104,104,104,,,,,,,,,,,,,,,,,,,,,,,,,,,,,,,,,,,,,,,,,,,,,,,,,,,,,,,,,624.0877270999999,624.5931481999996,624.5931481999996,625.3457093999996,625.3457093999996,625.8455588999996,625.8455588999996,626.7759182,626.7759182,None,num_4,0.19930370000020048,626.7759182,None,happy,1,Sad,626.9812922000001,None,None,626.9812922000001,None,,,,,,,,,,,,,,,,,,,,,,,,,,,,,,,,,,,,,,,,,,,,,,,,,,,,,5,001,male,20,500,500,2022_Aug_06_1237,Experiment,2021.1.4,360.1202801723732,
images\S1_F_H_01.png,images\S1_F_H_01_scrambled.png,1,happy,10,female,4,,121,off,1,0.5,0.75,0.5,0.816,3,120,1,1,1,0,0,0,0,4,,,,,,0,105,105,105,,,,,,,,,,,,,,,,,,,,,,,,,,,,,,,,,,,,,,,,,,,,,,,,,,,,,,,,,627.0340251999996,627.5366693999995,627.5366693999995,628.2892081999998,628.2892081999998,628.7919286999995,628.7919286999995,629.6111547,629.6111547,None,num_4,0.26806699999997363,629.6111547,None,happy,1,Happy,629.8942878999997,None,None,629.8942878999997,None,,,,,,,,,,,,,,,,,,,,,,,,,,,,,,,,,,,,,,,,,,,,,,,,,,,,,5,001,male,20,500,500,2022_Aug_06_1237,Experiment,2021.1.4,360.1202801723732,
images\S9_F_H_03.png,images\S9_F_H_03_scrambled.png,9,happy,30,female,6,,591,on,2,0.5,0.75,0.5,0.814,3,590,1,1,1,2,2,32,128,166,,,,,,0,106,106,106,,,,,,,,,,,,,,,,,,,,,,,,,,,,,,,,,,,,,,,,,,,,,,,,,,,,,,,,,629.9442533000001,630.4440942000001,630.4440942000001,631.1994255,631.1994255,631.6992646999997,631.6992646999997,632.5128959000003,632.5128959000003,None,num_4,1.006367699999828,632.5128959000003,None,happy,1,Happy,633.5320552000003,None,None,633.5320552000003,None,,,,,,,,,,,,,,,,,,,,,,,,,,,,,,,,,,,,,,,,,,,,,,,,,,,,,5,001,male,20,500,500,2022_Aug_06_1237,Experiment,2021.1.4,360.1202801723732,
images\S10_M_S_02.png,images\S10_M_S_02_scrambled.png,10,sad,-20,male,2,,479,on,2,0.5,0.75,0.5,0.799,3,478,2,1,1,2,2,32,128,162,,,,,,0,107,107,107,,,,,,,,,,,,,,,,,,,,,,,,,,,,,,,,,,,,,,,,,,,,,,,,,,,,,,,,,633.5792466000003,634.0819455999999,634.0819455999999,634.8316482,634.8316482,635.3342479000003,635.3342479000003,636.1368678999997,636.1368678999997,None,num_4,0.3023563999995531,636.1368678999997,None,happy,1,Sad,636.4450417999997,None,None,636.4450417999997,None,,,,,,,,,,,,,,,,,,,,,,,,,,,,,,,,,,,,,,,,,,,,,,,,,,,,,5,001,male,20,500,500,2022_Aug_06_1237,Experiment,2021.1.4,360.1202801723732,
images\S10_M_H_01.png,images\S10_M_H_01_scrambled.png,10,happy,10,male,4,,475,on,2,0.5,0.75,0.5,0.796,3,474,3,2,1,2,2,32,128,164,,,,,,0,108,108,108,,,,,,,,,,,,,,,,,,,,,,,,,,,,,,,,,,,,,,,,,,,,,,,,,,,,,,,,,636.5338968999995,637.0366451999998,637.0366451999998,637.7919131999997,637.7919131999997,638.2944422,638.2944422,639.0970479999996,639.0970479999996,None,num_4,0.1822954999997819,639.0970479999996,None,happy,1,Happy,639.2997851,None,None,639.2997851,None,,,,,,,,,,,,,,,,,,,,,,,,,,,,,,,,,,,,,,,,,,,,,,,,,,,,,5,001,male,20,500,500,2022_Aug_06_1237,Experiment,2021.1.4,360.1202801723732,
images\S3_F_H_01.png,images\S3_F_H_01_scrambled.png,3,happy,10,female,4,,193,on,2,0.5,0.75,0.5,0.766,3,192,4,1,2,2,2,32,128,164,,,,,,0,109,109,109,,,,,,,,,,,,,,,,,,,,,,,,,,,,,,,,,,,,,,,,,,,,,,,,,,,,,,,,,639.3524614999997,639.8550792999995,639.8550792999995,640.6076246000002,640.6076246000002,641.1130518,641.1130518,641.8822938000003,641.8822938000003,None,num_4,0.5410349000003407,641.8822938000003,None,happy,1,Happy,642.4461219500004,None,None,642.4461219500004,None,,,,,,,,,,,,,,,,,,,,,,,,,,,,,,,,,,,,,,,,,,,,,,,,,,,,,5,001,male,20,500,500,2022_Aug_06_1237,Experiment,2021.1.4,360.1202801723732,
images\S1_F_H_01.png,images\S1_F_H_01_scrambled.png,1,happy,10,female,4,,421,on,2,0.5,0.75,0.5,0.85,3,420,5,1,3,2,2,32,128,164,,,,,,0,110,110,110,,,,,,,,,,,,,,,,,,,,,,,,,,,,,,,,,,,,,,,,,,,,,,,,,,,,,,,,,642.4959360000003,642.9985754999998,642.9985754999998,643.7511255999998,643.7511255999998,644.2509737999999,644.2509737999999,645.1034902000001,645.1034902000001,None,num_6,0.6159471999999369,645.1034902000001,None,sad,1,Happy,645.7310533,None,None,645.7310533,None,,,,,,,,,,,,,,,,,,,,,,,,,,,,,,,,,,,,,,,,,,,,,,,,,,,,,5,001,male,20,500,500,2022_Aug_06_1237,Experiment,2021.1.4,360.1202801723732,
images\S9_F_H_03.png,images\S9_F_H_03_scrambled.png,9,happy,30,female,6,,51,off,1,0.5,0.75,0.5,0.906,3,50,1,1,1,0,0,0,0,6,,,,,,0,111,111,111,,,,,,,,,,,,,,,,,,,,,,,,,,,,,,,,,,,,,,,,,,,,,,,,,,,,,,,,,645.7782627999995,646.2781001000003,646.2781001000003,647.0278638999998,647.0278638999998,647.5305215999997,647.5305215999997,648.4414644999997,648.4414644999997,None,num_4,0.3819081000001461,648.4414644999997,None,happy,1,Happy,648.8384531000002,None,None,648.8384531000002,None,,,,,,,,,,,,,,,,,,,,,,,,,,,,,,,,,,,,,,,,,,,,,,,,,,,,,5,001,male,20,500,500,2022_Aug_06_1237,Experiment,2021.1.4,360.1202801723732,
images\S7_F_H_01.png,images\S7_F_H_01_scrambled.png,7,happy,10,female,4,,517,off,1,0.5,0.75,0.5,0.846,3,516,2,1,1,0,0,0,0,4,,,,,,0,112,112,112,,,,,,,,,,,,,,,,,,,,,,,,,,,,,,,,,,,,,,,,,,,,,,,,,,,,,,,,,648.8884073999998,649.3938219000001,649.3938219000001,650.1463685999997,650.1463685999997,650.6461948999995,650.6461948999995,651.4960978999998,651.4960978999998,None,num_6,0.3350932000003013,651.4960978999998,None,sad,1,Happy,651.8375190999996,None,None,651.8375190999996,None,,,,,,,,,,,,,,,,,,,,,,,,,,,,,,,,,,,,,,,,,,,,,,,,,,,,,5,001,male,20,500,500,2022_Aug_06_1237,Experiment,2021.1.4,360.1202801723732,
images\S4_M_S_03.png,images\S4_M_S_03_scrambled.png,4,sad,-30,male,1,,264,off,1,0.5,0.75,0.5,0.844,3,263,3,1,1,0,0,0,0,1,,,,,,0,113,113,113,,,,,,,,,,,,,,,,,,,,,,,,,,,,,,,,,,,,,,,,,,,,,,,,,,,,,,,,,651.8874765,652.3901084999998,652.3901084999998,653.1426862999997,653.1426862999997,653.6452626999999,653.6452626999999,654.4922869000002,654.4922869000002,None,num_6,0.17904150000049412,654.4922869000002,None,sad,1,Sad,654.6894983000002,None,None,654.6894983000002,None,,,,,,,,,,,,,,,,,,,,,,,,,,,,,,,,,,,,,,,,,,,,,,,,,,,,,5,001,male,20,500,500,2022_Aug_06_1237,Experiment,2021.1.4,360.1202801723732,
images\blank.jpg,images\blank.jpg,none,none,none,none,0,,635,on,2,0.5,0.75,0.5,0.766,0,634,1,1,1,3,3,48,192,240,,,,,,0,114,114,114,,,,,,,,,,,,,,,,,,,,,,,,,,,,,,,,,,,,,,,,,,,,,,,,,,,,,,,,,654.7784413999998,655.2836674,655.2836674,656.0363090000001,656.0363090000001,656.5417373999999,656.5417373999999,657.3136042999995,657.3136042999995,657.3136042999995,None,,657.3136042999995,None,miss,1,,660.31270885,None,None,660.31270885,None,,,,,,,,,,,,,,,,,,,,,,,,,,,,,,,,,,,,,,,,,,,,,,,,,,,,,5,001,male,20,500,500,2022_Aug_06_1237,Experiment,2021.1.4,360.1202801723732,
images\blank.jpg,images\blank.jpg,none,none,none,none,0,,613,on,2,0.5,0.75,0.5,0.916,0,612,2,2,2,3,3,48,192,240,,,,,,0,115,115,115,,,,,,,,,,,,,,,,,,,,,,,,,,,,,,,,,,,,,,,,,,,,,,,,,,,,,,,,,660.34321,660.8486346999998,660.8486346999998,661.6012874999997,661.6012874999997,662.1037915999996,662.1037915999996,663.0229645999998,663.0229645999998,663.0229645999998,None,,663.0229645999998,660.34321,miss,1,,666.0248348499995,None,None,666.0248348499995,None,,,,,,,,,,,,,,,,,,,,,,,,,,,,,,,,,,,,,,,,,,,,,,,,,,,,,5,001,male,20,500,500,2022_Aug_06_1237,Experiment,2021.1.4,360.1202801723732,
images\S3_F_H_03.png,images\S3_F_H_03_scrambled.png,3,happy,30,female,6,,195,on,2,0.5,0.75,0.5,0.802,3,194,3,1,1,2,2,32,128,166,,,,,,0,116,116,116,,,,,,,,,,,,,,,,,,,,,,,,,,,,,,,,,,,,,,,,,,,,,,,,,,,,,,,,,666.1776815000003,666.6801417999995,666.6801417999995,667.4327121999995,667.4327121999995,667.9353457999996,667.9353457999996,668.7434265000002,668.7434265000002,None,num_4,0.5117737999999008,668.7434265000002,666.1776815000003,happy,1,Happy,669.2682569999997,None,None,669.2682569999997,None,,,,,,,,,,,,,,,,,,,,,,,,,,,,,,,,,,,,,,,,,,,,,,,,,,,,,5,001,male,20,500,500,2022_Aug_06_1237,Experiment,2021.1.4,360.1202801723732,
images\S2_M_H_02.png,images\S2_M_H_02_scrambled.png,2,happy,20,male,5,,488,off,1,0.5,0.75,0.5,0.94,3,487,1,1,1,0,0,0,0,5,,,,,,0,117,117,117,,,,,,,,,,,,,,,,,,,,,,,,,,,,,,,,,,,,,,,,,,,,,,,,,,,,,,,,,669.3182305999999,669.8236257999997,669.8236257999997,670.5762911000002,670.5762911000002,671.076024,671.076024,672.0201987999999,672.0201987999999,None,num_4,0.21911799999998038,672.0201987999999,None,happy,1,Happy,672.2674335000002,None,None,672.2674335000002,None,,,,,,,,,,,,,,,,,,,,,,,,,,,,,,,,,,,,,,,,,,,,,,,,,,,,,5,001,male,20,500,500,2022_Aug_06_1237,Experiment,2021.1.4,360.1202801723732,
images\S3_F_H_03.png,images\S3_F_H_03_scrambled.png,3,happy,30,female,6,,255,off,1,0.5,0.75,0.5,0.846,3,254,2,1,1,0,0,0,0,6,,,,,,0,118,118,118,,,,,,,,,,,,,,,,,,,,,,,,,,,,,,,,,,,,,,,,,,,,,,,,,,,,,,,,,672.3339498999994,672.8337937999995,672.8337937999995,673.5891406000001,673.5891406000001,674.0918676000001,674.0918676000001,674.9443184000002,674.9443184000002,None,num_4,0.22282930000073975,674.9443184000002,None,happy,1,Happy,675.1831024000003,None,None,675.1831024000003,None,,,,,,,,,,,,,,,,,,,,,,,,,,,,,,,,,,,,,,,,,,,,,,,,,,,,,5,001,male,20,500,500,2022_Aug_06_1237,Experiment,2021.1.4,360.1202801723732,
images\S5_F_H_03.png,images\S5_F_H_03_scrambled.png,5,happy,30,female,6,,507,off,1,0.5,0.75,0.5,0.911,3,506,3,1,2,0,0,0,0,6,,,,,,0,119,119,119,,,,,,,,,,,,,,,,,,,,,,,,,,,,,,,,,,,,,,,,,,,,,,,,,,,,,,,,,675.2330534000002,675.7384798000003,675.7384798000003,676.4911394999999,676.4911394999999,676.9965322999997,676.9965322999997,677.9128271999998,677.9128271999998,None,num_4,0.19845440000062808,677.9128271999998,None,happy,1,Happy,678.1322802000004,None,None,678.1322802000004,None,,,,,,,,,,,,,,,,,,,,,,,,,,,,,,,,,,,,,,,,,,,,,,,,,,,,,5,001,male,20,500,500,2022_Aug_06_1237,Experiment,2021.1.4,360.1202801723732,
images\S4_M_S_02.png,images\S4_M_S_02_scrambled.png,4,sad,-20,male,2,,383,off,1,0.5,0.75,0.5,0.783,3,382,4,1,1,0,0,0,0,2,,,,,,0,120,120,120,,,,,,,,,,,,,,,,,,,,,,,,,,,,,,,,,,,,,,,,,,,,,,,,,,,,,,,,,678.1988042000003,678.7015738,678.7015738,679.4568510999998,679.4568510999998,679.9622079999999,679.9622079999999,680.7509325999999,680.7509325999999,None,num_6,0.21620589999929507,680.7509325999999,None,sad,1,Sad,680.9813245500004,None,None,680.9813245500004,None,,,,,,,,,,,,,,,,,,,,,,,,,,,,,,,,,,,,,,,,,,,,,,,,,,,,,5,001,male,20,500,500,2022_Aug_06_1237,Experiment,2021.1.4,360.1202801723732,
images\S6_M_H_02.png,images\S6_M_H_02_scrambled.png,6,happy,20,male,5,,32,off,1,0.5,0.75,0.5,0.941,3,31,5,1,1,0,0,0,0,5,,,,,,0,121,121,121,,,,,,,,,,,,,,,,,,,,,,,,,,,,,,,,,,,,,,,,,,,,,,,,,,,,,,,,,681.0284972,681.5311081999998,681.5311081999998,682.2864924999994,682.2864924999994,682.7919128000003,682.7919128000003,683.7361232000003,683.7361232000003,None,num_4,0.19906670000000304,683.7361232000003,None,happy,1,Happy,683.9610914500004,None,None,683.9610914500004,None,,,,,,,,,,,,,,,,,,,,,,,,,,,,,,,,,,,,,,,,,,,,,,,,,,,,,5,001,male,20,500,500,2022_Aug_06_1237,Experiment,2021.1.4,360.1202801723732,
images\S4_M_S_02.png,images\S4_M_S_02_scrambled.png,4,sad,-20,male,2,,203,on,2,0.5,0.75,0.5,0.935,3,202,1,1,1,2,2,32,128,162,,,,,,0,122,122,122,,,,,,,,,,,,,,,,,,,,,,,,,,,,,,,,,,,,,,,,,,,,,,,,,,,,,,,,,684.0136790999995,684.5163014,684.5163014,685.2661019999996,685.2661019999996,685.7716106999997,685.7716106999997,686.7128768000002,686.7128768000002,None,num_6,0.20635680000032153,686.7128768000002,None,sad,1,Sad,686.9406328000005,None,None,686.9406328000005,None,,,,,,,,,,,,,,,,,,,,,,,,,,,,,,,,,,,,,,,,,,,,,,,,,,,,,5,001,male,20,500,500,2022_Aug_06_1237,Experiment,2021.1.4,360.1202801723732,
images\S7_F_H_03.png,images\S7_F_H_03_scrambled.png,7,happy,30,female,6,,219,on,2,0.5,0.75,0.5,0.931,3,218,2,1,1,2,2,32,128,166,,,,,,0,123,123,123,,,,,,,,,,,,,,,,,,,,,,,,,,,,,,,,,,,,,,,,,,,,,,,,,,,,,,,,,686.9989595999996,687.5016526999998,687.5016526999998,688.2568919999994,688.2568919999994,688.7622718000002,688.7622718000002,689.6980673999997,689.6980673999997,None,num_4,0.22118460000001505,689.6980673999997,None,happy,1,Happy,689.9453135000003,None,None,689.9453135000003,None,,,,,,,,,,,,,,,,,,,,,,,,,,,,,,,,,,,,,,,,,,,,,,,,,,,,,5,001,male,20,500,500,2022_Aug_06_1237,Experiment,2021.1.4,360.1202801723732,
images\S9_F_H_02.png,images\S9_F_H_02_scrambled.png,9,happy,20,female,5,,290,off,1,0.5,0.75,0.5,0.83,3,289,1,1,1,0,0,0,0,5,,,,,,0,124,124,124,,,,,,,,,,,,,,,,,,,,,,,,,,,,,,,,,,,,,,,,,,,,,,,,,,,,,,,,,690.0062510999996,690.5089177,690.5089177,691.2614639000003,691.2614639000003,691.7613226000003,691.7613226000003,692.5971915,692.5971915,None,num_4,0.20995359999960783,692.5971915,None,happy,1,Happy,692.8332371000006,None,None,692.8332371000006,None,,,,,,,,,,,,,,,,,,,,,,,,,,,,,,,,,,,,,,,,,,,,,,,,,,,,,5,001,male,20,500,500,2022_Aug_06_1237,Experiment,2021.1.4,360.1202801723732,
images\S5_F_S_01.png,images\S5_F_S_01_scrambled.png,5,sad,-10,female,3,,148,off,1,0.5,0.75,0.5,0.823,3,147,2,1,1,0,0,0,0,3,,,,,,0,125,125,125,,,,,,,,,,,,,,,,,,,,,,,,,,,,,,,,,,,,,,,,,,,,,,,,,,,,,,,,,692.8970565,693.3996858999999,693.3996858999999,694.1494605999997,694.1494605999997,694.6521236999997,694.6521236999997,695.4824148999996,695.4824148999996,None,num_4,0.20472799999970448,695.4824148999996,None,happy,1,Sad,695.6934365999996,None,None,695.6934365999996,None,,,,,,,,,,,,,,,,,,,,,,,,,,,,,,,,,,,,,,,,,,,,,,,,,,,,,5,001,male,20,500,500,2022_Aug_06_1237,Experiment,2021.1.4,360.1202801723732,
images\S4_M_S_01.png,images\S4_M_S_01_scrambled.png,4,sad,-10,male,3,,262,off,1,0.5,0.75,0.5,0.908,3,261,3,1,2,0,0,0,0,3,,,,,,0,126,126,126,,,,,,,,,,,,,,,,,,,,,,,,,,,,,,,,,,,,,,,,,,,,,,,,,,,,,,,,,695.7490148999996,696.2516575999998,696.2516575999998,697.0013618000003,697.0013618000003,697.5012165999997,697.5012165999997,698.4120750000002,698.4120750000002,None,num_6,0.21916670000064187,698.4120750000002,None,sad,1,Sad,698.6509969499998,None,None,698.6509969499998,None,,,,,,,,,,,,,,,,,,,,,,,,,,,,,,,,,,,,,,,,,,,,,,,,,,,,,5,001,male,20,500,500,2022_Aug_06_1237,Experiment,2021.1.4,360.1202801723732,
images\S1_F_S_02.png,images\S1_F_S_02_scrambled.png,1,sad,-20,female,2,,65,on,2,0.5,0.75,0.5,0.922,3,64,1,1,1,2,2,32,128,162,,,,,,0,127,127,127,,,,,,,,,,,,,,,,,,,,,,,,,,,,,,,,,,,,,,,,,,,,,,,,,,,,,,,,,698.7396928999997,699.2423825999995,699.2423825999995,699.9976810999997,699.9976810999997,700.5003035999998,700.5003035999998,701.4277971000001,701.4277971000001,None,num_4,0.2274438000004011,701.4277971000001,None,happy,1,Sad,701.6666726500002,None,None,701.6666726500002,None,,,,,,,,,,,,,,,,,,,,,,,,,,,,,,,,,,,,,,,,,,,,,,,,,,,,,5,001,male,20,500,500,2022_Aug_06_1237,Experiment,2021.1.4,360.1202801723732,
images\S6_M_H_02.png,images\S6_M_H_02_scrambled.png,6,happy,20,male,5,,92,on,2,0.5,0.75,0.5,0.808,3,91,2,1,1,2,2,32,128,165,,,,,,0,128,128,128,,,,,,,,,,,,,,,,,,,,,,,,,,,,,,,,,,,,,,,,,,,,,,,,,,,,,,,,,701.7276682000002,702.2330837999998,702.2330837999998,702.9883823,702.9883823,703.4911307000002,703.4911307000002,704.3019458999997,704.3019458999997,None,num_4,0.27331020000019635,704.3019458999997,None,happy,1,Happy,704.6018997000001,None,None,704.6018997000001,None,,,,,,,,,,,,,,,,,,,,,,,,,,,,,,,,,,,,,,,,,,,,,,,,,,,,,5,001,male,20,500,500,2022_Aug_06_1237,Experiment,2021.1.4,360.1202801723732,
images\S5_F_H_02.png,images\S5_F_H_02_scrambled.png,5,happy,20,female,5,,506,off,1,0.5,0.75,0.5,0.899,3,505,1,1,2,0,0,0,0,5,,,,,,0,129,129,129,,,,,,,,,,,,,,,,,,,,,,,,,,,,,,,,,,,,,,,,,,,,,,,,,,,,,,,,,704.6574002999996,705.1571666,705.1571666,705.9097101999996,705.9097101999996,706.4123257000001,706.4123257000001,707.3176480000002,707.3176480000002,None,num_4,0.22552300000006653,707.3176480000002,None,happy,1,Happy,707.5564490500005,None,None,707.5564490500005,None,,,,,,,,,,,,,,,,,,,,,,,,,,,,,,,,,,,,,,,,,,,,,,,,,,,,,5,001,male,20,500,500,2022_Aug_06_1237,Experiment,2021.1.4,360.1202801723732,
images\blank.jpg,images\blank.jpg,none,none,none,none,0,,602,on,2,0.5,0.75,0.5,0.843,0,601,1,1,1,3,3,48,192,240,,,,,,0,130,130,130,,,,,,,,,,,,,,,,,,,,,,,,,,,,,,,,,,,,,,,,,,,,,,,,,,,,,,,,,707.6399156999996,708.1423432000001,708.1423432000001,708.8949000000002,708.8949000000002,709.3975570000002,709.3975570000002,710.2473159000001,710.2473159000001,710.2473159000001,None,,710.2473159000001,None,miss,1,,713.2491178999999,None,space,713.2491178999999,None,66.99778499999957,,,,,,,,,,,,,,,,,,,,,,,,,,,,,,,,,,,,,,,,,,,,,,,,,,,,5,001,male,20,500,500,2022_Aug_06_1237,Experiment,2021.1.4,360.1202801723732,
images\S2_M_H_02.png,images\S2_M_H_02_scrambled.png,2,happy,20,male,5,,308,on,2,0.5,0.75,0.5,0.847,3,307,2,1,1,2,2,32,128,165,,,,,,0,131,131,131,,,,,,,,,,,,,,,,,,,,,,,,,,,,,,,,,,,,,,,,,,,,,,,,,,,,,,,,,780.3703282999995,780.8756028999996,780.8756028999996,781.6252427,781.6252427,782.1278983000002,782.1278983000002,782.9776420999997,782.9776420999997,None,num_4,0.2612789000004341,782.9776420999997,None,happy,1,Happy,783.2497512,None,None,783.2497512,None,,,,,,,,,,,,,,,,,,,,,,,,,,,,,,,,,,,,,,,,,,,,,,,,,,,,,5,001,male,20,500,500,2022_Aug_06_1237,Experiment,2021.1.4,360.1202801723732,
images\S7_F_H_02.png,images\S7_F_H_02_scrambled.png,7,happy,20,female,5,,158,off,1,0.5,0.75,0.5,0.886,3,157,1,1,2,0,0,0,0,5,,,,,,0,132,132,132,,,,,,,,,,,,,,,,,,,,,,,,,,,,,,,,,,,,,,,,,,,,,,,,,,,,,,,,,783.2997292999999,783.8051284000003,783.8051284000003,784.5548988,784.5548988,785.0547930000002,785.0547930000002,785.9489904000002,785.9489904000002,None,num_4,0.2180170999999973,785.9489904000002,None,happy,1,Happy,786.1766284000005,None,None,786.1766284000005,None,,,,,,,,,,,,,,,,,,,,,,,,,,,,,,,,,,,,,,,,,,,,,,,,,,,,,5,001,male,20,500,500,2022_Aug_06_1237,Experiment,2021.1.4,360.1202801723732,
images\S1_F_H_03.png,images\S1_F_H_03_scrambled.png,1,happy,30,female,6,,243,off,1,0.5,0.75,0.5,0.758,3,242,2,1,1,0,0,0,0,6,,,,,,0,133,133,133,,,,,,,,,,,,,,,,,,,,,,,,,,,,,,,,,,,,,,,,,,,,,,,,,,,,,,,,,786.2267184000002,786.7320553999998,786.7320553999998,787.4817955999997,787.4817955999997,787.9872256999997,787.9872256999997,788.7480724999996,788.7480724999996,None,num_4,0.29899639999985084,788.7480724999996,None,happy,1,Happy,789.0675004000004,None,None,789.0675004000004,None,,,,,,,,,,,,,,,,,,,,,,,,,,,,,,,,,,,,,,,,,,,,,,,,,,,,,5,001,male,20,500,500,2022_Aug_06_1237,Experiment,2021.1.4,360.1202801723732,
images\S4_M_S_02.png,images\S4_M_S_02_scrambled.png,4,sad,-20,male,2,,263,off,1,0.5,0.75,0.5,0.775,3,262,3,1,1,0,0,0,0,2,,,,,,0,134,134,134,,,,,,,,,,,,,,,,,,,,,,,,,,,,,,,,,,,,,,,,,,,,,,,,,,,,,,,,,789.1201515000002,789.6227735000002,789.6227735000002,790.3725389000001,790.3725389000001,790.8752021999999,790.8752021999999,791.652744,791.652744,None,num_6,0.31430120000004536,791.652744,None,sad,1,Sad,791.9776301000002,None,None,791.9776301000002,None,,,,,,,,,,,,,,,,,,,,,,,,,,,,,,,,,,,,,,,,,,,,,,,,,,,,,5,001,male,20,500,500,2022_Aug_06_1237,Experiment,2021.1.4,360.1202801723732,
images\S5_F_S_01.png,images\S5_F_S_01_scrambled.png,5,sad,-10,female,3,,268,off,1,0.5,0.75,0.5,0.792,3,267,4,1,1,0,0,0,0,3,,,,,,0,135,135,135,,,,,,,,,,,,,,,,,,,,,,,,,,,,,,,,,,,,,,,,,,,,,,,,,,,,,,,,,792.0248179,792.5274404000002,792.5274404000002,793.2799790999998,793.2799790999998,793.7826008000002,793.7826008000002,794.5768705999999,794.5768705999999,None,num_4,0.23007899999993242,794.5768705999999,None,happy,1,Sad,794.8156294,None,None,794.8156294,None,,,,,,,,,,,,,,,,,,,,,,,,,,,,,,,,,,,,,,,,,,,,,,,,,,,,,5,001,male,20,500,500,2022_Aug_06_1237,Experiment,2021.1.4,360.1202801723732,
images\S10_M_H_03.png,images\S10_M_H_03_scrambled.png,10,happy,30,male,6,,57,off,1,0.5,0.75,0.5,0.854,3,56,5,1,1,0,0,0,0,6,,,,,,0,136,136,136,,,,,,,,,,,,,,,,,,,,,,,,,,,,,,,,,,,,,,,,,,,,,,,,,,,,,,,,,794.9405534999996,795.4404208999995,795.4404208999995,796.1929663000001,796.1929663000001,796.6983949999994,796.6983949999994,797.5565562000002,797.5565562000002,None,num_4,0.1945372000000134,797.5565562000002,None,happy,1,Happy,797.7759714500003,None,None,797.7759714500003,None,,,,,,,,,,,,,,,,,,,,,,,,,,,,,,,,,,,,,,,,,,,,,,,,,,,,,5,001,male,20,500,500,2022_Aug_06_1237,Experiment,2021.1.4,360.1202801723732,
images\S5_F_H_01.png,images\S5_F_H_01_scrambled.png,5,happy,10,female,4,,85,on,2,0.5,0.75,0.5,0.897,3,84,1,1,1,2,2,32,128,164,,,,,,0,137,137,137,,,,,,,,,,,,,,,,,,,,,,,,,,,,,,,,,,,,,,,,,,,,,,,,,,,,,,,,,797.8841223,798.3868464999996,798.3868464999996,799.1421199999995,799.1421199999995,799.6446850000002,799.6446850000002,800.5472234999997,800.5472234999997,None,num_4,0.21174810000047728,800.5472234999997,None,happy,1,Happy,800.7777024499997,None,None,800.7777024499997,None,,,,,,,,,,,,,,,,,,,,,,,,,,,,,,,,,,,,,,,,,,,,,,,,,,,,,5,001,male,20,500,500,2022_Aug_06_1237,Experiment,2021.1.4,360.1202801723732,
images\S9_F_H_03.png,images\S9_F_H_03_scrambled.png,9,happy,30,female,6,,351,on,2,0.5,0.75,0.5,0.899,3,350,2,1,1,2,2,32,128,166,,,,,,0,138,138,138,,,,,,,,,,,,,,,,,,,,,,,,,,,,,,,,,,,,,,,,,,,,,,,,,,,,,,,,,800.8415399999994,801.3441720000001,801.3441720000001,802.0968224999997,802.0968224999997,802.6021592999996,802.6021592999996,803.5074236999999,803.5074236999999,None,num_4,0.4356199999992896,803.5074236999999,None,happy,1,Happy,803.9600318000003,None,None,803.9600318000003,None,,,,,,,,,,,,,,,,,,,,,,,,,,,,,,,,,,,,,,,,,,,,,,,,,,,,,5,001,male,20,500,500,2022_Aug_06_1237,Experiment,2021.1.4,360.1202801723732,
images\S5_F_S_03.png,images\S5_F_S_03_scrambled.png,5,sad,-30,female,1,,510,off,1,0.5,0.75,0.5,0.766,3,509,1,1,1,0,0,0,0,1,,,,,,0,139,139,139,,,,,,,,,,,,,,,,,,,,,,,,,,,,,,,,,,,,,,,,,,,,,,,,,,,,,,,,,804.0072390999994,804.5126643000003,804.5126643000003,805.2623917999999,805.2623917999999,805.7678177999996,805.7678177999996,806.5370584000002,806.5370584000002,None,num_6,0.23000199999933102,806.5370584000002,None,sad,1,Sad,806.7898107999999,None,None,806.7898107999999,None,,,,,,,,,,,,,,,,,,,,,,,,,,,,,,,,,,,,,,,,,,,,,,,,,,,,,5,001,male,20,500,500,2022_Aug_06_1237,Experiment,2021.1.4,360.1202801723732,
