image_face,image_scram,avatar,emo,emotion,sex,trigeeg,dac,trial_no,NMES,stimtime,baseline,iti,face,scr_face,resp_time,index,count_NMES,count_avatar,count_emotion,dac1,dac2,dac1_output,dac2_output,trigs_out,nmes,practice_trials.thisRepN,practice_trials.thisTrialN,practice_trials.thisN,practice_trials.thisIndex,real_trials.thisRepN,real_trials.thisTrialN,real_trials.thisN,real_trials.thisIndex,trials.thisRepN,trials.thisTrialN,trials.thisN,trials.thisIndex,position,Welcome.started,Welcome.stopped,Welcome_resp.keys,Welcome_resp.rt,text_2.started,text_2.stopped,form_2.index,form_2.itemText,form_2.type,form_2.response,form_2.rt,key_resp_4.keys,key_resp_4.rt,key_resp_4.started,key_resp_4.stopped,instructions.started,instructions.stopped,end_instr.keys,end_instr.rt,instructions_2.started,instructions_2.stopped,end_instr_2.keys,end_instr_2.rt,end_instr_2.started,end_instr_2.stopped,instruct_keypress.started,instruct_keypress.stopped,end_instruct_keypress.keys,end_instruct_keypress.rt,start_practice.started,start_practice.stopped,start_practice_resp.keys,start_practice_resp.rt,prac_baseline.started,prac_baseline.stopped,prac_iti.started,prac_iti.stopped,prac_stimulus.started,prac_stimulus.stopped,prac_scram_stim.started,prac_scram_stim.stopped,prac_stimulus_resp.started,prac_stimulus_resp.stopped,prac_resp.keys,prac_resp.started,prac_resp.stopped,prac_resp.rt,transition_to_real.started,transition_to_real.stopped,end_transition_to_real.keys,end_transition_to_real.rt,fixation_cross.started,fixation_cross.stopped,tr_iti.started,tr_iti.stopped,stimulus.started,stimulus.stopped,scram_stim.started,scram_stim.stopped,response_txt.started,response_txt.stopped,response.keys,response.rt,response.started,response.stopped,participant_Resp,grouping,corAnswer,break_msg.started,break_msg.stopped,end_break.keys,end_break.started,end_break.stopped,end_break.rt,text.started,text.stopped,key_resp_3.keys,key_resp_3.rt,key_resp_3.started,key_resp_3.stopped,fix_cross_comf.started,fix_cross_comf.stopped,stimulation_comf.started,stimulation_comf.stopped,rate_instr.started,rate_instr.stopped,comfort_rating.response,comfort_rating.rt,comfort_rating.started,comfort_rating.stopped,resp_form.keys,resp_form.rt,resp_form.started,resp_form.stopped,survey_instructions.started,survey_instructions.stopped,key_resp_2.keys,key_resp_2.rt,key_resp_2.started,key_resp_2.stopped,form.index,form.itemText,form.type,form.response,form.rt,key_resp.keys,key_resp.rt,key_resp.started,key_resp.stopped,text_3.started,text_3.stopped,rate_smile.response,rate_smile.rt,rate_smile.started,rate_smile.stopped,key_resp_5.keys,key_resp_5.rt,key_resp_5.started,key_resp_5.stopped,end_msg.started,end_msg.stopped,end_resp.keys,end_resp.rt,end_resp.started,end_resp.stopped,participant,session,gender,age,LEFT,RIGHT,date,expName,psychopyVersion,frameRate,
,,,,,,,,,,,,,,,,,,,,,,,,,,,,,,,,,,,,,,S-H,72.06744230000004,None,num_add,5.006997599999522,,,,,,,,,,,,,,,,,,,,,,,,,,,,,,,,,,,,,,,,,,,,,,,,,,,,,,,,,,,,,,,,,,,,,,,,,,,,,,,,,,,,,,,,,,,,,,,,,,,,,,,,,,,,,,,,,,,,,,,,,,6,001,female,20,375,400,2022_Aug_10_1145,Experiment,2021.1.4,360.06322711517873,
,,,,,,,,,,,,,,,,,,,,,,,,,,,,,,,,,,,,,,,,,,,77.08405879999918,79.11958149999919,1,"This scale consistes of a number of words that describe different feelings and emotion. Read each item and then list the number from the scale below each word. Indicate (by clicking) to what extend you feel this way RIGHT NOW, that is, AT THE PRESENT MOMENT.",description,,,,,,,,,,,,,,,,,,,,,,,,,,,,,,,,,,,,,,,,,,,,,,,,,,,,,,,,,,,,,,,,,,,,,,,,,,,,,,,,,,,,,,,,,,,,,,,,,,,,,,,,,,,,,,,,,,,,,6,001,female,20,375,400,2022_Aug_10_1145,Experiment,2021.1.4,360.06322711517873,
,,,,,,,,,,,,,,,,,,,,,,,,,,,,,,,,,,,,,,,,,,,,,2,Interested,rating,5.0,34.101296799999545,,,,,,,,,,,,,,,,,,,,,,,,,,,,,,,,,,,,,,,,,,,,,,,,,,,,,,,,,,,,,,,,,,,,,,,,,,,,,,,,,,,,,,,,,,,,,,,,,,,,,,,,,,,,,,,,,,,6,001,female,20,375,400,2022_Aug_10_1145,Experiment,2021.1.4,360.06322711517873,
,,,,,,,,,,,,,,,,,,,,,,,,,,,,,,,,,,,,,,,,,,,,,3,Distressed,rating,4.0,40.5255245999997,,,,,,,,,,,,,,,,,,,,,,,,,,,,,,,,,,,,,,,,,,,,,,,,,,,,,,,,,,,,,,,,,,,,,,,,,,,,,,,,,,,,,,,,,,,,,,,,,,,,,,,,,,,,,,,,,,,6,001,female,20,375,400,2022_Aug_10_1145,Experiment,2021.1.4,360.06322711517873,
,,,,,,,,,,,,,,,,,,,,,,,,,,,,,,,,,,,,,,,,,,,,,4,Excited,rating,4.0,43.14373030000024,,,,,,,,,,,,,,,,,,,,,,,,,,,,,,,,,,,,,,,,,,,,,,,,,,,,,,,,,,,,,,,,,,,,,,,,,,,,,,,,,,,,,,,,,,,,,,,,,,,,,,,,,,,,,,,,,,,6,001,female,20,375,400,2022_Aug_10_1145,Experiment,2021.1.4,360.06322711517873,
,,,,,,,,,,,,,,,,,,,,,,,,,,,,,,,,,,,,,,,,,,,,,5,Upset,rating,1.0,54.03638130000036,,,,,,,,,,,,,,,,,,,,,,,,,,,,,,,,,,,,,,,,,,,,,,,,,,,,,,,,,,,,,,,,,,,,,,,,,,,,,,,,,,,,,,,,,,,,,,,,,,,,,,,,,,,,,,,,,,,6,001,female,20,375,400,2022_Aug_10_1145,Experiment,2021.1.4,360.06322711517873,
,,,,,,,,,,,,,,,,,,,,,,,,,,,,,,,,,,,,,,,,,,,,,6,Strong,rating,4.0,67.5934997000004,,,,,,,,,,,,,,,,,,,,,,,,,,,,,,,,,,,,,,,,,,,,,,,,,,,,,,,,,,,,,,,,,,,,,,,,,,,,,,,,,,,,,,,,,,,,,,,,,,,,,,,,,,,,,,,,,,,6,001,female,20,375,400,2022_Aug_10_1145,Experiment,2021.1.4,360.06322711517873,
,,,,,,,,,,,,,,,,,,,,,,,,,,,,,,,,,,,,,,,,,,,,,7,Guilty,rating,1.0,22.43901580000056,,,,,,,,,,,,,,,,,,,,,,,,,,,,,,,,,,,,,,,,,,,,,,,,,,,,,,,,,,,,,,,,,,,,,,,,,,,,,,,,,,,,,,,,,,,,,,,,,,,,,,,,,,,,,,,,,,,6,001,female,20,375,400,2022_Aug_10_1145,Experiment,2021.1.4,360.06322711517873,
,,,,,,,,,,,,,,,,,,,,,,,,,,,,,,,,,,,,,,,,,,,,,8,Scared,rating,1.0,23.303862099999606,,,,,,,,,,,,,,,,,,,,,,,,,,,,,,,,,,,,,,,,,,,,,,,,,,,,,,,,,,,,,,,,,,,,,,,,,,,,,,,,,,,,,,,,,,,,,,,,,,,,,,,,,,,,,,,,,,,6,001,female,20,375,400,2022_Aug_10_1145,Experiment,2021.1.4,360.06322711517873,
,,,,,,,,,,,,,,,,,,,,,,,,,,,,,,,,,,,,,,,,,,,,,9,Hostile,rating,1.0,28.277657499998895,,,,,,,,,,,,,,,,,,,,,,,,,,,,,,,,,,,,,,,,,,,,,,,,,,,,,,,,,,,,,,,,,,,,,,,,,,,,,,,,,,,,,,,,,,,,,,,,,,,,,,,,,,,,,,,,,,,6,001,female,20,375,400,2022_Aug_10_1145,Experiment,2021.1.4,360.06322711517873,
,,,,,,,,,,,,,,,,,,,,,,,,,,,,,,,,,,,,,,,,,,,,,10,Enthusiastic,rating,4.0,23.35966830000143,,,,,,,,,,,,,,,,,,,,,,,,,,,,,,,,,,,,,,,,,,,,,,,,,,,,,,,,,,,,,,,,,,,,,,,,,,,,,,,,,,,,,,,,,,,,,,,,,,,,,,,,,,,,,,,,,,,6,001,female,20,375,400,2022_Aug_10_1145,Experiment,2021.1.4,360.06322711517873,
,,,,,,,,,,,,,,,,,,,,,,,,,,,,,,,,,,,,,,,,,,,,,11,Proud,rating,4.0,7.955993800000215,,,,,,,,,,,,,,,,,,,,,,,,,,,,,,,,,,,,,,,,,,,,,,,,,,,,,,,,,,,,,,,,,,,,,,,,,,,,,,,,,,,,,,,,,,,,,,,,,,,,,,,,,,,,,,,,,,,6,001,female,20,375,400,2022_Aug_10_1145,Experiment,2021.1.4,360.06322711517873,
,,,,,,,,,,,,,,,,,,,,,,,,,,,,,,,,,,,,,,,,,,,,,12,Irritable,rating,1.0,9.644631699999081,,,,,,,,,,,,,,,,,,,,,,,,,,,,,,,,,,,,,,,,,,,,,,,,,,,,,,,,,,,,,,,,,,,,,,,,,,,,,,,,,,,,,,,,,,,,,,,,,,,,,,,,,,,,,,,,,,,6,001,female,20,375,400,2022_Aug_10_1145,Experiment,2021.1.4,360.06322711517873,
,,,,,,,,,,,,,,,,,,,,,,,,,,,,,,,,,,,,,,,,,,,,,13,Alert,rating,1.0,10.875169900000401,,,,,,,,,,,,,,,,,,,,,,,,,,,,,,,,,,,,,,,,,,,,,,,,,,,,,,,,,,,,,,,,,,,,,,,,,,,,,,,,,,,,,,,,,,,,,,,,,,,,,,,,,,,,,,,,,,,6,001,female,20,375,400,2022_Aug_10_1145,Experiment,2021.1.4,360.06322711517873,
,,,,,,,,,,,,,,,,,,,,,,,,,,,,,,,,,,,,,,,,,,,,,14,Ashamed,rating,1.0,7.866369599998507,,,,,,,,,,,,,,,,,,,,,,,,,,,,,,,,,,,,,,,,,,,,,,,,,,,,,,,,,,,,,,,,,,,,,,,,,,,,,,,,,,,,,,,,,,,,,,,,,,,,,,,,,,,,,,,,,,,6,001,female,20,375,400,2022_Aug_10_1145,Experiment,2021.1.4,360.06322711517873,
,,,,,,,,,,,,,,,,,,,,,,,,,,,,,,,,,,,,,,,,,,,,,15,Inspired,rating,3.0,5.784155399998781,,,,,,,,,,,,,,,,,,,,,,,,,,,,,,,,,,,,,,,,,,,,,,,,,,,,,,,,,,,,,,,,,,,,,,,,,,,,,,,,,,,,,,,,,,,,,,,,,,,,,,,,,,,,,,,,,,,6,001,female,20,375,400,2022_Aug_10_1145,Experiment,2021.1.4,360.06322711517873,
,,,,,,,,,,,,,,,,,,,,,,,,,,,,,,,,,,,,,,,,,,,,,16,Nervous,rating,3.0,6.33986140000161,,,,,,,,,,,,,,,,,,,,,,,,,,,,,,,,,,,,,,,,,,,,,,,,,,,,,,,,,,,,,,,,,,,,,,,,,,,,,,,,,,,,,,,,,,,,,,,,,,,,,,,,,,,,,,,,,,,6,001,female,20,375,400,2022_Aug_10_1145,Experiment,2021.1.4,360.06322711517873,
,,,,,,,,,,,,,,,,,,,,,,,,,,,,,,,,,,,,,,,,,,,,,17,Determined,rating,4.0,8.09051349999936,,,,,,,,,,,,,,,,,,,,,,,,,,,,,,,,,,,,,,,,,,,,,,,,,,,,,,,,,,,,,,,,,,,,,,,,,,,,,,,,,,,,,,,,,,,,,,,,,,,,,,,,,,,,,,,,,,,6,001,female,20,375,400,2022_Aug_10_1145,Experiment,2021.1.4,360.06322711517873,
,,,,,,,,,,,,,,,,,,,,,,,,,,,,,,,,,,,,,,,,,,,,,18,Attentive,rating,5.0,10.930142700000943,,,,,,,,,,,,,,,,,,,,,,,,,,,,,,,,,,,,,,,,,,,,,,,,,,,,,,,,,,,,,,,,,,,,,,,,,,,,,,,,,,,,,,,,,,,,,,,,,,,,,,,,,,,,,,,,,,,6,001,female,20,375,400,2022_Aug_10_1145,Experiment,2021.1.4,360.06322711517873,
,,,,,,,,,,,,,,,,,,,,,,,,,,,,,,,,,,,,,,,,,,,,,19,Jittery,rating,2.0,14.564476800000193,,,,,,,,,,,,,,,,,,,,,,,,,,,,,,,,,,,,,,,,,,,,,,,,,,,,,,,,,,,,,,,,,,,,,,,,,,,,,,,,,,,,,,,,,,,,,,,,,,,,,,,,,,,,,,,,,,,6,001,female,20,375,400,2022_Aug_10_1145,Experiment,2021.1.4,360.06322711517873,
,,,,,,,,,,,,,,,,,,,,,,,,,,,,,,,,,,,,,,,,,,,,,20,Active,rating,4.0,15.357687199999418,,,,,,,,,,,,,,,,,,,,,,,,,,,,,,,,,,,,,,,,,,,,,,,,,,,,,,,,,,,,,,,,,,,,,,,,,,,,,,,,,,,,,,,,,,,,,,,,,,,,,,,,,,,,,,,,,,,6,001,female,20,375,400,2022_Aug_10_1145,Experiment,2021.1.4,360.06322711517873,
,,,,,,,,,,,,,,,,,,,,,,,,,,,,,,,,,,,,,,,,,,,,,21,Afraid,rating,1.0,15.100951200000054,,,,,,,,,,,,,,,,,,,,,,,,,,,,,,,,,,,,,,,,,,,,,,,,,,,,,,,,,,,,,,,,,,,,,,,,,,,,,,,,,,,,,,,,,,,,,,,,,,,,,,,,,,,,,,,,,,,6,001,female,20,375,400,2022_Aug_10_1145,Experiment,2021.1.4,360.06322711517873,
,,,,,,,,,,,,,,,,,,,,,,,,,,,,,,,,,,,,,,,,,,,,,22,Press the + button to submit your answers,description,,,,,,,,,,,,,,,,,,,,,,,,,,,,,,,,,,,,,,,,,,,,,,,,,,,,,,,,,,,,,,,,,,,,,,,,,,,,,,,,,,,,,,,,,,,,,,,,,,,,,,,,,,,,,,,,,,,,,6,001,female,20,375,400,2022_Aug_10_1145,Experiment,2021.1.4,360.06322711517873,
,,,,,,,,,,,,,,,,,,,,,,,,,,,,,,,,,,,,,,,,,,,,,,,,,,num_add,104.19488820000151,87.11155820000022,None,,,,,,,,,,,,,,,,,,,,,,,,,,,,,,,,,,,,,,,,,,,,,,,,,,,,,,,,,,,,,,,,,,,,,,,,,,,,,,,,,,,,,,,,,,,,,,,,,,,,,,,,,,,,,,,6,001,female,20,375,400,2022_Aug_10_1145,Experiment,2021.1.4,360.06322711517873,
,,,,,,,,,,,,,,,,,,,,,,,,,,,,,,,,,,,,,,,,,,,,,,,,,,,,,,191.3434997000004,None,num_add,24.738850400000956,,,,,,,,,,,,,,,,,,,,,,,,,,,,,,,,,,,,,,,,,,,,,,,,,,,,,,,,,,,,,,,,,,,,,,,,,,,,,,,,,,,,,,,,,,,,,,,,,,,,,,,,,,,6,001,female,20,375,400,2022_Aug_10_1145,Experiment,2021.1.4,360.06322711517873,
,,,,,,,,,,,,,,,,,,,,,,,,,,,,,,,,,,,,,,,,,,,,,,,,,,,,,,,,,,216.0969370999992,None,num_add,10.441529300000184,216.0969370999992,None,,,,,,,,,,,,,,,,,,,,,,,,,,,,,,,,,,,,,,,,,,,,,,,,,,,,,,,,,,,,,,,,,,,,,,,,,,,,,,,,,,,,,,,,,,,,,,,,,,,,,6,001,female,20,375,400,2022_Aug_10_1145,Experiment,2021.1.4,360.06322711517873,
,,,,,,,,,,,,,,,,,,,,,,,,,,,,,,,,,,,,,,,,,,,,,,,,,,,,,,,,,,,,,,,,226.55759829999988,None,num_add,8.844770400000925,,,,,,,,,,,,,,,,,,,,,,,,,,,,,,,,,,,,,,,,,,,,,,,,,,,,,,,,,,,,,,,,,,,,,,,,,,,,,,,,,,,,,,,,,,,,,,,,,6,001,female,20,375,400,2022_Aug_10_1145,Experiment,2021.1.4,360.06322711517873,
,,,,,,,,,,,,,,,,,,,,,,,,,,,,,,,,,,,,,,,,,,,,,,,,,,,,,,,,,,,,,,,,,,,,235.4132155999996,None,space,14.957138000001578,,,,,,,,,,,,,,,,,,,,,,,,,,,,,,,,,,,,,,,,,,,,,,,,,,,,,,,,,,,,,,,,,,,,,,,,,,,,,,,,,,,,,,,,,,,,,6,001,female,20,375,400,2022_Aug_10_1145,Experiment,2021.1.4,360.06322711517873,
images\S22_M_H_02.png,images\S22_M_H_02_scrambled.png,22,Happy,-0.2,M,0,0,practice,off,1,0.5,0.75,0.5,0.883,3,,,,,,,,,,,0,0,0,2,,,,,,,,,,,,,,,,,,,,,,,,,,,,,,,,,,,,,,,,,,,250.53912069999933,251.0417598999993,251.0417598999993,251.79151459999957,251.79151459999957,252.2913521999999,252.2913521999999,253.18008630000077,253.18008630000077,None,None,253.18008630000077,None,,,,,,,,,,,,,,,,,,,,,,,,,,,,,,,,,,,,,,,,,,,,,,,,,,,,,,,,,,,,,,,,,,,,,,,,,,,,,,,,6,001,female,20,375,400,2022_Aug_10_1145,Experiment,2021.1.4,360.06322711517873,
images\S22_M_S_02.png,images\S22_M_S_02_scrambled.png,22,Sad,0.2,M,0,0,practice,off,1,0.5,0.75,0.5,0.751,3,,,,,,,,,,,0,1,1,3,,,,,,,,,,,,,,,,,,,,,,,,,,,,,,,,,,,,,,,,,,,256.26792319999913,256.7706725000007,256.7706725000007,257.52032970000073,257.52032970000073,258.02015310000024,258.02015310000024,258.7754666000001,258.7754666000001,256.26792319999913,num_6,258.7754666000001,256.26792319999913,1.1793963000000076,,,,,,,,,,,,,,,,,,,,,,,,,,,,,,,,,,,,,,,,,,,,,,,,,,,,,,,,,,,,,,,,,,,,,,,,,,,,,,,6,001,female,20,375,400,2022_Aug_10_1145,Experiment,2021.1.4,360.06322711517873,
images\S21_F_H_02.png,images\S21_F_H_02_scrambled.png,21,Happy,-0.2,F,0,0,practice,off,1,0.5,0.75,0.5,0.91,3,,,,,,,,,,,0,2,2,1,,,,,,,,,,,,,,,,,,,,,,,,,,,,,,,,,,,,,,,,,,,260.0473089999996,260.55272650000006,260.55272650000006,261.30539359999966,261.30539359999966,261.8051140000007,261.8051140000007,262.72153869999966,262.72153869999966,None,num_6,262.72153869999966,None,2.3052623999992647,,,,,,,,,,,,,,,,,,,,,,,,,,,,,,,,,,,,,,,,,,,,,,,,,,,,,,,,,,,,,,,,,,,,,,,,,,,,,,,6,001,female,20,375,400,2022_Aug_10_1145,Experiment,2021.1.4,360.06322711517873,
images\S22_M_S_03.png,images\S22_M_S_03_scrambled.png,22,Sad,0.3,M,0,0,practice,on,2,0.5,0.75,0.5,0.87,3,,,,,,,,,,,0,3,3,4,,,,,,,,,,,,,,,,,,,,,,,,,,,,,,,,,,,,,,,,,,,265.1179702999998,265.62338230000023,265.62338230000023,266.3760299000005,266.3760299000005,266.87578179999946,266.87578179999946,267.75062029999935,267.75062029999935,None,num_4,267.75062029999935,None,1.4442951000000903,,,,,,,,,,,,,,,,,,,,,,,,,,,,,,,,,,,,,,,,,,,,,,,,,,,,,,,,,,,,,,,,,,,,,,,,,,,,,,,6,001,female,20,375,400,2022_Aug_10_1145,Experiment,2021.1.4,360.06322711517873,
images\S22_M_S_01.png,images\S22_M_S_01_scrambled.png,22,Sad,0.1,M,0,0,practice,on,2,0.5,0.75,0.5,0.867,3,,,,,,,,,,,0,4,4,5,,,,,,,,,,,,,,,,,,,,,,,,,,,,,,,,,,,,,,,,,,,269.2833623000006,269.78607790000024,269.78607790000024,270.53577310000037,270.53577310000037,271.03841959999954,271.03841959999954,271.9075795000008,271.9075795000008,None,num_4,271.9075795000008,None,0.663311899999826,,,,,,,,,,,,,,,,,,,,,,,,,,,,,,,,,,,,,,,,,,,,,,,,,,,,,,,,,,,,,,,,,,,,,,,,,,,,,,,6,001,female,20,375,400,2022_Aug_10_1145,Experiment,2021.1.4,360.06322711517873,
images\S22_M_S_02.png,images\S22_M_S_02_scrambled.png,22,Sad,0.2,M,0,0,practice,on,2,0.5,0.75,0.5,0.783,3,,,,,,,,,,,0,5,5,6,,,,,,,,,,,,,,,,,,,,,,,,,,,,,,,,,,,,,,,,,,,272.62677690000055,273.1321914,273.1321914,273.88476570000057,273.88476570000057,274.3873715999998,274.3873715999998,275.1760850999999,275.1760850999999,None,num_4,275.1760850999999,None,0.7708391999985906,,,,,,,,,,,,,,,,,,,,,,,,,,,,,,,,,,,,,,,,,,,,,,,,,,,,,,,,,,,,,,,,,,,,,,,,,,,,,,,6,001,female,20,375,400,2022_Aug_10_1145,Experiment,2021.1.4,360.06322711517873,
images\S21_F_H_01.png,images\S21_F_H_01_scrambled.png,21,Happy,-0.1,F,0,0,practice,off,1,0.5,0.75,0.5,0.853,3,,,,,,,,,,,0,6,6,0,,,,,,,,,,,,,,,,,,,,,,,,,,,,,,,,,,,,,,,,,,,276.03684240000075,276.54226539999945,276.54226539999945,277.29758539999966,277.29758539999966,277.8029826000002,277.8029826000002,278.66112070000054,278.66112070000054,None,num_6,278.66112070000054,None,1.9656692000007752,,,,,,,,,,,,,,,,,,,,,,,,,,,,,,,,,,,,,,,,,,,,,,,,,,,,,,,,,,,,,,,,,,,,,,,,,,,,,,,6,001,female,20,375,400,2022_Aug_10_1145,Experiment,2021.1.4,360.06322711517873,
images\S22_M_S_03.png,images\S22_M_S_03_scrambled.png,22,Sad,0.3,M,0,0,practice,on,2,0.5,0.75,0.5,0.794,3,,,,,,,,,,,0,7,7,7,,,,,,,,,,,,,,,,,,,,,,,,,,,,,,,,,,,,,,,,,,,280.6798509,281.18251109999983,281.18251109999983,281.9378194000001,281.9378194000001,282.44045170000027,282.44045170000027,283.2403097000006,283.2403097000006,None,num_4,283.2403097000006,None,0.2508232999989559,,,,,,,,,,,,,,,,,,,,,,,,,,,,,,,,,,,,,,,,,,,,,,,,,,,,,,,,,,,,,,,,,,,,,,,,,,,,,,,6,001,female,20,375,400,2022_Aug_10_1145,Experiment,2021.1.4,360.06322711517873,
,,,,,,,,,,,,,,,,,,,,,,,,,,,,,,,,,,,,,,,,,,,,,,,,,,,,,,,,,,,,,,,,,,,,,,,,,,,,,,,,,,,,,,283.5289749000003,None,space,29.657168000001548,,,,,,,,,,,,,,,,,,,,,,,,,,,,,,,,,,,,,,,,,,,,,,,,,,,,,,,,,,,,,,,,,,,,,,,,,,,6,001,female,20,375,400,2022_Aug_10_1145,Experiment,2021.1.4,360.06322711517873,
images\S7_F_H_03.png,images\S7_F_H_03_scrambled.png,7,happy,30,female,6,,339,on,2,0.5,0.75,0.5,0.942,3,338,1,1,1,2,2,32,128,166,,,,,,0,0,0,0,,,,,,,,,,,,,,,,,,,,,,,,,,,,,,,,,,,,,,,,,,,,,,,,,,,,,,,,,313.689151999999,314.1917780999993,314.1917780999993,314.9471312000005,314.9471312000005,315.44694659999914,315.44694659999914,316.391162599999,316.391162599999,None,num_6,0.7076090999998996,316.391162599999,None,happy,0,Happy,317.1297994399991,None,None,317.1297994399991,None,,,,,,,,,,,,,,,,,,,,,,,,,,,,,,,,,,,,,,,,,,,,,,,,,,,,,6,001,female,20,375,400,2022_Aug_10_1145,Experiment,2021.1.4,360.06322711517873,
images\S9_F_H_03.png,images\S9_F_H_03_scrambled.png,9,happy,30,female,6,,471,on,2,0.5,0.75,0.5,0.923,3,470,2,1,2,2,2,32,128,166,,,,,,0,1,1,1,,,,,,,,,,,,,,,,,,,,,,,,,,,,,,,,,,,,,,,,,,,,,,,,,,,,,,,,,317.2186380000003,317.7212555999995,317.7212555999995,318.47380709999925,318.47380709999925,318.97641789999943,318.97641789999943,319.90391649999947,319.90391649999947,None,num_6,1.0589159999999538,319.90391649999947,None,happy,0,Happy,320.9730458599999,None,None,320.9730458599999,None,,,,,,,,,,,,,,,,,,,,,,,,,,,,,,,,,,,,,,,,,,,,,,,,,,,,,6,001,female,20,375,400,2022_Aug_10_1145,Experiment,2021.1.4,360.06322711517873,
images\S1_F_H_02.png,images\S1_F_H_02_scrambled.png,1,happy,20,female,5,,122,off,1,0.5,0.75,0.5,0.751,3,121,1,1,1,0,0,0,0,5,,,,,,0,2,2,2,,,,,,,,,,,,,,,,,,,,,,,,,,,,,,,,,,,,,,,,,,,,,,,,,,,,,,,,,321.0591055999994,321.5617750000001,321.5617750000001,322.3115197999996,322.3115197999996,322.8169517999995,322.8169517999995,323.5694478000005,323.5694478000005,None,num_4,0.3933528999987175,323.5694478000005,None,sad,0,Happy,323.97210097999925,None,None,323.97210097999925,None,,,,,,,,,,,,,,,,,,,,,,,,,,,,,,,,,,,,,,,,,,,,,,,,,,,,,6,001,female,20,375,400,2022_Aug_10_1145,Experiment,2021.1.4,360.06322711517873,
images\S9_F_S_02.png,images\S9_F_S_02_scrambled.png,9,sad,-20,female,2,,233,on,2,0.5,0.75,0.5,0.853,3,232,1,1,1,2,2,32,128,162,,,,,,0,3,3,3,,,,,,,,,,,,,,,,,,,,,,,,,,,,,,,,,,,,,,,,,,,,,,,,,,,,,,,,,324.0609722999998,324.566406599999,324.566406599999,325.3161507999994,325.3161507999994,325.81881330000033,325.81881330000033,326.6768654000007,326.6768654000007,None,num_4,0.5020601999985956,326.6768654000007,None,sad,0,Sad,327.1933373599997,None,None,327.1933373599997,None,,,,,,,,,,,,,,,,,,,,,,,,,,,,,,,,,,,,,,,,,,,,,,,,,,,,,6,001,female,20,375,400,2022_Aug_10_1145,Experiment,2021.1.4,360.06322711517873,
images\S7_F_H_01.png,images\S7_F_H_01_scrambled.png,7,happy,10,female,4,,37,off,1,0.5,0.75,0.5,0.851,3,36,1,1,1,0,0,0,0,4,,,,,,0,4,4,4,,,,,,,,,,,,,,,,,,,,,,,,,,,,,,,,,,,,,,,,,,,,,,,,,,,,,,,,,327.2794274000007,327.7820740999996,327.7820740999996,328.53738599999997,328.53738599999997,329.0427861999997,329.0427861999997,329.89805739999974,329.89805739999974,None,num_4,0.7529054999995424,329.89805739999974,None,sad,0,Happy,330.6561956799993,None,None,330.6561956799993,None,,,,,,,,,,,,,,,,,,,,,,,,,,,,,,,,,,,,,,,,,,,,,,,,,,,,,6,001,female,20,375,400,2022_Aug_10_1145,Experiment,2021.1.4,360.06322711517873,
images\S9_F_S_02.png,images\S9_F_S_02_scrambled.png,9,sad,-20,female,2,,473,on,2,0.5,0.75,0.5,0.932,3,472,1,1,1,2,2,32,128,162,,,,,,0,5,5,5,,,,,,,,,,,,,,,,,,,,,,,,,,,,,,,,,,,,,,,,,,,,,,,,,,,,,,,,,330.7061455000003,331.2115715,331.2115715,331.9668715000007,331.9668715000007,332.4694896000001,332.4694896000001,333.4053232999995,333.4053232999995,None,num_4,0.34168940000017756,333.4053232999995,None,sad,0,Sad,333.76073386000024,None,None,333.76073386000024,None,,,,,,,,,,,,,,,,,,,,,,,,,,,,,,,,,,,,,,,,,,,,,,,,,,,,,6,001,female,20,375,400,2022_Aug_10_1145,Experiment,2021.1.4,360.06322711517873,
images\S7_F_H_02.png,images\S7_F_H_02_scrambled.png,7,happy,20,female,5,,398,off,1,0.5,0.75,0.5,0.826,3,397,1,1,1,0,0,0,0,5,,,,,,0,6,6,6,,,,,,,,,,,,,,,,,,,,,,,,,,,,,,,,,,,,,,,,,,,,,,,,,,,,,,,,,333.86905990000014,334.3689073000005,334.3689073000005,335.1214839999993,335.1214839999993,335.6241064000005,335.6241064000005,336.45718189999934,336.45718189999934,None,num_6,0.9056815000003553,336.45718189999934,None,happy,0,Happy,337.37351676,None,None,337.37351676,None,,,,,,,,,,,,,,,,,,,,,,,,,,,,,,,,,,,,,,,,,,,,,,,,,,,,,6,001,female,20,375,400,2022_Aug_10_1145,Experiment,2021.1.4,360.06322711517873,
images\S3_F_H_03.png,images\S3_F_H_03_scrambled.png,3,happy,30,female,6,,435,on,2,0.5,0.75,0.5,0.814,3,434,1,1,1,2,2,32,128,166,,,,,,0,7,7,7,,,,,,,,,,,,,,,,,,,,,,,,,,,,,,,,,,,,,,,,,,,,,,,,,,,,,,,,,337.45961999999963,337.9651601000005,337.9651601000005,338.7147977000004,338.7147977000004,339.217414499999,339.217414499999,340.0338449999999,340.0338449999999,None,num_6,1.1130904000001465,340.0338449999999,None,happy,0,Happy,341.1584987599992,None,None,341.1584987599992,None,,,,,,,,,,,,,,,,,,,,,,,,,,,,,,,,,,,,,,,,,,,,,,,,,,,,,6,001,female,20,375,400,2022_Aug_10_1145,Experiment,2021.1.4,360.06322711517873,
images\S2_M_S_01.png,images\S2_M_S_01_scrambled.png,2,sad,-10,male,3,,250,off,1,0.5,0.75,0.5,0.778,3,249,1,1,1,0,0,0,0,3,,,,,,0,8,8,8,,,,,,,,,,,,,,,,,,,,,,,,,,,,,,,,,,,,,,,,,,,,,,,,,,,,,,,,,341.2445747999991,341.74721429999954,341.74721429999954,342.49985209999977,342.49985209999977,343.0052543999991,343.0052543999991,343.7855818000007,343.7855818000007,None,num_4,0.3456076000002213,343.7855818000007,None,sad,0,Sad,344.1549211200003,None,None,344.1549211200003,None,,,,,,,,,,,,,,,,,,,,,,,,,,,,,,,,,,,,,,,,,,,,,,,,,,,,,6,001,female,20,375,400,2022_Aug_10_1145,Experiment,2021.1.4,360.06322711517873,
images\S8_M_S_02.png,images\S8_M_S_02_scrambled.png,8,sad,-20,male,2,,287,off,1,0.5,0.75,0.5,0.854,3,286,2,1,1,0,0,0,0,2,,,,,,0,9,9,9,,,,,,,,,,,,,,,,,,,,,,,,,,,,,,,,,,,,,,,,,,,,,,,,,,,,,,,,,344.26308790000076,344.7658374999992,344.7658374999992,345.5211116999999,345.5211116999999,346.0264917000004,346.0264917000004,346.8845089000006,346.8845089000006,None,num_4,0.2784637000004295,346.8845089000006,None,sad,0,Sad,347.19008221999906,None,None,347.19008221999906,None,,,,,,,,,,,,,,,,,,,,,,,,,,,,,,,,,,,,,,,,,,,,,,,,,,,,,6,001,female,20,375,400,2022_Aug_10_1145,Experiment,2021.1.4,360.06322711517873,
images\S8_M_S_02.png,images\S8_M_S_02_scrambled.png,8,sad,-20,male,2,,47,off,1,0.5,0.75,0.5,0.884,3,46,3,2,2,0,0,0,0,2,,,,,,0,10,10,10,,,,,,,,,,,,,,,,,,,,,,,,,,,,,,,,,,,,,,,,,,,,,,,,,,,,,,,,,347.24272550000023,347.74547729999904,347.74547729999904,348.4951526999994,348.4951526999994,348.99776720000045,348.99776720000045,349.883581099999,349.883581099999,None,num_4,0.2634371000003739,349.883581099999,None,sad,0,Sad,350.1697386199998,None,None,350.1697386199998,None,,,,,,,,,,,,,,,,,,,,,,,,,,,,,,,,,,,,,,,,,,,,,,,,,,,,,6,001,female,20,375,400,2022_Aug_10_1145,Experiment,2021.1.4,360.06322711517873,
images\S2_M_H_01.png,images\S2_M_H_01_scrambled.png,2,happy,10,male,4,,7,off,1,0.5,0.75,0.5,0.916,3,6,4,1,1,0,0,0,0,4,,,,,,0,11,11,11,,,,,,,,,,,,,,,,,,,,,,,,,,,,,,,,,,,,,,,,,,,,,,,,,,,,,,,,,350.25292099999933,350.7556382999992,350.7556382999992,351.51092009999957,351.51092009999957,352.0163016000006,352.0163016000006,352.9382222999993,352.9382222999993,None,num_6,0.7365957000001799,352.9382222999993,None,happy,0,Happy,353.6852267599999,None,None,353.6852267599999,None,,,,,,,,,,,,,,,,,,,,,,,,,,,,,,,,,,,,,,,,,,,,,,,,,,,,,6,001,female,20,375,400,2022_Aug_10_1145,Experiment,2021.1.4,360.06322711517873,
images\S6_M_H_01.png,images\S6_M_H_01_scrambled.png,6,happy,10,male,4,,271,off,1,0.5,0.75,0.5,0.947,3,270,5,1,2,0,0,0,0,4,,,,,,0,12,12,12,,,,,,,,,,,,,,,,,,,,,,,,,,,,,,,,,,,,,,,,,,,,,,,,,,,,,,,,,353.7712793999999,354.2767227000004,354.2767227000004,355.0320350000002,355.0320350000002,355.5346664000008,355.5346664000008,356.4843309000007,356.4843309000007,None,num_4,0.046687799998835544,356.4843309000007,None,sad,0,Happy,356.53984538000043,None,None,356.53984538000043,None,,,,,,,,,,,,,,,,,,,,,,,,,,,,,,,,,,,,,,,,,,,,,,,,,,,,,6,001,female,20,375,400,2022_Aug_10_1145,Experiment,2021.1.4,360.06322711517873,
images\S6_M_S_01.png,images\S6_M_S_01_scrambled.png,6,sad,-10,male,3,,214,on,2,0.5,0.75,0.5,0.949,3,213,1,2,1,2,2,32,128,163,,,,,,0,13,13,13,,,,,,,,,,,,,,,,,,,,,,,,,,,,,,,,,,,,,,,,,,,,,,,,,,,,,,,,,356.6537255000003,357.1564068000007,357.1564068000007,357.9061273999996,357.9061273999996,358.4087994999991,358.4087994999991,359.3612384999997,359.3612384999997,None,num_4,0.6896723999998358,359.3612384999997,None,sad,0,Sad,360.06106175999884,None,None,360.06106175999884,None,,,,,,,,,,,,,,,,,,,,,,,,,,,,,,,,,,,,,,,,,,,,,,,,,,,,,6,001,female,20,375,400,2022_Aug_10_1145,Experiment,2021.1.4,360.06322711517873,
images\S6_M_H_02.png,images\S6_M_H_02_scrambled.png,6,happy,20,male,5,,212,on,2,0.5,0.75,0.5,0.752,3,211,2,3,1,2,2,32,128,165,,,,,,0,14,14,14,,,,,,,,,,,,,,,,,,,,,,,,,,,,,,,,,,,,,,,,,,,,,,,,,,,,,,,,,360.1748621000006,360.67748480000046,360.67748480000046,361.4300667000007,361.4300667000007,361.9355747999998,361.9355747999998,362.6908779000005,362.6908779000005,None,num_4,0.7602332000005845,362.6908779000005,None,sad,0,Happy,363.45723388000044,None,None,363.45723388000044,None,,,,,,,,,,,,,,,,,,,,,,,,,,,,,,,,,,,,,,,,,,,,,,,,,,,,,6,001,female,20,375,400,2022_Aug_10_1145,Experiment,2021.1.4,360.06322711517873,
images\blank.jpg,images\blank.jpg,none,none,none,none,0,,632,on,2,0.5,0.75,0.5,0.781,0,631,3,1,1,3,3,48,192,240,,,,,,0,15,15,15,,,,,,,,,,,,,,,,,,,,,,,,,,,,,,,,,,,,,,,,,,,,,,,,,,,,,,,,,363.6187854,364.12098949999927,364.12098949999927,364.87066480000067,364.87066480000067,365.37613070000043,365.37613070000043,366.15906990000076,366.15906990000076,366.15906990000076,None,,366.15906990000076,None,miss,0,,369.1610735800001,None,None,369.1610735800001,None,,,,,,,,,,,,,,,,,,,,,,,,,,,,,,,,,,,,,,,,,,,,,,,,,,,,,6,001,female,20,375,400,2022_Aug_10_1145,Experiment,2021.1.4,360.06322711517873,
images\S7_F_H_03.png,images\S7_F_H_03_scrambled.png,7,happy,30,female,6,,279,off,1,0.5,0.75,0.5,0.945,3,278,1,1,1,0,0,0,0,6,,,,,,0,16,16,16,,,,,,,,,,,,,,,,,,,,,,,,,,,,,,,,,,,,,,,,,,,,,,,,,,,,,,,,,369.2834703000008,369.78589809999903,369.78589809999903,370.5383619000004,370.5383619000004,371.0381890000008,371.0381890000008,371.9852303000007,371.9852303000007,None,num_6,0.6177750999995624,371.9852303000007,369.2834703000008,happy,0,Happy,372.62105296000044,None,None,372.62105296000044,None,,,,,,,,,,,,,,,,,,,,,,,,,,,,,,,,,,,,,,,,,,,,,,,,,,,,,6,001,female,20,375,400,2022_Aug_10_1145,Experiment,2021.1.4,360.06322711517873,
images\S9_F_S_03.png,images\S9_F_S_03_scrambled.png,9,sad,-30,female,1,,174,off,1,0.5,0.75,0.5,0.813,3,173,2,1,1,0,0,0,0,1,,,,,,0,17,17,17,,,,,,,,,,,,,,,,,,,,,,,,,,,,,,,,,,,,,,,,,,,,,,,,,,,,,,,,,372.7098403,373.2125242000002,373.2125242000002,373.9652124999993,373.9652124999993,374.4705964999994,374.4705964999994,375.2869276000001,375.2869276000001,None,num_4,0.28396190000057686,375.2869276000001,None,sad,0,Sad,375.58126355999883,None,None,375.58126355999883,None,,,,,,,,,,,,,,,,,,,,,,,,,,,,,,,,,,,,,,,,,,,,,,,,,,,,,6,001,female,20,375,400,2022_Aug_10_1145,Experiment,2021.1.4,360.06322711517873,
images\S5_F_S_03.png,images\S5_F_S_03_scrambled.png,5,sad,-30,female,1,,150,off,1,0.5,0.75,0.5,0.826,3,149,3,1,2,0,0,0,0,1,,,,,,0,18,18,18,,,,,,,,,,,,,,,,,,,,,,,,,,,,,,,,,,,,,,,,,,,,,,,,,,,,,,,,,375.6673289999999,376.1700772999993,376.1700772999993,376.9197146000006,376.9197146000006,377.41960669999935,377.41960669999935,378.2498857999999,378.2498857999999,None,num_4,0.696875399999044,378.2498857999999,None,sad,0,Sad,378.95800035999963,None,None,378.95800035999963,None,,,,,,,,,,,,,,,,,,,,,,,,,,,,,,,,,,,,,,,,,,,,,,,,,,,,,6,001,female,20,375,400,2022_Aug_10_1145,Experiment,2021.1.4,360.06322711517873,
images\S10_M_S_01.png,images\S10_M_S_01_scrambled.png,10,sad,-10,male,3,,118,on,2,0.5,0.75,0.5,0.832,3,117,1,1,1,2,2,32,128,163,,,,,,0,19,19,19,,,,,,,,,,,,,,,,,,,,,,,,,,,,,,,,,,,,,,,,,,,,,,,,,,,,,,,,,379.0440663999998,379.54959640000015,379.54959640000015,380.2992764999999,380.2992764999999,380.7990771999994,380.7990771999994,381.6350679999996,381.6350679999996,None,num_4,0.3438777999999729,381.6350679999996,None,sad,0,Sad,381.99316945999925,None,None,381.99316945999925,None,,,,,,,,,,,,,,,,,,,,,,,,,,,,,,,,,,,,,,,,,,,,,,,,,,,,,6,001,female,20,375,400,2022_Aug_10_1145,Experiment,2021.1.4,360.06322711517873,
images\S5_F_S_02.png,images\S5_F_S_02_scrambled.png,5,sad,-20,female,2,,29,off,1,0.5,0.75,0.5,0.904,3,28,1,1,1,0,0,0,0,2,,,,,,0,20,20,20,,,,,,,,,,,,,,,,,,,,,,,,,,,,,,,,,,,,,,,,,,,,,,,,,,,,,,,,,382.0792548999998,382.58190680000007,382.58190680000007,383.3372201000002,383.3372201000002,383.8426120000004,383.8426120000004,384.75076420000005,384.75076420000005,None,num_4,0.4602077999988978,384.75076420000005,None,sad,0,Sad,385.2255122599992,None,None,385.2255122599992,None,,,,,,,,,,,,,,,,,,,,,,,,,,,,,,,,,,,,,,,,,,,,,,,,,,,,,6,001,female,20,375,400,2022_Aug_10_1145,Experiment,2021.1.4,360.06322711517873,
images\S1_F_S_01.png,images\S1_F_S_01_scrambled.png,1,sad,-10,female,3,,484,off,1,0.5,0.75,0.5,0.846,3,483,2,1,1,0,0,0,0,3,,,,,,0,21,21,21,,,,,,,,,,,,,,,,,,,,,,,,,,,,,,,,,,,,,,,,,,,,,,,,,,,,,,,,,385.31158940000023,385.8114418999994,385.8114418999994,386.56679520000034,386.56679520000034,387.0694199999998,387.0694199999998,387.92193679999946,387.92193679999946,None,num_4,1.9930086999993364,387.92193679999946,None,sad,0,Sad,389.92961966,None,None,389.92961966,None,,,,,,,,,,,,,,,,,,,,,,,,,,,,,,,,,,,,,,,,,,,,,,,,,,,,,6,001,female,20,375,400,2022_Aug_10_1145,Experiment,2021.1.4,360.06322711517873,
images\S8_M_H_02.png,images\S8_M_H_02_scrambled.png,8,happy,20,male,5,,224,on,2,0.5,0.75,0.5,0.765,3,223,1,1,1,2,2,32,128,165,,,,,,0,22,22,22,,,,,,,,,,,,,,,,,,,,,,,,,,,,,,,,,,,,,,,,,,,,,,,,,,,,,,,,,390.0157522999998,390.52115140000024,390.52115140000024,391.2736526000008,391.2736526000008,391.7762681000004,391.7762681000004,392.5482620999992,392.5482620999992,None,num_4,0.494658999999956,392.5482620999992,None,sad,0,Happy,393.05086988000005,None,None,393.05086988000005,None,,,,,,,,,,,,,,,,,,,,,,,,,,,,,,,,,,,,,,,,,,,,,,,,,,,,,6,001,female,20,375,400,2022_Aug_10_1145,Experiment,2021.1.4,360.06322711517873,
images\S5_F_S_03.png,images\S5_F_S_03_scrambled.png,5,sad,-30,female,1,,450,on,2,0.5,0.75,0.5,0.779,3,449,2,1,1,2,2,32,128,161,,,,,,0,23,23,23,,,,,,,,,,,,,,,,,,,,,,,,,,,,,,,,,,,,,,,,,,,,,,,,,,,,,,,,,393.0980892000007,393.5979258999996,393.5979258999996,394.34769640000013,394.34769640000013,394.85044779999953,394.85044779999953,395.6362508000002,395.6362508000002,None,num_4,0.35056490000170015,395.6362508000002,None,sad,0,Sad,396.0000176000003,None,None,396.0000176000003,None,,,,,,,,,,,,,,,,,,,,,,,,,,,,,,,,,,,,,,,,,,,,,,,,,,,,,6,001,female,20,375,400,2022_Aug_10_1145,Experiment,2021.1.4,360.06322711517873,
images\S5_F_H_02.png,images\S5_F_H_02_scrambled.png,5,happy,20,female,5,,566,on,2,0.5,0.75,0.5,0.769,3,565,3,2,1,2,2,32,128,165,,,,,,0,24,24,24,,,,,,,,,,,,,,,,,,,,,,,,,,,,,,,,,,,,,,,,,,,,,,,,,,,,,,,,,396.11384460000045,396.6164867999996,396.6164867999996,397.3689818999992,397.3689818999992,397.8716581000008,397.8716581000008,398.64643090000027,398.64643090000027,None,num_6,0.3084409000002779,398.64643090000027,None,happy,0,Happy,398.9685579999996,None,None,398.9685579999996,None,,,,,,,,,,,,,,,,,,,,,,,,,,,,,,,,,,,,,,,,,,,,,,,,,,,,,6,001,female,20,375,400,2022_Aug_10_1145,Experiment,2021.1.4,360.06322711517873,
images\S9_F_H_02.png,images\S9_F_H_02_scrambled.png,9,happy,20,female,5,,350,on,2,0.5,0.75,0.5,0.948,3,349,4,1,2,2,2,32,128,165,,,,,,0,25,25,25,,,,,,,,,,,,,,,,,,,,,,,,,,,,,,,,,,,,,,,,,,,,,,,,,,,,,,,,,399.0546097999995,399.55723079999916,399.55723079999916,400.3125421000004,400.3125421000004,400.81526850000046,400.81526850000046,401.7732868000003,401.7732868000003,None,num_6,0.5737382000006619,401.7732868000003,None,happy,0,Happy,402.36191006000007,None,None,402.36191006000007,None,,,,,,,,,,,,,,,,,,,,,,,,,,,,,,,,,,,,,,,,,,,,,,,,,,,,,6,001,female,20,375,400,2022_Aug_10_1145,Experiment,2021.1.4,360.06322711517873,
images\S7_F_S_02.png,images\S7_F_S_02_scrambled.png,7,sad,-20,female,2,,341,on,2,0.5,0.75,0.5,0.886,3,340,5,1,1,2,2,32,128,162,,,,,,0,26,26,26,,,,,,,,,,,,,,,,,,,,,,,,,,,,,,,,,,,,,,,,,,,,,,,,,,,,,,,,,402.44521499999973,402.9450825999993,402.9450825999993,403.69482529999914,403.69482529999914,404.2002587999996,404.2002587999996,405.08884670000043,405.08884670000043,None,num_6,0.7381930999999895,405.08884670000043,None,happy,0,Sad,405.83587557999965,None,None,405.83587557999965,None,,,,,,,,,,,,,,,,,,,,,,,,,,,,,,,,,,,,,,,,,,,,,,,,,,,,,6,001,female,20,375,400,2022_Aug_10_1145,Experiment,2021.1.4,360.06322711517873,
images\S3_F_S_01.png,images\S3_F_S_01_scrambled.png,3,sad,-10,female,3,,556,on,2,0.5,0.75,0.5,0.909,3,555,6,1,1,2,2,32,128,163,,,,,,0,27,27,27,,,,,,,,,,,,,,,,,,,,,,,,,,,,,,,,,,,,,,,,,,,,,,,,,,,,,,,,,405.91914859999997,406.42467360000046,406.42467360000046,407.17431000000033,407.17431000000033,407.6769757000002,407.6769757000002,408.5905879999991,408.5905879999991,None,num_4,1.3482273999998142,408.5905879999991,None,sad,0,Sad,409.95401515999873,None,None,409.95401515999873,None,,,,,,,,,,,,,,,,,,,,,,,,,,,,,,,,,,,,,,,,,,,,,,,,,,,,,6,001,female,20,375,400,2022_Aug_10_1145,Experiment,2021.1.4,360.06322711517873,
images\S3_F_H_01.png,images\S3_F_H_01_scrambled.png,3,happy,10,female,4,,373,off,1,0.5,0.75,0.5,0.759,3,372,1,2,1,0,0,0,0,4,,,,,,0,28,28,28,,,,,,,,,,,,,,,,,,,,,,,,,,,,,,,,,,,,,,,,,,,,,,,,,,,,,,,,,410.03732649999984,410.5399414000003,410.5399414000003,411.28970579999987,411.28970579999987,411.7895993000002,411.7895993000002,412.5505721999998,412.5505721999998,None,num_4,0.9641773999992438,412.5505721999998,None,sad,0,Happy,413.51959947999933,None,None,413.51959947999933,None,,,,,,,,,,,,,,,,,,,,,,,,,,,,,,,,,,,,,,,,,,,,,,,,,,,,,6,001,female,20,375,400,2022_Aug_10_1145,Experiment,2021.1.4,360.06322711517873,
images\S2_M_S_01.png,images\S2_M_S_01_scrambled.png,2,sad,-10,male,3,,130,off,1,0.5,0.75,0.5,0.825,3,129,2,1,1,0,0,0,0,3,,,,,,0,29,29,29,,,,,,,,,,,,,,,,,,,,,,,,,,,,,,,,,,,,,,,,,,,,,,,,,,,,,,,,,413.5667907999996,414.066641899999,414.066641899999,414.82198889999927,414.82198889999927,415.32739389999915,415.32739389999915,416.1576867999993,416.1576867999993,None,num_4,0.44568489999983285,416.1576867999993,None,sad,0,Sad,416.62985021999924,None,None,416.62985021999924,None,,,,,,,,,,,,,,,,,,,,,,,,,,,,,,,,,,,,,,,,,,,,,,,,,,,,,6,001,female,20,375,400,2022_Aug_10_1145,Experiment,2021.1.4,360.06322711517873,
images\S1_F_S_02.png,images\S1_F_S_02_scrambled.png,1,sad,-20,female,2,,545,on,2,0.5,0.75,0.5,0.863,3,544,1,1,1,2,2,32,128,162,,,,,,0,30,30,30,,,,,,,,,,,,,,,,,,,,,,,,,,,,,,,,,,,,,,,,,,,,,,,,,,,,,,,,,416.73804240000027,417.2407844999998,417.2407844999998,417.99322070000017,417.99322070000017,418.4959366000003,418.4959366000003,419.3622586999991,419.3622586999991,None,num_4,0.5367093000004388,419.3622586999991,None,sad,0,Sad,419.9093157599993,None,None,419.9093157599993,None,,,,,,,,,,,,,,,,,,,,,,,,,,,,,,,,,,,,,,,,,,,,,,,,,,,,,6,001,female,20,375,400,2022_Aug_10_1145,Experiment,2021.1.4,360.06322711517873,
images\S9_F_S_01.png,images\S9_F_S_01_scrambled.png,9,sad,-10,female,3,,52,off,1,0.5,0.75,0.5,0.827,3,51,1,1,1,0,0,0,0,3,,,,,,0,31,31,31,,,,,,,,,,,,,,,,,,,,,,,,,,,,,,,,,,,,,,,,,,,,,,,,,,,,,,,,,419.99537210000017,420.49522049999905,420.49522049999905,421.24498329999915,421.24498329999915,421.7448289999993,421.7448289999993,422.5779342000005,422.5779342000005,None,num_4,2.008851299999151,422.5779342000005,None,sad,0,Sad,424.602297659999,None,None,424.602297659999,None,,,,,,,,,,,,,,,,,,,,,,,,,,,,,,,,,,,,,,,,,,,,,,,,,,,,,6,001,female,20,375,400,2022_Aug_10_1145,Experiment,2021.1.4,360.06322711517873,
images\S6_M_H_02.png,images\S6_M_H_02_scrambled.png,6,happy,20,male,5,,32,off,1,0.5,0.75,0.5,0.941,3,31,2,1,1,0,0,0,0,5,,,,,,0,32,32,32,,,,,,,,,,,,,,,,,,,,,,,,,,,,,,,,,,,,,,,,,,,,,,,,,,,,,,,,,424.6522686999997,425.15502469999956,425.15502469999956,425.9046638,425.9046638,426.4072918999991,426.4072918999991,427.3514797000007,427.3514797000007,None,num_4,0.6033982000008109,427.3514797000007,None,sad,0,Happy,427.9623616799996,None,None,427.9623616799996,None,,,,,,,,,,,,,,,,,,,,,,,,,,,,,,,,,,,,,,,,,,,,,,,,,,,,,6,001,female,20,375,400,2022_Aug_10_1145,Experiment,2021.1.4,360.06322711517873,
images\S4_M_H_02.png,images\S4_M_H_02_scrambled.png,4,happy,20,male,5,,440,on,2,0.5,0.75,0.5,0.851,3,439,1,1,2,2,2,32,128,165,,,,,,0,33,33,33,,,,,,,,,,,,,,,,,,,,,,,,,,,,,,,,,,,,,,,,,,,,,,,,,,,,,,,,,428.0484570000008,428.5511184999996,428.5511184999996,429.30085449999933,429.30085449999933,429.80630030000066,429.80630030000066,430.6615753999995,430.6615753999995,None,num_4,0.34134769999946,430.6615753999995,None,sad,0,Happy,431.01146198000026,None,None,431.01146198000026,None,,,,,,,,,,,,,,,,,,,,,,,,,,,,,,,,,,,,,,,,,,,,,,,,,,,,,6,001,female,20,375,400,2022_Aug_10_1145,Experiment,2021.1.4,360.06322711517873,
images\S2_M_S_02.png,images\S2_M_S_02_scrambled.png,2,sad,-20,male,2,,371,off,1,0.5,0.75,0.5,0.819,3,370,1,1,1,0,0,0,0,2,,,,,,0,34,34,34,,,,,,,,,,,,,,,,,,,,,,,,,,,,,,,,,,,,,,,,,,,,,,,,,,,,,,,,,431.0975312999999,431.6002774999997,431.6002774999997,432.35558219999984,432.35558219999984,432.85532349999994,432.85532349999994,433.6772729000004,433.6772729000004,None,num_4,0.6456564000000071,433.6772729000004,None,sad,0,Sad,434.3381913599998,None,None,434.3381913599998,None,,,,,,,,,,,,,,,,,,,,,,,,,,,,,,,,,,,,,,,,,,,,,,,,,,,,,6,001,female,20,375,400,2022_Aug_10_1145,Experiment,2021.1.4,360.06322711517873,
images\S6_M_H_01.png,images\S6_M_H_01_scrambled.png,6,happy,10,male,4,,391,off,1,0.5,0.75,0.5,0.88,3,390,2,1,1,0,0,0,0,4,,,,,,0,35,35,35,,,,,,,,,,,,,,,,,,,,,,,,,,,,,,,,,,,,,,,,,,,,,,,,,,,,,,,,,434.38817779999954,434.8909003000008,434.8909003000008,435.64617109999926,435.64617109999926,436.15155699999923,436.15155699999923,437.0345809999999,437.0345809999999,None,num_4,0.2961780000005092,437.0345809999999,None,sad,0,Happy,437.3428502799994,None,None,437.3428502799994,None,,,,,,,,,,,,,,,,,,,,,,,,,,,,,,,,,,,,,,,,,,,,,,,,,,,,,6,001,female,20,375,400,2022_Aug_10_1145,Experiment,2021.1.4,360.06322711517873,
images\S6_M_S_03.png,images\S6_M_S_03_scrambled.png,6,sad,-30,male,1,,516,off,1,0.5,0.75,0.5,0.784,3,515,3,2,1,0,0,0,0,1,,,,,,0,36,36,36,,,,,,,,,,,,,,,,,,,,,,,,,,,,,,,,,,,,,,,,,,,,,,,,,,,,,,,,,437.45389590000013,437.95655439999973,437.95655439999973,438.71187800000007,438.71187800000007,439.21450430000004,439.21450430000004,440.000430099999,440.000430099999,None,num_4,0.5787928999998257,440.000430099999,None,sad,0,Sad,440.60029717999953,None,None,440.60029717999953,None,,,,,,,,,,,,,,,,,,,,,,,,,,,,,,,,,,,,,,,,,,,,,,,,,,,,,6,001,female,20,375,400,2022_Aug_10_1145,Experiment,2021.1.4,360.06322711517873,
images\S6_M_S_01.png,images\S6_M_S_01_scrambled.png,6,sad,-10,male,3,,574,on,2,0.5,0.75,0.5,0.943,3,573,1,3,1,2,2,32,128,163,,,,,,0,37,37,37,,,,,,,,,,,,,,,,,,,,,,,,,,,,,,,,,,,,,,,,,,,,,,,,,,,,,,,,,440.65012639999986,441.1556634999997,441.1556634999997,441.9109583999998,441.9109583999998,442.41631269999925,442.41631269999925,443.3660297000006,443.3660297000006,None,num_6,0.2850180999994336,443.3660297000006,None,happy,0,Sad,443.6604104199991,None,None,443.6604104199991,None,,,,,,,,,,,,,,,,,,,,,,,,,,,,,,,,,,,,,,,,,,,,,,,,,,,,,6,001,female,20,375,400,2022_Aug_10_1145,Experiment,2021.1.4,360.06322711517873,
images\S7_F_S_03.png,images\S7_F_S_03_scrambled.png,7,sad,-30,female,1,,222,on,2,0.5,0.75,0.5,0.813,3,221,2,1,1,2,2,32,128,161,,,,,,0,38,38,38,,,,,,,,,,,,,,,,,,,,,,,,,,,,,,,,,,,,,,,,,,,,,,,,,,,,,,,,,443.7741736000007,444.27679779999926,444.27679779999926,445.0321550000008,445.0321550000008,445.53196220000063,445.53196220000063,446.34838540000055,446.34838540000055,None,num_4,0.374202900000455,446.34838540000055,None,sad,0,Sad,446.7371267600003,None,None,446.7371267600003,None,,,,,,,,,,,,,,,,,,,,,,,,,,,,,,,,,,,,,,,,,,,,,,,,,,,,,6,001,female,20,375,400,2022_Aug_10_1145,Experiment,2021.1.4,360.06322711517873,
images\S10_M_H_02.png,images\S10_M_H_02_scrambled.png,10,happy,20,male,5,,536,off,1,0.5,0.75,0.5,0.893,3,535,1,1,1,0,0,0,0,5,,,,,,0,39,39,39,,,,,,,,,,,,,,,,,,,,,,,,,,,,,,,,,,,,,,,,,,,,,,,,,,,,,,,,,446.8648928999992,447.36753169999974,447.36753169999974,448.1200895000002,448.1200895000002,448.6199025999995,448.6199025999995,449.51687590000074,449.51687590000074,None,num_6,0.39852000000064436,449.51687590000074,None,happy,0,Happy,449.93905617999974,None,None,449.93905617999974,None,,,,,,,,,,,,,,,,,,,,,,,,,,,,,,,,,,,,,,,,,,,,,,,,,,,,,6,001,female,20,375,400,2022_Aug_10_1145,Experiment,2021.1.4,360.06322711517873,
images\S6_M_H_01.png,images\S6_M_H_01_scrambled.png,6,happy,10,male,4,,511,off,1,0.5,0.75,0.5,0.861,3,510,2,1,1,0,0,0,0,4,,,,,,0,40,40,40,,,,,,,,,,,,,,,,,,,,,,,,,,,,,,,,,,,,,,,,,,,,,,,,,,,,,,,,,450.00836829999935,450.5110174000001,450.5110174000001,451.26078009999947,451.26078009999947,451.7662125000006,451.7662125000006,452.62992440000016,452.62992440000016,None,num_4,1.0847321000001102,452.62992440000016,None,sad,0,Happy,453.7238970800005,None,None,453.7238970800005,None,,,,,,,,,,,,,,,,,,,,,,,,,,,,,,,,,,,,,,,,,,,,,,,,,,,,,6,001,female,20,375,400,2022_Aug_10_1145,Experiment,2021.1.4,360.06322711517873,
images\S3_F_S_01.png,images\S3_F_S_01_scrambled.png,3,sad,-10,female,3,,256,off,1,0.5,0.75,0.5,0.909,3,255,3,1,1,0,0,0,0,3,,,,,,0,41,41,41,,,,,,,,,,,,,,,,,,,,,,,,,,,,,,,,,,,,,,,,,,,,,,,,,,,,,,,,,453.7711204999996,454.2765445999994,454.2765445999994,455.02909929999987,455.02909929999987,455.5317104000005,455.5317104000005,456.44251110000005,456.44251110000005,None,num_4,1.2004431999994267,456.44251110000005,None,sad,0,Sad,457.65603135999953,None,None,457.65603135999953,None,,,,,,,,,,,,,,,,,,,,,,,,,,,,,,,,,,,,,,,,,,,,,,,,,,,,,6,001,female,20,375,400,2022_Aug_10_1145,Experiment,2021.1.4,360.06322711517873,
images\S2_M_H_01.png,images\S2_M_H_01_scrambled.png,2,happy,10,male,4,,187,on,2,0.5,0.75,0.5,0.927,3,186,1,1,1,2,2,32,128,164,,,,,,0,42,42,42,,,,,,,,,,,,,,,,,,,,,,,,,,,,,,,,,,,,,,,,,,,,,,,,,,,,,,,,,457.70323090000056,458.2086369000008,458.2086369000008,458.96122470000046,458.96122470000046,459.46106340000006,459.46106340000006,460.39135069999975,460.39135069999975,None,num_6,0.29942099999971106,460.39135069999975,None,happy,0,Happy,460.7050886600002,None,None,460.7050886600002,None,,,,,,,,,,,,,,,,,,,,,,,,,,,,,,,,,,,,,,,,,,,,,,,,,,,,,6,001,female,20,375,400,2022_Aug_10_1145,Experiment,2021.1.4,360.06322711517873,
images\S10_M_H_02.png,images\S10_M_H_02_scrambled.png,10,happy,20,male,5,,476,on,2,0.5,0.75,0.5,0.935,3,475,2,1,1,2,2,32,128,165,,,,,,0,43,43,43,,,,,,,,,,,,,,,,,,,,,,,,,,,,,,,,,,,,,,,,,,,,,,,,,,,,,,,,,460.7550699000003,461.2577074000001,461.2577074000001,462.01026830000046,462.01026830000046,462.51577820000057,462.51577820000057,463.4570540000004,463.4570540000004,None,num_6,0.24168339999960153,463.4570540000004,None,happy,0,Happy,463.7125167999993,None,None,463.7125167999993,None,,,,,,,,,,,,,,,,,,,,,,,,,,,,,,,,,,,,,,,,,,,,,,,,,,,,,6,001,female,20,375,400,2022_Aug_10_1145,Experiment,2021.1.4,360.06322711517873,
images\S3_F_H_02.png,images\S3_F_H_02_scrambled.png,3,happy,20,female,5,,374,off,1,0.5,0.75,0.5,0.877,3,373,1,1,2,0,0,0,0,5,,,,,,0,44,44,44,,,,,,,,,,,,,,,,,,,,,,,,,,,,,,,,,,,,,,,,,,,,,,,,,,,,,,,,,463.7930295999995,464.29580729999907,464.29580729999907,465.04822950000016,465.04822950000016,465.55087450000065,465.55087450000065,466.43109679999907,466.43109679999907,None,num_6,0.33168620000105875,466.43109679999907,None,happy,0,Happy,466.7754283599999,None,None,466.7754283599999,None,,,,,,,,,,,,,,,,,,,,,,,,,,,,,,,,,,,,,,,,,,,,,,,,,,,,,6,001,female,20,375,400,2022_Aug_10_1145,Experiment,2021.1.4,360.06322711517873,
images\S9_F_H_01.png,images\S9_F_H_01_scrambled.png,9,happy,10,female,4,,109,on,2,0.5,0.75,0.5,0.916,3,108,1,1,1,2,2,32,128,164,,,,,,0,45,45,45,,,,,,,,,,,,,,,,,,,,,,,,,,,,,,,,,,,,,,,,,,,,,,,,,,,,,,,,,466.88929069999904,467.3919518999992,467.3919518999992,468.1444654000006,468.1444654000006,468.6499824000002,468.6499824000002,469.56903710000006,469.56903710000006,None,num_6,0.34585949999927834,469.56903710000006,None,happy,0,Happy,469.9328168000002,None,None,469.9328168000002,None,,,,,,,,,,,,,,,,,,,,,,,,,,,,,,,,,,,,,,,,,,,,,,,,,,,,,6,001,female,20,375,400,2022_Aug_10_1145,Experiment,2021.1.4,360.06322711517873,
images\S5_F_S_01.png,images\S5_F_S_01_scrambled.png,5,sad,-10,female,3,,448,on,2,0.5,0.75,0.5,0.817,3,447,2,1,1,2,2,32,128,163,,,,,,0,46,46,46,,,,,,,,,,,,,,,,,,,,,,,,,,,,,,,,,,,,,,,,,,,,,,,,,,,,,,,,,470.0161623999993,470.5215447999999,470.5215447999999,471.27687069999956,471.27687069999956,471.7794928000003,471.7794928000003,472.6014852999997,472.6014852999997,None,num_6,0.46530689999963215,472.6014852999997,None,happy,0,Sad,473.0762840799995,None,None,473.0762840799995,None,,,,,,,,,,,,,,,,,,,,,,,,,,,,,,,,,,,,,,,,,,,,,,,,,,,,,6,001,female,20,375,400,2022_Aug_10_1145,Experiment,2021.1.4,360.06322711517873,
images\S9_F_H_02.png,images\S9_F_H_02_scrambled.png,9,happy,20,female,5,,50,off,1,0.5,0.75,0.5,0.945,3,49,1,1,1,0,0,0,0,5,,,,,,0,47,47,47,,,,,,,,,,,,,,,,,,,,,,,,,,,,,,,,,,,,,,,,,,,,,,,,,,,,,,,,,473.12626660000024,473.6261082000001,473.6261082000001,474.37591539999994,474.37591539999994,474.88134179999906,474.88134179999906,475.82820680000077,475.82820680000077,None,num_6,1.1667182000001048,475.82820680000077,None,happy,0,Happy,477.0084055599993,None,None,477.0084055599993,None,,,,,,,,,,,,,,,,,,,,,,,,,,,,,,,,,,,,,,,,,,,,,,,,,,,,,6,001,female,20,375,400,2022_Aug_10_1145,Experiment,2021.1.4,360.06322711517873,
images\S6_M_H_03.png,images\S6_M_H_03_scrambled.png,6,happy,30,male,6,,93,on,2,0.5,0.75,0.5,0.943,3,92,1,1,1,2,2,32,128,166,,,,,,0,48,48,48,,,,,,,,,,,,,,,,,,,,,,,,,,,,,,,,,,,,,,,,,,,,,,,,,,,,,,,,,477.09171140000035,477.59713849999935,477.59713849999935,478.35246200000074,478.35246200000074,478.85518649999904,478.85518649999904,479.79920820000007,479.79920820000007,None,num_6,0.3235342000007222,479.79920820000007,None,happy,0,Happy,480.13800975999874,None,None,480.13800975999874,None,,,,,,,,,,,,,,,,,,,,,,,,,,,,,,,,,,,,,,,,,,,,,,,,,,,,,6,001,female,20,375,400,2022_Aug_10_1145,Experiment,2021.1.4,360.06322711517873,
images\S5_F_S_03.png,images\S5_F_S_03_scrambled.png,5,sad,-30,female,1,,30,off,1,0.5,0.75,0.5,0.82,3,29,1,1,1,0,0,0,0,1,,,,,,0,49,49,49,,,,,,,,,,,,,,,,,,,,,,,,,,,,,,,,,,,,,,,,,,,,,,,,,,,,,,,,,480.1879852999991,480.6907255999995,480.6907255999995,481.4403879999991,481.4403879999991,481.94587499999943,481.94587499999943,482.7706225999991,482.7706225999991,None,num_4,0.28025439999873925,482.7706225999991,None,sad,0,Sad,483.06487685999963,None,None,483.06487685999963,None,,,,,,,,,,,,,,,,,,,,,,,,,,,,,,,,,,,,,,,,,,,,,,,,,,,,,6,001,female,20,375,400,2022_Aug_10_1145,Experiment,2021.1.4,360.06322711517873,
images\S7_F_S_03.png,images\S7_F_S_03_scrambled.png,7,sad,-30,female,1,,342,on,2,0.5,0.75,0.5,0.867,3,341,1,1,2,2,2,32,128,161,,,,,,0,50,50,50,,,,,,,,,,,,,,,,,,,,,,,,,,,,,,,,,,,,,,,,,,,,,,,,,,,,,,,,,483.1148654999997,483.61470720000034,483.61470720000034,484.3644755000005,484.3644755000005,484.86435639999945,484.86435639999945,485.73630369999955,485.73630369999955,None,num_4,0.9386723000006896,485.73630369999955,None,sad,0,Sad,486.68876345999996,None,None,486.68876345999996,None,,,,,,,,,,,,,,,,,,,,,,,,,,,,,,,,,,,,,,,,,,,,,,,,,,,,,6,001,female,20,375,400,2022_Aug_10_1145,Experiment,2021.1.4,360.06322711517873,
images\S8_M_S_01.png,images\S8_M_S_01_scrambled.png,8,sad,-10,male,3,,46,off,1,0.5,0.75,0.5,0.798,3,45,1,1,1,0,0,0,0,3,,,,,,0,51,51,51,,,,,,,,,,,,,,,,,,,,,,,,,,,,,,,,,,,,,,,,,,,,,,,,,,,,,,,,,486.7720747000003,487.2774938999992,487.2774938999992,488.0301373000002,488.0301373000002,488.5355280999993,488.5355280999993,489.3379681000006,489.3379681000006,None,num_4,0.8967991000008624,489.3379681000006,None,sad,0,Sad,490.2487891600005,None,None,490.2487891600005,None,,,,,,,,,,,,,,,,,,,,,,,,,,,,,,,,,,,,,,,,,,,,,,,,,,,,,6,001,female,20,375,400,2022_Aug_10_1145,Experiment,2021.1.4,360.06322711517873,
images\S4_M_H_03.png,images\S4_M_H_03_scrambled.png,4,happy,30,male,6,,561,on,2,0.5,0.75,0.5,0.82,3,560,1,1,1,2,2,32,128,166,,,,,,0,52,52,52,,,,,,,,,,,,,,,,,,,,,,,,,,,,,,,,,,,,,,,,,,,,,,,,,,,,,,,,,490.3320920999995,490.837507799999,490.837507799999,491.59283099999993,491.59283099999993,492.09544880000067,492.09544880000067,492.9174182000006,492.9174182000006,None,num_6,0.5897550999998202,492.9174182000006,None,happy,0,Happy,493.52843893999926,None,None,493.52843893999926,None,,,,,,,,,,,,,,,,,,,,,,,,,,,,,,,,,,,,,,,,,,,,,,,,,,,,,6,001,female,20,375,400,2022_Aug_10_1145,Experiment,2021.1.4,360.06322711517873,
images\S3_F_S_02.png,images\S3_F_S_02_scrambled.png,3,sad,-20,female,2,,257,off,1,0.5,0.75,0.5,0.793,3,256,1,1,1,0,0,0,0,2,,,,,,0,53,53,53,,,,,,,,,,,,,,,,,,,,,,,,,,,,,,,,,,,,,,,,,,,,,,,,,,,,,,,,,493.63940419999926,494.1420278000005,494.1420278000005,494.89737629999945,494.89737629999945,495.40009289999944,495.40009289999944,496.19699070000024,496.19699070000024,None,num_4,0.3816393999986758,496.19699070000024,None,sad,0,Sad,496.5940284599994,None,None,496.5940284599994,None,,,,,,,,,,,,,,,,,,,,,,,,,,,,,,,,,,,,,,,,,,,,,,,,,,,,,6,001,female,20,375,400,2022_Aug_10_1145,Experiment,2021.1.4,360.06322711517873,
images\S6_M_S_02.png,images\S6_M_S_02_scrambled.png,6,sad,-20,male,2,,455,on,2,0.5,0.75,0.5,0.751,3,454,1,1,2,2,2,32,128,162,,,,,,0,54,54,54,,,,,,,,,,,,,,,,,,,,,,,,,,,,,,,,,,,,,,,,,,,,,,,,,,,,,,,,,496.7079056999992,497.21064599999954,497.21064599999954,497.9603256999999,497.9603256999999,498.4601722999996,498.4601722999996,499.2182319000003,499.2182319000003,None,num_4,0.7284601999999722,499.2182319000003,None,sad,0,Sad,499.9624627599998,None,None,499.9624627599998,None,,,,,,,,,,,,,,,,,,,,,,,,,,,,,,,,,,,,,,,,,,,,,,,,,,,,,6,001,female,20,375,400,2022_Aug_10_1145,Experiment,2021.1.4,360.06322711517873,
images\S5_F_H_02.png,images\S5_F_H_02_scrambled.png,5,happy,20,female,5,,446,on,2,0.5,0.75,0.5,0.843,3,445,2,1,1,2,2,32,128,165,,,,,,0,55,55,55,,,,,,,,,,,,,,,,,,,,,,,,,,,,,,,,,,,,,,,,,,,,,,,,,,,,,,,,,500.0096675999994,500.51231820000066,500.51231820000066,501.2620790000001,501.2620790000001,501.7674860999996,501.7674860999996,502.61446439999963,502.61446439999963,None,num_6,0.34049269999923126,502.61446439999963,None,happy,0,Happy,502.9754774000003,None,None,502.9754774000003,None,,,,,,,,,,,,,,,,,,,,,,,,,,,,,,,,,,,,,,,,,,,,,,,,,,,,,6,001,female,20,375,400,2022_Aug_10_1145,Experiment,2021.1.4,360.06322711517873,
images\S9_F_S_03.png,images\S9_F_S_03_scrambled.png,9,sad,-30,female,1,,114,on,2,0.5,0.75,0.5,0.817,3,113,3,1,1,2,2,32,128,161,,,,,,0,56,56,56,,,,,,,,,,,,,,,,,,,,,,,,,,,,,,,,,,,,,,,,,,,,,,,,,,,,,,,,,503.0420687000005,503.54749099999935,503.54749099999935,504.3028123999993,504.3028123999993,504.8055454000005,504.8055454000005,505.6274121000006,505.6274121000006,None,num_4,0.4154207999999926,505.6274121000006,None,sad,0,Sad,506.0606540399993,None,None,506.0606540399993,None,,,,,,,,,,,,,,,,,,,,,,,,,,,,,,,,,,,,,,,,,,,,,,,,,,,,,6,001,female,20,375,400,2022_Aug_10_1145,Experiment,2021.1.4,360.06322711517873,
images\S4_M_H_02.png,images\S4_M_H_02_scrambled.png,4,happy,20,male,5,,80,on,2,0.5,0.75,0.5,0.756,3,79,4,1,1,2,2,32,128,165,,,,,,0,57,57,57,,,,,,,,,,,,,,,,,,,,,,,,,,,,,,,,,,,,,,,,,,,,,,,,,,,,,,,,,506.1105714999994,506.6160512000006,506.6160512000006,507.37135280000075,507.37135280000075,507.87673650000033,507.87673650000033,508.63492899999983,508.63492899999983,None,num_4,2.7679188000001886,508.63492899999983,None,sad,0,Happy,511.41172037999934,None,None,511.41172037999934,None,,,,,,,,,,,,,,,,,,,,,,,,,,,,,,,,,,,,,,,,,,,,,,,,,,,,,6,001,female,20,375,400,2022_Aug_10_1145,Experiment,2021.1.4,360.06322711517873,
images\S10_M_S_03.png,images\S10_M_S_03_scrambled.png,10,sad,-30,male,1,,60,off,1,0.5,0.75,0.5,0.794,3,59,1,1,1,0,0,0,0,1,,,,,,0,58,58,58,,,,,,,,,,,,,,,,,,,,,,,,,,,,,,,,,,,,,,,,,,,,,,,,,,,,,,,,,511.4950375999997,512.000481699999,512.000481699999,512.7502232999996,512.7502232999996,513.2500402999995,513.2500402999995,514.0470155999992,514.0470155999992,None,num_4,0.3001864999987447,514.0470155999992,None,sad,0,Sad,514.3692433399999,None,None,514.3692433399999,None,,,,,,,,,,,,,,,,,,,,,,,,,,,,,,,,,,,,,,,,,,,,,,,,,,,,,6,001,female,20,375,400,2022_Aug_10_1145,Experiment,2021.1.4,360.06322711517873,
images\S3_F_H_03.png,images\S3_F_H_03_scrambled.png,3,happy,30,female,6,,75,on,2,0.5,0.75,0.5,0.865,3,74,1,1,1,2,2,32,128,166,,,,,,0,59,59,59,,,,,,,,,,,,,,,,,,,,,,,,,,,,,,,,,,,,,,,,,,,,,,,,,,,,,,,,,514.4219051,514.9246590000002,514.9246590000002,515.6770708000004,515.6770708000004,516.1797372000001,516.1797372000001,517.0516938000001,517.0516938000001,None,num_6,0.36731159999908414,517.0516938000001,None,happy,0,Happy,517.44605472,None,None,517.44605472,None,,,,,,,,,,,,,,,,,,,,,,,,,,,,,,,,,,,,,,,,,,,,,,,,,,,,,6,001,female,20,375,400,2022_Aug_10_1145,Experiment,2021.1.4,360.06322711517873,
images\S6_M_S_01.png,images\S6_M_S_01_scrambled.png,6,sad,-10,male,3,,334,on,2,0.5,0.75,0.5,0.922,3,333,2,1,1,2,2,32,128,163,,,,,,0,60,60,60,,,,,,,,,,,,,,,,,,,,,,,,,,,,,,,,,,,,,,,,,,,,,,,,,,,,,,,,,517.5125993000001,518.0153688999999,518.0153688999999,518.7650436999993,518.7650436999993,519.2705473000005,519.2705473000005,520.1952571000002,520.1952571000002,None,num_4,1.6793720000005123,520.1952571000002,None,sad,0,Sad,521.8862562599999,None,None,521.8862562599999,None,,,,,,,,,,,,,,,,,,,,,,,,,,,,,,,,,,,,,,,,,,,,,,,,,,,,,6,001,female,20,375,400,2022_Aug_10_1145,Experiment,2021.1.4,360.06322711517873,
images\S4_M_H_01.png,images\S4_M_H_01_scrambled.png,4,happy,10,male,4,,379,off,1,0.5,0.75,0.5,0.844,3,378,1,1,1,0,0,0,0,4,,,,,,0,61,61,61,,,,,,,,,,,,,,,,,,,,,,,,,,,,,,,,,,,,,,,,,,,,,,,,,,,,,,,,,521.9695859000003,522.4694347000004,522.4694347000004,523.2192584999993,523.2192584999993,523.7190436000001,523.7190436000001,524.566076699999,524.566076699999,None,num_4,0.5007269000016095,524.566076699999,None,sad,0,Happy,525.0741785799996,None,None,525.0741785799996,None,,,,,,,,,,,,,,,,,,,,,,,,,,,,,,,,,,,,,,,,,,,,,,,,,,,,,6,001,female,20,375,400,2022_Aug_10_1145,Experiment,2021.1.4,360.06322711517873,
images\S6_M_H_02.png,images\S6_M_H_02_scrambled.png,6,happy,20,male,5,,152,off,1,0.5,0.75,0.5,0.832,3,151,2,1,1,0,0,0,0,5,,,,,,0,62,62,62,,,,,,,,,,,,,,,,,,,,,,,,,,,,,,,,,,,,,,,,,,,,,,,,,,,,,,,,,525.1213979000004,525.6268362999999,525.6268362999999,526.3793667999998,526.3793667999998,526.8819896000005,526.8819896000005,527.7206894999999,527.7206894999999,None,num_6,0.5383121999984724,527.7206894999999,None,happy,0,Happy,528.2732324599993,None,None,528.2732324599993,None,,,,,,,,,,,,,,,,,,,,,,,,,,,,,,,,,,,,,,,,,,,,,,,,,,,,,6,001,female,20,375,400,2022_Aug_10_1145,Experiment,2021.1.4,360.06322711517873,
images\S5_F_H_02.png,images\S5_F_H_02_scrambled.png,5,happy,20,female,5,,146,off,1,0.5,0.75,0.5,0.84,3,145,3,1,2,0,0,0,0,5,,,,,,0,63,63,63,,,,,,,,,,,,,,,,,,,,,,,,,,,,,,,,,,,,,,,,,,,,,,,,,,,,,,,,,528.3204174000002,528.8259089000003,528.8259089000003,529.5783680999994,529.5783680999994,530.0810239999992,530.0810239999992,530.9279611999991,530.9279611999991,None,num_6,0.7228051000001869,530.9279611999991,None,happy,0,Happy,531.6610683600003,None,None,531.6610683600003,None,,,,,,,,,,,,,,,,,,,,,,,,,,,,,,,,,,,,,,,,,,,,,,,,,,,,,6,001,female,20,375,400,2022_Aug_10_1145,Experiment,2021.1.4,360.06322711517873,
images\S7_F_H_03.png,images\S7_F_H_03_scrambled.png,7,happy,30,female,6,,459,on,2,0.5,0.75,0.5,0.77,3,458,1,1,1,2,2,32,128,166,,,,,,0,64,64,64,,,,,,,,,,,,,,,,,,,,,,,,,,,,,,,,,,,,,,,,,,,,,,,,,,,,,,,,,531.711037699999,532.2164771999996,532.2164771999996,532.971759,532.971759,533.4744245999991,533.4744245999991,534.2464287999992,534.2464287999992,None,num_6,0.636428200001319,534.2464287999992,None,happy,0,Happy,534.8933771599997,None,None,534.8933771599997,None,,,,,,,,,,,,,,,,,,,,,,,,,,,,,,,,,,,,,,,,,,,,,,,,,,,,,6,001,female,20,375,400,2022_Aug_10_1145,Experiment,2021.1.4,360.06322711517873,
images\S10_M_H_03.png,images\S10_M_H_03_scrambled.png,10,happy,30,male,6,,597,on,2,0.5,0.75,0.5,0.855,3,596,2,1,2,2,2,32,128,166,,,,,,0,65,65,65,,,,,,,,,,,,,,,,,,,,,,,,,,,,,,,,,,,,,,,,,,,,,,,,,,,,,,,,,534.976698299999,535.4821252999991,535.4821252999991,536.2347737,536.2347737,536.7373066,536.7373066,537.5981267000006,537.5981267000006,None,num_6,0.644690700000865,537.5981267000006,None,happy,0,Happy,538.2535109600004,None,None,538.2535109600004,None,,,,,,,,,,,,,,,,,,,,,,,,,,,,,,,,,,,,,,,,,,,,,,,,,,,,,6,001,female,20,375,400,2022_Aug_10_1145,Experiment,2021.1.4,360.06322711517873,
images\S8_M_S_01.png,images\S8_M_S_01_scrambled.png,8,sad,-10,male,3,,466,on,2,0.5,0.75,0.5,0.758,3,465,3,1,1,2,2,32,128,163,,,,,,0,66,66,66,,,,,,,,,,,,,,,,,,,,,,,,,,,,,,,,,,,,,,,,,,,,,,,,,,,,,,,,,538.3034528000007,538.8061293999999,538.8061293999999,539.5558746999995,539.5558746999995,540.0612951999992,540.0612951999992,540.8221570999995,540.8221570999995,None,num_4,0.9564472000001842,540.8221570999995,None,sad,0,Sad,541.794044559999,None,None,541.794044559999,None,,,,,,,,,,,,,,,,,,,,,,,,,,,,,,,,,,,,,,,,,,,,,,,,,,,,,6,001,female,20,375,400,2022_Aug_10_1145,Experiment,2021.1.4,360.06322711517873,
images\S4_M_S_02.png,images\S4_M_S_02_scrambled.png,4,sad,-20,male,2,,143,off,1,0.5,0.75,0.5,0.898,3,142,1,1,1,0,0,0,0,2,,,,,,0,67,67,67,,,,,,,,,,,,,,,,,,,,,,,,,,,,,,,,,,,,,,,,,,,,,,,,,,,,,,,,,541.9023519999992,542.4077684999993,542.4077684999993,543.1604124999994,543.1604124999994,543.6658427999992,543.6658427999992,544.5681884000005,544.5681884000005,None,num_4,0.40304619999915303,544.5681884000005,None,sad,0,Sad,544.9904299799987,None,None,544.9904299799987,None,,,,,,,,,,,,,,,,,,,,,,,,,,,,,,,,,,,,,,,,,,,,,,,,,,,,,6,001,female,20,375,400,2022_Aug_10_1145,Experiment,2021.1.4,360.06322711517873,
images\S10_M_S_01.png,images\S10_M_S_01_scrambled.png,10,sad,-10,male,3,,538,off,1,0.5,0.75,0.5,0.823,3,537,2,1,1,0,0,0,0,3,,,,,,0,68,68,68,,,,,,,,,,,,,,,,,,,,,,,,,,,,,,,,,,,,,,,,,,,,,,,,,,,,,,,,,545.0430488999991,545.5458239,545.5458239,546.3010517000002,546.3010517000002,546.8064360000008,546.8064360000008,547.6311989000005,547.6311989000005,None,num_6,0.9553647999982786,547.6311989000005,None,happy,0,Sad,548.5919698800003,None,None,548.5919698800003,None,,,,,,,,,,,,,,,,,,,,,,,,,,,,,,,,,,,,,,,,,,,,,,,,,,,,,6,001,female,20,375,400,2022_Aug_10_1145,Experiment,2021.1.4,360.06322711517873,
images\blank.jpg,images\blank.jpg,none,none,none,none,0,,606,on,2,0.5,0.75,0.5,0.84,0,605,1,1,1,3,3,48,192,240,,,,,,0,69,69,69,,,,,,,,,,,,,,,,,,,,,,,,,,,,,,,,,,,,,,,,,,,,,,,,,,,,,,,,,548.6783159999995,549.1834565999998,549.1834565999998,549.9359996000003,549.9359996000003,550.4414443999995,550.4414443999995,551.2857158999996,551.2857158999996,551.2857158999996,None,,551.2857158999996,None,miss,0,,554.2875124799989,None,None,554.2875124799989,None,,,,,,,,,,,,,,,,,,,,,,,,,,,,,,,,,,,,,,,,,,,,,,,,,,,,,6,001,female,20,375,400,2022_Aug_10_1145,Experiment,2021.1.4,360.06322711517873,
images\S2_M_S_01.png,images\S2_M_S_01_scrambled.png,2,sad,-10,male,3,,10,off,1,0.5,0.75,0.5,0.947,3,9,1,1,1,0,0,0,0,3,,,,,,0,70,70,70,,,,,,,,,,,,,,,,,,,,,,,,,,,,,,,,,,,,,,,,,,,,,,,,,,,,,,,,,554.4154510000008,554.9207043000006,554.9207043000006,555.6703598999993,555.6703598999993,556.1758188999993,556.1758188999993,557.1255490000003,557.1255490000003,None,num_4,0.37330679999831773,557.1255490000003,554.4154510000008,sad,0,Sad,557.5142295599991,None,None,557.5142295599991,None,,,,,,,,,,,,,,,,,,,,,,,,,,,,,,,,,,,,,,,,,,,,,,,,,,,,,6,001,female,20,375,400,2022_Aug_10_1145,Experiment,2021.1.4,360.06322711517873,
images\S9_F_H_03.png,images\S9_F_H_03_scrambled.png,9,happy,30,female,6,,351,on,2,0.5,0.75,0.5,0.899,3,350,1,1,1,2,2,32,128,166,,,,,,0,71,71,71,,,,,,,,,,,,,,,,,,,,,,,,,,,,,,,,,,,,,,,,,,,,,,,,,,,,,,,,,557.5642019999996,558.0668231,558.0668231,558.8165879999997,558.8165879999997,559.3192569000003,559.3192569000003,560.224623099999,560.224623099999,None,num_6,2.266296699999657,560.224623099999,None,happy,0,Happy,562.5043641599997,None,None,562.5043641599997,None,,,,,,,,,,,,,,,,,,,,,,,,,,,,,,,,,,,,,,,,,,,,,,,,,,,,,6,001,female,20,375,400,2022_Aug_10_1145,Experiment,2021.1.4,360.06322711517873,
images\S5_F_S_01.png,images\S5_F_S_01_scrambled.png,5,sad,-10,female,3,,568,on,2,0.5,0.75,0.5,0.801,3,567,2,1,1,2,2,32,128,163,,,,,,0,72,72,72,,,,,,,,,,,,,,,,,,,,,,,,,,,,,,,,,,,,,,,,,,,,,,,,,,,,,,,,,562.5543347000003,563.0569543999991,563.0569543999991,563.8067484000003,563.8067484000003,564.3093781999996,564.3093781999996,565.1147791000003,565.1147791000003,None,num_4,0.32774849999987055,565.1147791000003,None,sad,0,Sad,565.4534156599995,None,None,565.4534156599995,None,,,,,,,,,,,,,,,,,,,,,,,,,,,,,,,,,,,,,,,,,,,,,,,,,,,,,6,001,female,20,375,400,2022_Aug_10_1145,Experiment,2021.1.4,360.06322711517873,
images\S2_M_S_02.png,images\S2_M_S_02_scrambled.png,2,sad,-20,male,2,,191,on,2,0.5,0.75,0.5,0.831,3,190,3,1,1,2,2,32,128,162,,,,,,0,73,73,73,,,,,,,,,,,,,,,,,,,,,,,,,,,,,,,,,,,,,,,,,,,,,,,,,,,,,,,,,565.5034264999995,566.0061045999992,566.0061045999992,566.7614274000007,566.7614274000007,567.2668140000005,567.2668140000005,568.0999979999997,568.0999979999997,None,num_6,0.8547493000005488,568.0999979999997,None,happy,0,Sad,568.96349788,None,None,568.96349788,None,,,,,,,,,,,,,,,,,,,,,,,,,,,,,,,,,,,,,,,,,,,,,,,,,,,,,6,001,female,20,375,400,2022_Aug_10_1145,Experiment,2021.1.4,360.06322711517873,
images\S3_F_S_03.png,images\S3_F_S_03_scrambled.png,3,sad,-30,female,1,,438,on,2,0.5,0.75,0.5,0.766,3,437,4,1,1,2,2,32,128,161,,,,,,0,74,74,74,,,,,,,,,,,,,,,,,,,,,,,,,,,,,,,,,,,,,,,,,,,,,,,,,,,,,,,,,569.0467857000003,569.5494063000006,569.5494063000006,570.3019800000002,570.3019800000002,570.8046161999991,570.8046161999991,571.5710036,571.5710036,None,num_4,0.37567680000029213,571.5710036,None,sad,0,Sad,571.9570298600003,None,None,571.9570298600003,None,,,,,,,,,,,,,,,,,,,,,,,,,,,,,,,,,,,,,,,,,,,,,,,,,,,,,6,001,female,20,375,400,2022_Aug_10_1145,Experiment,2021.1.4,360.06322711517873,
images\S10_M_S_01.png,images\S10_M_S_01_scrambled.png,10,sad,-10,male,3,,598,on,2,0.5,0.75,0.5,0.933,3,597,5,1,1,2,2,32,128,163,,,,,,0,75,75,75,,,,,,,,,,,,,,,,,,,,,,,,,,,,,,,,,,,,,,,,,,,,,,,,,,,,,,,,,572.0069815999996,572.5097306000007,572.5097306000007,573.2650728999997,573.2650728999997,573.7704424999993,573.7704424999993,574.7062100999992,574.7062100999992,None,num_6,1.1686059999992722,574.7062100999992,None,happy,0,Sad,575.8863464799992,None,None,575.8863464799992,None,,,,,,,,,,,,,,,,,,,,,,,,,,,,,,,,,,,,,,,,,,,,,,,,,,,,,6,001,female,20,375,400,2022_Aug_10_1145,Experiment,2021.1.4,360.06322711517873,
images\S7_F_H_01.png,images\S7_F_H_01_scrambled.png,7,happy,10,female,4,,577,on,2,0.5,0.75,0.5,0.858,3,576,6,1,1,2,2,32,128,164,,,,,,0,76,76,76,,,,,,,,,,,,,,,,,,,,,,,,,,,,,,,,,,,,,,,,,,,,,,,,,,,,,,,,,575.9335570999992,576.4361743999998,576.4361743999998,577.1915329999993,577.1915329999993,577.6969389000005,577.6969389000005,578.5577697000008,578.5577697000008,None,num_4,1.852952600000208,578.5577697000008,None,sad,0,Happy,580.4155202799989,None,None,580.4155202799989,None,,,,,,,,,,,,,,,,,,,,,,,,,,,,,,,,,,,,,,,,,,,,,,,,,,,,,6,001,female,20,375,400,2022_Aug_10_1145,Experiment,2021.1.4,360.06322711517873,
images\S10_M_H_02.png,images\S10_M_H_02_scrambled.png,10,happy,20,male,5,,596,on,2,0.5,0.75,0.5,0.94,3,595,7,1,1,2,2,32,128,165,,,,,,0,77,77,77,,,,,,,,,,,,,,,,,,,,,,,,,,,,,,,,,,,,,,,,,,,,,,,,,,,,,,,,,580.4654912000005,580.9653627999996,580.9653627999996,581.7151243000008,581.7151243000008,582.2177565000002,582.2177565000002,583.1619286000005,583.1619286000005,None,num_4,2.08072809999976,583.1619286000005,None,sad,0,Happy,585.2473777800001,None,None,585.2473777800001,None,,,,,,,,,,,,,,,,,,,,,,,,,,,,,,,,,,,,,,,,,,,,,,,,,,,,,6,001,female,20,375,400,2022_Aug_10_1145,Experiment,2021.1.4,360.06322711517873,
images\S4_M_S_02.png,images\S4_M_S_02_scrambled.png,4,sad,-20,male,2,,503,off,1,0.5,0.75,0.5,0.914,3,502,1,1,1,0,0,0,0,2,,,,,,0,78,78,78,,,,,,,,,,,,,,,,,,,,,,,,,,,,,,,,,,,,,,,,,,,,,,,,,,,,,,,,,585.2973414999997,585.8001048000006,585.8001048000006,586.5497348999997,586.5497348999997,587.0523594000006,587.0523594000006,587.9659651000002,587.9659651000002,None,num_4,0.40487419999954,587.9659651000002,None,sad,0,Sad,588.3881285999987,None,None,588.3881285999987,None,,,,,,,,,,,,,,,,,,,,,,,,,,,,,,,,,,,,,,,,,,,,,,,,,,,,,6,001,female,20,375,400,2022_Aug_10_1145,Experiment,2021.1.4,360.06322711517873,
images\S6_M_S_03.png,images\S6_M_S_03_scrambled.png,6,sad,-30,male,1,,576,on,2,0.5,0.75,0.5,0.783,3,575,1,1,1,2,2,32,128,161,,,,,,0,79,79,79,,,,,,,,,,,,,,,,,,,,,,,,,,,,,,,,,,,,,,,,,,,,,,,,,,,,,,,,,588.4408273999998,588.9462810999994,588.9462810999994,589.6987759999993,589.6987759999993,590.2014445999994,590.2014445999994,590.9872868999992,590.9872868999992,None,num_4,0.4315160999994987,590.9872868999992,None,sad,0,Sad,591.4288163599987,None,None,591.4288163599987,None,,,,,,,,,,,,,,,,,,,,,,,,,,,,,,,,,,,,,,,,,,,,,,,,,,,,,6,001,female,20,375,400,2022_Aug_10_1145,Experiment,2021.1.4,360.06322711517873,
images\S10_M_S_02.png,images\S10_M_S_02_scrambled.png,10,sad,-20,male,2,,599,on,2,0.5,0.75,0.5,0.822,3,598,2,1,1,2,2,32,128,162,,,,,,0,80,80,80,,,,,,,,,,,,,,,,,,,,,,,,,,,,,,,,,,,,,,,,,,,,,,,,,,,,,,,,,591.5121010999992,592.0175168000005,592.0175168000005,592.7672763999999,592.7672763999999,593.2700399999994,593.2700399999994,594.0918533000004,594.0918533000004,None,num_4,1.0310482000004413,594.0918533000004,None,sad,0,Sad,595.1526913999987,None,None,595.1526913999987,None,,,,,,,,,,,,,,,,,,,,,,,,,,,,,,,,,,,,,,,,,,,,,,,,,,,,,6,001,female,20,375,400,2022_Aug_10_1145,Experiment,2021.1.4,360.06322711517873,
images\S3_F_H_03.png,images\S3_F_H_03_scrambled.png,3,happy,30,female,6,,255,off,1,0.5,0.75,0.5,0.846,3,254,1,1,1,0,0,0,0,6,,,,,,0,81,81,81,,,,,,,,,,,,,,,,,,,,,,,,,,,,,,,,,,,,,,,,,,,,,,,,,,,,,,,,,595.2081947000006,595.7080213999998,595.7080213999998,596.4606936,596.4606936,596.9660377,596.9660377,597.8158074000003,597.8158074000003,None,num_6,0.7790004999988014,597.8158074000003,None,happy,0,Happy,598.6127028599996,None,None,598.6127028599996,None,,,,,,,,,,,,,,,,,,,,,,,,,,,,,,,,,,,,,,,,,,,,,,,,,,,,,6,001,female,20,375,400,2022_Aug_10_1145,Experiment,2021.1.4,360.06322711517873,
images\S4_M_S_02.png,images\S4_M_S_02_scrambled.png,4,sad,-20,male,2,,203,on,2,0.5,0.75,0.5,0.935,3,202,1,1,1,2,2,32,128,162,,,,,,0,82,82,82,,,,,,,,,,,,,,,,,,,,,,,,,,,,,,,,,,,,,,,,,,,,,,,,,,,,,,,,,598.6626954000003,599.1653222000004,599.1653222000004,599.9178689,599.9178689,600.4205997999998,600.4205997999998,601.3618922000005,601.3618922000005,None,num_4,0.8728685000005498,601.3618922000005,None,sad,0,Sad,602.2477004599997,None,None,602.2477004599997,None,,,,,,,,,,,,,,,,,,,,,,,,,,,,,,,,,,,,,,,,,,,,,,,,,,,,,6,001,female,20,375,400,2022_Aug_10_1145,Experiment,2021.1.4,360.06322711517873,
images\S4_M_S_02.png,images\S4_M_S_02_scrambled.png,4,sad,-20,male,2,,83,on,2,0.5,0.75,0.5,0.842,3,82,2,2,2,2,2,32,128,162,,,,,,0,83,83,83,,,,,,,,,,,,,,,,,,,,,,,,,,,,,,,,,,,,,,,,,,,,,,,,,,,,,,,,,602.2976789000004,602.8030724,602.8030724,603.5556713999995,603.5556713999995,604.0610777000002,604.0610777000002,604.9052018999992,604.9052018999992,None,num_4,1.609669200001008,604.9052018999992,None,sad,0,Sad,606.52970776,None,None,606.52970776,None,,,,,,,,,,,,,,,,,,,,,,,,,,,,,,,,,,,,,,,,,,,,,,,,,,,,,6,001,female,20,375,400,2022_Aug_10_1145,Experiment,2021.1.4,360.06322711517873,
images\S1_F_H_02.png,images\S1_F_H_02_scrambled.png,1,happy,20,female,5,,422,on,2,0.5,0.75,0.5,0.879,3,421,3,1,1,2,2,32,128,165,,,,,,0,84,84,84,,,,,,,,,,,,,,,,,,,,,,,,,,,,,,,,,,,,,,,,,,,,,,,,,,,,,,,,,606.5797000999992,607.0795366999992,607.0795366999992,607.832112099999,607.832112099999,608.3319608000002,608.3319608000002,609.2177878999992,609.2177878999992,None,num_6,0.2966902999996819,609.2177878999992,None,happy,0,Happy,609.5287830600001,None,None,609.5287830600001,None,,,,,,,,,,,,,,,,,,,,,,,,,,,,,,,,,,,,,,,,,,,,,,,,,,,,,6,001,female,20,375,400,2022_Aug_10_1145,Experiment,2021.1.4,360.06322711517873,
images\S5_F_H_03.png,images\S5_F_H_03_scrambled.png,5,happy,30,female,6,,27,off,1,0.5,0.75,0.5,0.825,3,26,1,1,1,0,0,0,0,6,,,,,,0,85,85,85,,,,,,,,,,,,,,,,,,,,,,,,,,,,,,,,,,,,,,,,,,,,,,,,,,,,,,,,,609.6148711000005,610.1175146999994,610.1175146999994,610.8700661999992,610.8700661999992,611.3698748999996,611.3698748999996,612.1974367999992,612.1974367999992,None,num_6,0.49305399999866495,612.1974367999992,None,happy,0,Happy,612.7222366999995,None,None,612.7222366999995,None,,,,,,,,,,,,,,,,,,,,,,,,,,,,,,,,,,,,,,,,,,,,,,,,,,,,,6,001,female,20,375,400,2022_Aug_10_1145,Experiment,2021.1.4,360.06322711517873,
images\S3_F_S_03.png,images\S3_F_S_03_scrambled.png,3,sad,-30,female,1,,558,on,2,0.5,0.75,0.5,0.775,3,557,1,1,1,2,2,32,128,161,,,,,,0,86,86,86,,,,,,,,,,,,,,,,,,,,,,,,,,,,,,,,,,,,,,,,,,,,,,,,,,,,,,,,,612.7861190000003,613.2915441999994,613.2915441999994,614.0440615000007,614.0440615000007,614.543925,614.543925,615.3214888000002,615.3214888000002,None,num_4,0.31307420000121056,615.3214888000002,None,sad,0,Sad,615.663032659999,None,None,615.663032659999,None,,,,,,,,,,,,,,,,,,,,,,,,,,,,,,,,,,,,,,,,,,,,,,,,,,,,,6,001,female,20,375,400,2022_Aug_10_1145,Experiment,2021.1.4,360.06322711517873,
images\blank.jpg,images\blank.jpg,none,none,none,none,0,,631,on,2,0.5,0.75,0.5,0.946,0,630,2,1,1,3,3,48,192,240,,,,,,0,87,87,87,,,,,,,,,,,,,,,,,,,,,,,,,,,,,,,,,,,,,,,,,,,,,,,,,,,,,,,,,615.752088199999,616.2572674000003,616.2572674000003,617.0126182999993,617.0126182999993,617.5152471999991,617.5152471999991,618.4622772999992,618.4622772999992,618.4622772999992,None,,618.4622772999992,None,miss,0,,621.4668053399998,None,None,621.4668053399998,None,,,,,,,,,,,,,,,,,,,,,,,,,,,,,,,,,,,,,,,,,,,,,,,,,,,,,6,001,female,20,375,400,2022_Aug_10_1145,Experiment,2021.1.4,360.06322711517873,
images\S8_M_H_03.png,images\S8_M_H_03_scrambled.png,8,happy,30,male,6,,345,on,2,0.5,0.75,0.5,0.787,3,344,3,1,1,2,2,32,128,166,,,,,,0,88,88,88,,,,,,,,,,,,,,,,,,,,,,,,,,,,,,,,,,,,,,,,,,,,,,,,,,,,,,,,,621.6197302,622.1221650000007,622.1221650000007,622.8747180999999,622.8747180999999,623.3773345999998,623.3773345999998,624.1687717999994,624.1687717999994,None,num_6,1.026102699999683,624.1687717999994,621.6197302,happy,0,Happy,625.2100788599993,None,None,625.2100788599993,None,,,,,,,,,,,,,,,,,,,,,,,,,,,,,,,,,,,,,,,,,,,,,,,,,,,,,6,001,female,20,375,400,2022_Aug_10_1145,Experiment,2021.1.4,360.06322711517873,
images\S4_M_H_03.png,images\S4_M_H_03_scrambled.png,4,happy,30,male,6,,201,on,2,0.5,0.75,0.5,0.903,3,200,4,1,2,2,2,32,128,166,,,,,,0,89,89,89,,,,,,,,,,,,,,,,,,,,,,,,,,,,,,,,,,,,,,,,,,,,,,,,,,,,,,,,,625.2572837000007,625.762704499999,625.762704499999,626.5153685000005,626.5153685000005,627.0207651000001,627.0207651000001,627.9259798000003,627.9259798000003,None,num_4,0.6288098999993963,627.9259798000003,None,sad,0,Happy,628.5646015799989,None,None,628.5646015799989,None,,,,,,,,,,,,,,,,,,,,,,,,,,,,,,,,,,,,,,,,,,,,,,,,,,,,,6,001,female,20,375,400,2022_Aug_10_1145,Experiment,2021.1.4,360.06322711517873,
images\S3_F_H_01.png,images\S3_F_H_01_scrambled.png,3,happy,10,female,4,,193,on,2,0.5,0.75,0.5,0.766,3,192,5,1,1,2,2,32,128,164,,,,,,0,90,90,90,,,,,,,,,,,,,,,,,,,,,,,,,,,,,,,,,,,,,,,,,,,,,,,,,,,,,,,,,628.614588299999,629.1172411999996,629.1172411999996,629.8725541000003,629.8725541000003,630.3779570999995,630.3779570999995,631.1471340999997,631.1471340999997,None,num_6,0.719688799999858,631.1471340999997,None,happy,0,Happy,631.8830353599998,None,None,631.8830353599998,None,,,,,,,,,,,,,,,,,,,,,,,,,,,,,,,,,,,,,,,,,,,,,,,,,,,,,6,001,female,20,375,400,2022_Aug_10_1145,Experiment,2021.1.4,360.06322711517873,
images\S9_F_H_02.png,images\S9_F_H_02_scrambled.png,9,happy,20,female,5,,530,off,1,0.5,0.75,0.5,0.776,3,529,1,1,1,0,0,0,0,5,,,,,,0,91,91,91,,,,,,,,,,,,,,,,,,,,,,,,,,,,,,,,,,,,,,,,,,,,,,,,,,,,,,,,,631.9302334000004,632.4357240999998,632.4357240999998,633.1910088000004,633.1910088000004,633.6907984999998,633.6907984999998,634.4711759999991,634.4711759999991,None,num_6,0.772122299998955,634.4711759999991,None,happy,0,Happy,635.2654149399993,None,None,635.2654149399993,None,,,,,,,,,,,,,,,,,,,,,,,,,,,,,,,,,,,,,,,,,,,,,,,,,,,,,6,001,female,20,375,400,2022_Aug_10_1145,Experiment,2021.1.4,360.06322711517873,
images\blank.jpg,images\blank.jpg,none,none,none,none,0,,610,on,2,0.5,0.75,0.5,0.752,0,609,1,1,1,3,3,48,192,240,,,,,,0,92,92,92,,,,,,,,,,,,,,,,,,,,,,,,,,,,,,,,,,,,,,,,,,,,,,,,,,,,,,,,,635.3655813999994,635.8707986999998,635.8707986999998,636.6232314999997,636.6232314999997,637.1259386999991,637.1259386999991,637.8812369999996,637.8812369999996,637.8812369999996,None,,637.8812369999996,None,miss,0,,640.8831118800003,None,None,640.8831118800003,None,,,,,,,,,,,,,,,,,,,,,,,,,,,,,,,,,,,,,,,,,,,,,,,,,,,,,6,001,female,20,375,400,2022_Aug_10_1145,Experiment,2021.1.4,360.06322711517873,
images\S10_M_S_02.png,images\S10_M_S_02_scrambled.png,10,sad,-20,male,2,,359,on,2,0.5,0.75,0.5,0.835,3,358,2,1,1,2,2,32,128,162,,,,,,0,93,93,93,,,,,,,,,,,,,,,,,,,,,,,,,,,,,,,,,,,,,,,,,,,,,,,,,,,,,,,,,641.0027138999994,641.5052035999997,641.5052035999997,642.2548339999994,642.2548339999994,642.7603223999995,642.7603223999995,643.6016856000006,643.6016856000006,None,num_4,0.30513080000127957,643.6016856000006,641.0027138999994,sad,0,Sad,643.9293659799991,None,None,643.9293659799991,None,,,,,,,,,,,,,,,,,,,,,,,,,,,,,,,,,,,,,,,,,,,,,,,,,,,,,6,001,female,20,375,400,2022_Aug_10_1145,Experiment,2021.1.4,360.06322711517873,
images\S5_F_S_03.png,images\S5_F_S_03_scrambled.png,5,sad,-30,female,1,,330,on,2,0.5,0.75,0.5,0.788,3,329,3,1,1,2,2,32,128,161,,,,,,0,94,94,94,,,,,,,,,,,,,,,,,,,,,,,,,,,,,,,,,,,,,,,,,,,,,,,,,,,,,,,,,643.9848636000006,644.4903935999992,644.4903935999992,645.2400421999992,645.2400421999992,645.7455656000002,645.7455656000002,646.5368854999997,646.5368854999997,None,num_4,0.7297715000004246,646.5368854999997,None,sad,0,Sad,647.2782841599993,None,None,647.2782841599993,None,,,,,,,,,,,,,,,,,,,,,,,,,,,,,,,,,,,,,,,,,,,,,,,,,,,,,6,001,female,20,375,400,2022_Aug_10_1145,Experiment,2021.1.4,360.06322711517873,
images\S1_F_H_03.png,images\S1_F_H_03_scrambled.png,1,happy,30,female,6,,543,on,2,0.5,0.75,0.5,0.848,3,542,4,1,1,2,2,32,128,166,,,,,,0,95,95,95,,,,,,,,,,,,,,,,,,,,,,,,,,,,,,,,,,,,,,,,,,,,,,,,,,,,,,,,,647.3615993000003,647.8643644000003,647.8643644000003,648.6167721000002,648.6167721000002,649.1194336999997,649.1194336999997,649.9719361000007,649.9719361000007,None,num_6,0.5669438000004448,649.9719361000007,None,happy,0,Happy,650.5522614599987,None,None,650.5522614599987,None,,,,,,,,,,,,,,,,,,,,,,,,,,,,,,,,,,,,,,,,,,,,,,,,,,,,,6,001,female,20,375,400,2022_Aug_10_1145,Experiment,2021.1.4,360.06322711517873,
images\S6_M_H_03.png,images\S6_M_H_03_scrambled.png,6,happy,30,male,6,,273,off,1,0.5,0.75,0.5,0.913,3,272,1,1,2,0,0,0,0,6,,,,,,0,96,96,96,,,,,,,,,,,,,,,,,,,,,,,,,,,,,,,,,,,,,,,,,,,,,,,,,,,,,,,,,650.6022725000003,651.1048917000007,651.1048917000007,651.8547032999995,651.8547032999995,652.3573173999994,652.3573173999994,653.2764896999997,653.2764896999997,None,num_6,1.1263234999987617,653.2764896999997,None,happy,0,Happy,654.420547159999,None,None,654.420547159999,None,,,,,,,,,,,,,,,,,,,,,,,,,,,,,,,,,,,,,,,,,,,,,,,,,,,,,6,001,female,20,375,400,2022_Aug_10_1145,Experiment,2021.1.4,360.06322711517873,
images\S10_M_H_02.png,images\S10_M_H_02_scrambled.png,10,happy,20,male,5,,236,on,2,0.5,0.75,0.5,0.858,3,235,1,1,1,2,2,32,128,165,,,,,,0,97,97,97,,,,,,,,,,,,,,,,,,,,,,,,,,,,,,,,,,,,,,,,,,,,,,,,,,,,,,,,,654.4677647000008,654.9703934999998,654.9703934999998,655.7257938000002,655.7257938000002,656.2311649000003,656.2311649000003,657.0919899,657.0919899,None,num_6,0.35865259999991395,657.0919899,None,happy,0,Happy,657.4612697599997,None,None,657.4612697599997,None,,,,,,,,,,,,,,,,,,,,,,,,,,,,,,,,,,,,,,,,,,,,,,,,,,,,,6,001,female,20,375,400,2022_Aug_10_1145,Experiment,2021.1.4,360.06322711517873,
images\S1_F_H_02.png,images\S1_F_H_02_scrambled.png,1,happy,20,female,5,,182,on,2,0.5,0.75,0.5,0.929,3,181,2,1,2,2,2,32,128,165,,,,,,0,98,98,98,,,,,,,,,,,,,,,,,,,,,,,,,,,,,,,,,,,,,,,,,,,,,,,,,,,,,,,,,657.5112626999999,658.0166986000004,658.0166986000004,658.7664392999995,658.7664392999995,659.2690657000003,659.2690657000003,660.2020991999998,660.2020991999998,None,num_6,0.29629930000010063,660.2020991999998,None,happy,0,Happy,660.5131131600002,None,None,660.5131131600002,None,,,,,,,,,,,,,,,,,,,,,,,,,,,,,,,,,,,,,,,,,,,,,,,,,,,,,6,001,female,20,375,400,2022_Aug_10_1145,Experiment,2021.1.4,360.06322711517873,
images\S7_F_S_02.png,images\S7_F_S_02_scrambled.png,7,sad,-20,female,2,,41,off,1,0.5,0.75,0.5,0.841,3,40,1,1,1,0,0,0,0,2,,,,,,0,99,99,99,,,,,,,,,,,,,,,,,,,,,,,,,,,,,,,,,,,,,,,,,,,,,,,,,,,,,,,,,660.5603234999999,661.0629594000002,661.0629594000002,661.812713199999,661.812713199999,662.3154777,662.3154777,663.1623290999996,663.1623290999996,None,num_4,0.328804200000377,663.1623290999996,None,sad,0,Sad,663.50386756,None,None,663.50386756,None,,,,,,,,,,,,,,,,,,,,,,,,,,,,,,,,,,,,,,,,,,,,,,,,,,,,,6,001,female,20,375,400,2022_Aug_10_1145,Experiment,2021.1.4,360.06322711517873,
images\S4_M_H_02.png,images\S4_M_H_02_scrambled.png,4,happy,20,male,5,,20,off,1,0.5,0.75,0.5,0.756,3,19,2,1,1,0,0,0,0,5,,,,,,0,100,100,100,,,,,,,,,,,,,,,,,,,,,,,,,,,,,,,,,,,,,,,,,,,,,,,,,,,,,,,,,663.5538446999999,664.0593793000007,664.0593793000007,664.8118314000003,664.8118314000003,665.3144556999996,665.3144556999996,666.0725452999995,666.0725452999995,None,num_4,1.1942011999999522,666.0725452999995,None,sad,0,Happy,667.2749811799999,None,None,667.2749811799999,None,,,,,,,,,,,,,,,,,,,,,,,,,,,,,,,,,,,,,,,,,,,,,,,,,,,,,6,001,female,20,375,400,2022_Aug_10_1145,Experiment,2021.1.4,360.06322711517873,
images\S10_M_S_03.png,images\S10_M_S_03_scrambled.png,10,sad,-30,male,1,,540,off,1,0.5,0.75,0.5,0.867,3,539,3,1,1,0,0,0,0,1,,,,,,0,101,101,101,,,,,,,,,,,,,,,,,,,,,,,,,,,,,,,,,,,,,,,,,,,,,,,,,,,,,,,,,667.3249237,667.8247613000003,667.8247613000003,668.5745239000007,668.5745239000007,669.077145199999,669.077145199999,669.946371,669.946371,None,num_4,0.43210720000024594,669.946371,None,sad,0,Sad,670.4073141599985,None,None,670.4073141599985,None,,,,,,,,,,,,,,,,,,,,,,,,,,,,,,,,,,,,,,,,,,,,,,,,,,,,,6,001,female,20,375,400,2022_Aug_10_1145,Experiment,2021.1.4,360.06322711517873,
images\S1_F_S_01.png,images\S1_F_S_01_scrambled.png,1,sad,-10,female,3,,424,on,2,0.5,0.75,0.5,0.829,3,423,1,1,1,2,2,32,128,163,,,,,,0,102,102,102,,,,,,,,,,,,,,,,,,,,,,,,,,,,,,,,,,,,,,,,,,,,,,,,,,,,,,,,,670.4628381000002,670.9655741000006,670.9655741000006,671.7152578999994,671.7152578999994,672.2178726000002,672.2178726000002,673.0509860000002,673.0509860000002,None,num_4,2.2956623999998556,673.0509860000002,None,sad,0,Sad,675.3613310600005,None,None,675.3613310600005,None,,,,,,,,,,,,,,,,,,,,,,,,,,,,,,,,,,,,,,,,,,,,,,,,,,,,,6,001,female,20,375,400,2022_Aug_10_1145,Experiment,2021.1.4,360.06322711517873,
images\S7_F_S_03.png,images\S7_F_S_03_scrambled.png,7,sad,-30,female,1,,42,off,1,0.5,0.75,0.5,0.789,3,41,1,1,1,0,0,0,0,1,,,,,,0,103,103,103,,,,,,,,,,,,,,,,,,,,,,,,,,,,,,,,,,,,,,,,,,,,,,,,,,,,,,,,,675.4085457000001,675.9111623999997,675.9111623999997,676.6609372999992,676.6609372999992,677.1607760000006,677.1607760000006,677.9522309000004,677.9522309000004,None,num_4,0.41851670000141894,677.9522309000004,None,sad,0,Sad,678.3854012599996,None,None,678.3854012599996,None,,,,,,,,,,,,,,,,,,,,,,,,,,,,,,,,,,,,,,,,,,,,,,,,,,,,,6,001,female,20,375,400,2022_Aug_10_1145,Experiment,2021.1.4,360.06322711517873,
images\S7_F_H_03.png,images\S7_F_H_03_scrambled.png,7,happy,30,female,6,,159,off,1,0.5,0.75,0.5,0.828,3,158,2,2,1,0,0,0,0,6,,,,,,0,104,104,104,,,,,,,,,,,,,,,,,,,,,,,,,,,,,,,,,,,,,,,,,,,,,,,,,,,,,,,,,678.4326068999999,678.9380314999999,678.9380314999999,679.6905728000002,679.6905728000002,680.1931746999999,680.1931746999999,681.0262948,681.0262948,None,num_6,0.5204310999997688,681.0262948,None,happy,0,Happy,681.5649826599994,None,None,681.5649826599994,None,,,,,,,,,,,,,,,,,,,,,,,,,,,,,,,,,,,,,,,,,,,,,,,,,,,,,6,001,female,20,375,400,2022_Aug_10_1145,Experiment,2021.1.4,360.06322711517873,
images\S10_M_H_01.png,images\S10_M_H_01_scrambled.png,10,happy,10,male,4,,55,off,1,0.5,0.75,0.5,0.833,3,54,3,1,1,0,0,0,0,4,,,,,,0,105,105,105,,,,,,,,,,,,,,,,,,,,,,,,,,,,,,,,,,,,,,,,,,,,,,,,,,,,,,,,,681.6537791999999,682.1565016999994,682.1565016999994,682.911815899999,682.911815899999,683.4172135000008,683.4172135000008,684.2559055999991,684.2559055999991,None,num_6,0.4187642999986565,684.2559055999991,None,happy,0,Happy,684.6890842000003,None,None,684.6890842000003,None,,,,,,,,,,,,,,,,,,,,,,,,,,,,,,,,,,,,,,,,,,,,,,,,,,,,,6,001,female,20,375,400,2022_Aug_10_1145,Experiment,2021.1.4,360.06322711517873,
images\S5_F_H_03.png,images\S5_F_H_03_scrambled.png,5,happy,30,female,6,,567,on,2,0.5,0.75,0.5,0.753,3,566,1,1,1,2,2,32,128,166,,,,,,0,106,106,106,,,,,,,,,,,,,,,,,,,,,,,,,,,,,,,,,,,,,,,,,,,,,,,,,,,,,,,,,684.7417693000007,685.2472056999995,685.2472056999995,685.9997449999992,685.9997449999992,686.5052020000003,686.5052020000003,687.2605779000005,687.2605779000005,None,None,,687.2605779000005,None,miss,0,Happy,690.2623167399995,None,None,690.2623167399995,None,,,,,,,,,,,,,,,,,,,,,,,,,,,,,,,,,,,,,,,,,,,,,,,,,,,,,6,001,female,20,375,400,2022_Aug_10_1145,Experiment,2021.1.4,360.06322711517873,
images\S3_F_H_01.png,images\S3_F_H_01_scrambled.png,3,happy,10,female,4,,313,on,2,0.5,0.75,0.5,0.757,3,312,2,1,1,2,2,32,128,164,,,,,,0,107,107,107,,,,,,,,,,,,,,,,,,,,,,,,,,,,,,,,,,,,,,,,,,,,,,,,,,,,,,,,,690.3123032999993,690.8121241999997,690.8121241999997,691.561901699999,691.561901699999,692.0673366999999,692.0673366999999,692.8281815999999,692.8281815999999,690.3123032999993,num_4,0.35034900000027847,692.8281815999999,690.3123032999993,sad,0,Happy,693.1892282799995,None,None,693.1892282799995,None,,,,,,,,,,,,,,,,,,,,,,,,,,,,,,,,,,,,,,,,,,,,,,,,,,,,,6,001,female,20,375,400,2022_Aug_10_1145,Experiment,2021.1.4,360.06322711517873,
images\S7_F_H_02.png,images\S7_F_H_02_scrambled.png,7,happy,20,female,5,,278,off,1,0.5,0.75,0.5,0.941,3,277,1,1,1,0,0,0,0,5,,,,,,0,108,108,108,,,,,,,,,,,,,,,,,,,,,,,,,,,,,,,,,,,,,,,,,,,,,,,,,,,,,,,,,693.2419472000001,693.7417865000007,693.7417865000007,694.4943397999996,694.4943397999996,694.999869199999,694.999869199999,695.9467126,695.9467126,None,num_6,0.39983310000025085,695.9467126,None,happy,0,Happy,696.3743390999989,None,None,696.3743390999989,None,,,,,,,,,,,,,,,,,,,,,,,,,,,,,,,,,,,,,,,,,,,,,,,,,,,,,6,001,female,20,375,400,2022_Aug_10_1145,Experiment,2021.1.4,360.06322711517873,
images\S8_M_S_02.png,images\S8_M_S_02_scrambled.png,8,sad,-20,male,2,,527,off,1,0.5,0.75,0.5,0.836,3,526,2,1,1,0,0,0,0,2,,,,,,0,109,109,109,,,,,,,,,,,,,,,,,,,,,,,,,,,,,,,,,,,,,,,,,,,,,,,,,,,,,,,,,696.4326321999997,696.9353730000003,696.9353730000003,697.6878226999997,697.6878226999997,698.190561899999,698.190561899999,699.0290975000007,699.0290975000007,None,num_4,0.3501182999989396,699.0290975000007,None,sad,0,Sad,699.3928300599993,None,None,699.3928300599993,None,,,,,,,,,,,,,,,,,,,,,,,,,,,,,,,,,,,,,,,,,,,,,,,,,,,,,6,001,female,20,375,400,2022_Aug_10_1145,Experiment,2021.1.4,360.06322711517873,
images\S9_F_S_01.png,images\S9_F_S_01_scrambled.png,9,sad,-10,female,3,,232,on,2,0.5,0.75,0.5,0.849,3,231,1,1,1,2,2,32,128,163,,,,,,0,110,110,110,,,,,,,,,,,,,,,,,,,,,,,,,,,,,,,,,,,,,,,,,,,,,,,,,,,,,,,,,699.4428184999997,699.9482356999997,699.9482356999997,700.7008561000002,700.7008561000002,701.2062258000005,701.2062258000005,702.0614941999993,702.0614941999993,None,num_4,0.5491152999984479,702.0614941999993,None,sad,0,Sad,702.622410359999,None,None,702.622410359999,None,,,,,,,,,,,,,,,,,,,,,,,,,,,,,,,,,,,,,,,,,,,,,,,,,,,,,6,001,female,20,375,400,2022_Aug_10_1145,Experiment,2021.1.4,360.06322711517873,
images\S3_F_H_01.png,images\S3_F_H_01_scrambled.png,3,happy,10,female,4,,133,off,1,0.5,0.75,0.5,0.887,3,132,1,1,1,0,0,0,0,4,,,,,,0,111,111,111,,,,,,,,,,,,,,,,,,,,,,,,,,,,,,,,,,,,,,,,,,,,,,,,,,,,,,,,,702.6723806999998,703.1778011000006,703.1778011000006,703.9303165000001,703.9303165000001,704.4302117000007,704.4302117000007,705.3187842999996,705.3187842999996,None,num_4,0.6678597000009177,705.3187842999996,None,sad,0,Happy,705.9991454799997,None,None,705.9991454799997,None,,,,,,,,,,,,,,,,,,,,,,,,,,,,,,,,,,,,,,,,,,,,,,,,,,,,,6,001,female,20,375,400,2022_Aug_10_1145,Experiment,2021.1.4,360.06322711517873,
images\S5_F_H_01.png,images\S5_F_H_01_scrambled.png,5,happy,10,female,4,,205,on,2,0.5,0.75,0.5,0.9,3,204,1,1,2,2,2,32,128,164,,,,,,0,112,112,112,,,,,,,,,,,,,,,,,,,,,,,,,,,,,,,,,,,,,,,,,,,,,,,,,,,,,,,,,706.0824515000004,706.5878742999994,706.5878742999994,707.3431806999997,707.3431806999997,707.8458654000005,707.8458654000005,708.7511238000006,708.7511238000006,None,num_6,1.3794397000001482,708.7511238000006,None,happy,0,Happy,710.1450898599988,None,None,710.1450898599988,None,,,,,,,,,,,,,,,,,,,,,,,,,,,,,,,,,,,,,,,,,,,,,,,,,,,,,6,001,female,20,375,400,2022_Aug_10_1145,Experiment,2021.1.4,360.06322711517873,
images\S5_F_H_02.png,images\S5_F_H_02_scrambled.png,5,happy,20,female,5,,506,off,1,0.5,0.75,0.5,0.899,3,505,1,2,1,0,0,0,0,5,,,,,,0,113,113,113,,,,,,,,,,,,,,,,,,,,,,,,,,,,,,,,,,,,,,,,,,,,,,,,,,,,,,,,,710.1950742999998,710.6977150000002,710.6977150000002,711.4530335,711.4530335,711.9557848000004,711.9557848000004,712.8609498000005,712.8609498000005,None,num_6,0.5660083000002487,712.8609498000005,None,happy,0,Happy,713.4497304399999,None,None,713.4497304399999,None,,,,,,,,,,,,,,,,,,,,,,,,,,,,,,,,,,,,,,,,,,,,,,,,,,,,,6,001,female,20,375,400,2022_Aug_10_1145,Experiment,2021.1.4,360.06322711517873,
images\S8_M_S_01.png,images\S8_M_S_01_scrambled.png,8,sad,-10,male,3,,286,off,1,0.5,0.75,0.5,0.851,3,285,2,1,1,0,0,0,0,3,,,,,,0,114,114,114,,,,,,,,,,,,,,,,,,,,,,,,,,,,,,,,,,,,,,,,,,,,,,,,,,,,,,,,,713.5023942999997,714.0078059999996,714.0078059999996,714.7604730999992,714.7604730999992,715.2658279999996,715.2658279999996,716.1210797999993,716.1210797999993,None,num_4,0.2896491000010428,716.1210797999993,None,sad,0,Sad,716.4210064600003,None,None,716.4210064600003,None,,,,,,,,,,,,,,,,,,,,,,,,,,,,,,,,,,,,,,,,,,,,,,,,,,,,,6,001,female,20,375,400,2022_Aug_10_1145,Experiment,2021.1.4,360.06322711517873,
images\S5_F_H_01.png,images\S5_F_H_01_scrambled.png,5,happy,10,female,4,,325,on,2,0.5,0.75,0.5,0.897,3,324,1,1,1,2,2,32,128,164,,,,,,0,115,115,115,,,,,,,,,,,,,,,,,,,,,,,,,,,,,,,,,,,,,,,,,,,,,,,,,,,,,,,,,716.4875811999991,716.9903383000001,716.9903383000001,717.7456665999998,717.7456665999998,718.2509823,718.2509823,719.1507079999992,719.1507079999992,None,num_6,0.8038577000006626,719.1507079999992,None,happy,0,Happy,719.9698594599987,None,None,719.9698594599987,None,,,,,,,,,,,,,,,,,,,,,,,,,,,,,,,,,,,,,,,,,,,,,,,,,,,,,6,001,female,20,375,400,2022_Aug_10_1145,Experiment,2021.1.4,360.06322711517873,
images\blank.jpg,images\blank.jpg,none,none,none,none,0,,612,on,2,0.5,0.75,0.5,0.766,0,611,2,1,1,3,3,48,192,240,,,,,,0,116,116,116,,,,,,,,,,,,,,,,,,,,,,,,,,,,,,,,,,,,,,,,,,,,,,,,,,,,,,,,,720.0561949000003,720.5613630000007,720.5613630000007,721.3138768999997,721.3138768999997,721.8137153000007,721.8137153000007,722.5801735999994,722.5801735999994,722.5801735999994,None,,722.5801735999994,None,miss,0,,725.5820259400004,None,None,725.5820259400004,None,,,,,,,,,,,,,,,,,,,,,,,,,,,,,,,,,,,,,,,,,,,,,,,,,,,,,6,001,female,20,375,400,2022_Aug_10_1145,Experiment,2021.1.4,360.06322711517873,
images\S9_F_H_02.png,images\S9_F_H_02_scrambled.png,9,happy,20,female,5,,410,off,1,0.5,0.75,0.5,0.753,3,409,1,1,1,0,0,0,0,5,,,,,,0,117,117,117,,,,,,,,,,,,,,,,,,,,,,,,,,,,,,,,,,,,,,,,,,,,,,,,,,,,,,,,,725.6989288999994,726.2012988000006,726.2012988000006,726.9566269000006,726.9566269000006,727.4564307,727.4564307,728.2117904999996,728.2117904999996,None,num_6,0.47095769999941695,728.2117904999996,725.6989288999994,happy,0,Happy,728.6977174599989,None,None,728.6977174599989,None,,,,,,,,,,,,,,,,,,,,,,,,,,,,,,,,,,,,,,,,,,,,,,,,,,,,,6,001,female,20,375,400,2022_Aug_10_1145,Experiment,2021.1.4,360.06322711517873,
images\S2_M_H_03.png,images\S2_M_H_03_scrambled.png,2,happy,30,male,6,,9,off,1,0.5,0.75,0.5,0.834,3,8,2,1,1,0,0,0,0,6,,,,,,0,118,118,118,,,,,,,,,,,,,,,,,,,,,,,,,,,,,,,,,,,,,,,,,,,,,,,,,,,,,,,,,728.786578199999,729.2919729999994,729.2919729999994,730.0445256000003,730.0445256000003,730.5443682999994,730.5443682999994,731.3830111000007,731.3830111000007,None,num_6,0.28354379999836965,731.3830111000007,None,happy,0,Happy,731.680136959999,None,None,731.680136959999,None,,,,,,,,,,,,,,,,,,,,,,,,,,,,,,,,,,,,,,,,,,,,,,,,,,,,,6,001,female,20,375,400,2022_Aug_10_1145,Experiment,2021.1.4,360.06322711517873,
images\S6_M_S_03.png,images\S6_M_S_03_scrambled.png,6,sad,-30,male,1,,276,off,1,0.5,0.75,0.5,0.826,3,275,3,1,1,0,0,0,0,1,,,,,,0,119,119,119,,,,,,,,,,,,,,,,,,,,,,,,,,,,,,,,,,,,,,,,,,,,,,,,,,,,,,,,,731.7273397999998,732.2327617999999,732.2327617999999,732.9854061000005,732.9854061000005,733.4907679999997,733.4907679999997,734.3210445999994,734.3210445999994,None,num_4,0.6338640000012674,734.3210445999994,None,sad,0,Sad,734.9652777599996,None,None,734.9652777599996,None,,,,,,,,,,,,,,,,,,,,,,,,,,,,,,,,,,,,,,,,,,,,,,,,,,,,,6,001,female,20,375,400,2022_Aug_10_1145,Experiment,2021.1.4,360.06322711517873,
images\S3_F_S_03.png,images\S3_F_S_03_scrambled.png,3,sad,-30,female,1,,498,off,1,0.5,0.75,0.5,0.798,3,497,4,1,2,0,0,0,0,1,,,,,,0,120,120,120,,,,,,,,,,,,,,,,,,,,,,,,,,,,,,,,,,,,,,,,,,,,,,,,,,,,,,,,,735.0318795000003,735.5345118000005,735.5345118000005,736.2870359999997,736.2870359999997,736.7898007000003,736.7898007000003,737.5922319999991,737.5922319999991,None,num_4,0.4984351000002789,737.5922319999991,None,sad,0,Sad,738.1059536599997,None,None,738.1059536599997,None,,,,,,,,,,,,,,,,,,,,,,,,,,,,,,,,,,,,,,,,,,,,,,,,,,,,,6,001,female,20,375,400,2022_Aug_10_1145,Experiment,2021.1.4,360.06322711517873,
images\blank.jpg,images\blank.jpg,none,none,none,none,0,,624,on,2,0.5,0.75,0.5,0.784,0,623,1,1,1,3,3,48,192,240,,,,,,0,121,121,121,,,,,,,,,,,,,,,,,,,,,,,,,,,,,,,,,,,,,,,,,,,,,,,,,,,,,,,,,738.1895236,738.691898699999,738.691898699999,739.4416299000004,739.4416299000004,739.9414837999993,739.9414837999993,740.7302509000001,740.7302509000001,740.7302509000001,None,,740.7302509000001,None,miss,0,,743.7347825399991,None,None,743.7347825399991,None,,,,,,,,,,,,,,,,,,,,,,,,,,,,,,,,,,,,,,,,,,,,,,,,,,,,,6,001,female,20,375,400,2022_Aug_10_1145,Experiment,2021.1.4,360.06322711517873,
images\S5_F_H_01.png,images\S5_F_H_01_scrambled.png,5,happy,10,female,4,,565,on,2,0.5,0.75,0.5,0.773,3,564,2,1,1,2,2,32,128,164,,,,,,0,122,122,122,,,,,,,,,,,,,,,,,,,,,,,,,,,,,,,,,,,,,,,,,,,,,,,,,,,,,,,,,743.8516232999991,744.3568181999999,744.3568181999999,745.1065672000004,745.1065672000004,745.6092269000001,745.6092269000001,746.3839356999997,746.3839356999997,None,num_6,0.30647590000080527,746.3839356999997,743.8516232999991,happy,0,Happy,746.71443658,None,None,746.71443658,None,,,,,,,,,,,,,,,,,,,,,,,,,,,,,,,,,,,,,,,,,,,,,,,,,,,,,6,001,female,20,375,400,2022_Aug_10_1145,Experiment,2021.1.4,360.06322711517873,
images\S6_M_S_03.png,images\S6_M_S_03_scrambled.png,6,sad,-30,male,1,,456,on,2,0.5,0.75,0.5,0.793,3,455,3,1,1,2,2,32,128,161,,,,,,0,123,123,123,,,,,,,,,,,,,,,,,,,,,,,,,,,,,,,,,,,,,,,,,,,,,,,,,,,,,,,,,746.7700772999997,747.2725833000004,747.2725833000004,748.0252235999997,748.0252235999997,748.5306060999992,748.5306060999992,749.3303856999992,749.3303856999992,None,num_4,0.7602968999999575,749.3303856999992,None,sad,0,Sad,750.1050336599993,None,None,750.1050336599993,None,,,,,,,,,,,,,,,,,,,,,,,,,,,,,,,,,,,,,,,,,,,,,,,,,,,,,6,001,female,20,375,400,2022_Aug_10_1145,Experiment,2021.1.4,360.06322711517873,
images\S6_M_H_01.png,images\S6_M_H_01_scrambled.png,6,happy,10,male,4,,571,on,2,0.5,0.75,0.5,0.849,3,570,4,2,1,2,2,32,128,164,,,,,,0,124,124,124,,,,,,,,,,,,,,,,,,,,,,,,,,,,,,,,,,,,,,,,,,,,,,,,,,,,,,,,,750.1550127999999,750.6548571999992,750.6548571999992,751.404622,751.404622,751.9072768999995,751.9072768999995,752.7599011999991,752.7599011999991,None,num_4,0.8428120999997191,752.7599011999991,None,sad,0,Happy,753.6122875799988,None,None,753.6122875799988,None,,,,,,,,,,,,,,,,,,,,,,,,,,,,,,,,,,,,,,,,,,,,,,,,,,,,,6,001,female,20,375,400,2022_Aug_10_1145,Experiment,2021.1.4,360.06322711517873,
images\S10_M_H_03.png,images\S10_M_H_03_scrambled.png,10,happy,30,male,6,,117,on,2,0.5,0.75,0.5,0.792,3,116,5,1,1,2,2,32,128,166,,,,,,0,125,125,125,,,,,,,,,,,,,,,,,,,,,,,,,,,,,,,,,,,,,,,,,,,,,,,,,,,,,,,,,753.662263799999,754.1676884999997,754.1676884999997,754.9203481999994,754.9203481999994,755.4256965999994,755.4256965999994,756.2170380999996,756.2170380999996,None,num_6,0.3136866999993799,756.2170380999996,None,happy,0,Happy,756.544688359999,None,None,756.544688359999,None,,,,,,,,,,,,,,,,,,,,,,,,,,,,,,,,,,,,,,,,,,,,,,,,,,,,,6,001,female,20,375,400,2022_Aug_10_1145,Experiment,2021.1.4,360.06322711517873,
images\S4_M_H_01.png,images\S4_M_H_01_scrambled.png,4,happy,10,male,4,,139,off,1,0.5,0.75,0.5,0.91,3,138,1,1,1,0,0,0,0,4,,,,,,0,126,126,126,,,,,,,,,,,,,,,,,,,,,,,,,,,,,,,,,,,,,,,,,,,,,,,,,,,,,,,,,756.5946968999997,757.1002423999998,757.1002423999998,757.8498866999998,757.8498866999998,758.355404599999,758.355404599999,759.2661045999994,759.2661045999994,None,num_4,1.1523911999993288,759.2661045999994,None,sad,0,Happy,760.4268128199996,None,None,760.4268128199996,None,,,,,,,,,,,,,,,,,,,,,,,,,,,,,,,,,,,,,,,,,,,,,,,,,,,,,6,001,female,20,375,400,2022_Aug_10_1145,Experiment,2021.1.4,360.06322711517873,
images\S5_F_H_01.png,images\S5_F_H_01_scrambled.png,5,happy,10,female,4,,385,off,1,0.5,0.75,0.5,0.851,3,384,2,1,2,0,0,0,0,4,,,,,,0,127,127,127,,,,,,,,,,,,,,,,,,,,,,,,,,,,,,,,,,,,,,,,,,,,,,,,,,,,,,,,,760.4990543000004,761.0017126000002,761.0017126000002,761.7570209999994,761.7570209999994,762.2568401000008,762.2568401000008,763.1121683999991,763.1121683999991,None,num_6,0.2905321999987791,763.1121683999991,None,happy,0,Happy,763.4175924599996,None,None,763.4175924599996,None,,,,,,,,,,,,,,,,,,,,,,,,,,,,,,,,,,,,,,,,,,,,,,,,,,,,,6,001,female,20,375,400,2022_Aug_10_1145,Experiment,2021.1.4,360.06322711517873,
images\S6_M_S_01.png,images\S6_M_S_01_scrambled.png,6,sad,-10,male,3,,514,off,1,0.5,0.75,0.5,0.803,3,513,3,1,1,0,0,0,0,3,,,,,,0,128,128,128,,,,,,,,,,,,,,,,,,,,,,,,,,,,,,,,,,,,,,,,,,,,,,,,,,,,,,,,,763.4675814000002,763.9703485999999,763.9703485999999,764.7200073000004,764.7200073000004,765.2254740000008,765.2254740000008,766.030764699999,766.030764699999,None,num_6,0.2757366000005277,766.030764699999,None,happy,0,Sad,766.3111852799989,None,None,766.3111852799989,None,,,,,,,,,,,,,,,,,,,,,,,,,,,,,,,,,,,,,,,,,,,,,,,,,,,,,6,001,female,20,375,400,2022_Aug_10_1145,Experiment,2021.1.4,360.06322711517873,
images\S8_M_H_02.png,images\S8_M_H_02_scrambled.png,8,happy,20,male,5,,524,off,1,0.5,0.75,0.5,0.807,3,523,4,1,1,0,0,0,0,5,,,,,,0,129,129,129,,,,,,,,,,,,,,,,,,,,,,,,,,,,,,,,,,,,,,,,,,,,,,,,,,,,,,,,,766.3583589999998,766.8609935999993,766.8609935999993,767.6163546999996,767.6163546999996,768.1217503000007,768.1217503000007,768.9354887999998,768.9354887999998,None,num_6,0.2592291999990266,768.9354887999998,None,happy,0,Happy,769.2102989000005,None,None,769.2102989000005,None,,,,,,,,,,,,,,,,,,,,,,,,,,,,,,,,,,,,,,,,,,,,,,,,,,,,,6,001,female,20,375,400,2022_Aug_10_1145,Experiment,2021.1.4,360.06322711517873,
images\S6_M_S_01.png,images\S6_M_S_01_scrambled.png,6,sad,-10,male,3,,94,on,2,0.5,0.75,0.5,0.947,3,93,1,1,1,2,2,32,128,163,,,,,,0,130,130,130,,,,,,,,,,,,,,,,,,,,,,,,,,,,,,,,,,,,,,,,,,,,,,,,,,,,,,,,,769.2602511000005,769.762888199999,769.762888199999,770.5155424000004,770.5155424000004,771.0180385999993,771.0180385999993,771.9706251000007,771.9706251000007,None,num_4,0.39192390000062005,771.9706251000007,None,sad,0,Sad,772.3787338000002,None,space,772.3787338000002,None,27.207269599999563,,,,,,,,,,,,,,,,,,,,,,,,,,,,,,,,,,,,,,,,,,,,,,,,,,,,6,001,female,20,375,400,2022_Aug_10_1145,Experiment,2021.1.4,360.06322711517873,
images\S6_M_S_03.png,images\S6_M_S_03_scrambled.png,6,sad,-30,male,1,,36,off,1,0.5,0.75,0.5,0.775,3,35,1,2,1,0,0,0,0,1,,,,,,0,131,131,131,,,,,,,,,,,,,,,,,,,,,,,,,,,,,,,,,,,,,,,,,,,,,,,,,,,,,,,,,799.6453215000001,800.1479863999994,800.1479863999994,800.9006310000004,800.9006310000004,801.4031556999998,801.4031556999998,802.1807783999993,802.1807783999993,None,num_4,0.39031790000080946,802.1807783999993,None,sad,0,Sad,802.5944628799994,None,None,802.5944628799994,None,,,,,,,,,,,,,,,,,,,,,,,,,,,,,,,,,,,,,,,,,,,,,,,,,,,,,6,001,female,20,375,400,2022_Aug_10_1145,Experiment,2021.1.4,360.06322711517873,
images\S3_F_H_01.png,images\S3_F_H_01_scrambled.png,3,happy,10,female,4,,433,on,2,0.5,0.75,0.5,0.865,3,432,1,1,1,2,2,32,128,164,,,,,,0,132,132,132,,,,,,,,,,,,,,,,,,,,,,,,,,,,,,,,,,,,,,,,,,,,,,,,,,,,,,,,,802.6610951000002,803.1665391999995,803.1665391999995,803.9190395000005,803.9190395000005,804.4189076000002,804.4189076000002,805.2880616999992,805.2880616999992,None,num_6,0.3306568999996671,805.2880616999992,None,happy,0,Happy,805.6435752599992,None,None,805.6435752599992,None,,,,,,,,,,,,,,,,,,,,,,,,,,,,,,,,,,,,,,,,,,,,,,,,,,,,,6,001,female,20,375,400,2022_Aug_10_1145,Experiment,2021.1.4,360.06322711517873,
images\S3_F_S_02.png,images\S3_F_S_02_scrambled.png,3,sad,-20,female,2,,197,on,2,0.5,0.75,0.5,0.913,3,196,2,2,1,2,2,32,128,162,,,,,,0,133,133,133,,,,,,,,,,,,,,,,,,,,,,,,,,,,,,,,,,,,,,,,,,,,,,,,,,,,,,,,,805.6990471999998,806.2017145999998,806.2017145999998,806.9514438999995,806.9514438999995,807.4541071999993,807.4541071999993,808.3733188000006,808.3733188000006,None,num_4,0.3171414000007644,808.3733188000006,None,sad,0,Sad,808.7009344600002,None,None,808.7009344600002,None,,,,,,,,,,,,,,,,,,,,,,,,,,,,,,,,,,,,,,,,,,,,,,,,,,,,,6,001,female,20,375,400,2022_Aug_10_1145,Experiment,2021.1.4,360.06322711517873,
images\S8_M_H_02.png,images\S8_M_H_02_scrambled.png,8,happy,20,male,5,,584,on,2,0.5,0.75,0.5,0.803,3,583,3,1,1,2,2,32,128,165,,,,,,0,134,134,134,,,,,,,,,,,,,,,,,,,,,,,,,,,,,,,,,,,,,,,,,,,,,,,,,,,,,,,,,808.7537534999992,809.2562966000005,809.2562966000005,810.0060673000007,810.0060673000007,810.5115046999999,810.5115046999999,811.3167661999996,811.3167661999996,None,num_4,1.6058744999991177,811.3167661999996,None,sad,0,Happy,812.927406979999,None,None,812.927406979999,None,,,,,,,,,,,,,,,,,,,,,,,,,,,,,,,,,,,,,,,,,,,,,,,,,,,,,6,001,female,20,375,400,2022_Aug_10_1145,Experiment,2021.1.4,360.06322711517873,
images\S2_M_H_03.png,images\S2_M_H_03_scrambled.png,2,happy,30,male,6,,69,on,2,0.5,0.75,0.5,0.846,3,68,4,1,1,2,2,32,128,166,,,,,,0,135,135,135,,,,,,,,,,,,,,,,,,,,,,,,,,,,,,,,,,,,,,,,,,,,,,,,,,,,,,,,,812.9745891000002,813.4772491999993,813.4772491999993,814.2298802999994,814.2298802999994,814.7352931999994,814.7352931999994,815.5849020999995,815.5849020999995,None,num_6,0.6098382000000129,815.5849020999995,None,happy,0,Happy,816.2096843600003,None,None,816.2096843600003,None,,,,,,,,,,,,,,,,,,,,,,,,,,,,,,,,,,,,,,,,,,,,,,,,,,,,,6,001,female,20,375,400,2022_Aug_10_1145,Experiment,2021.1.4,360.06322711517873,
images\blank.jpg,images\blank.jpg,none,none,none,none,0,,616,on,2,0.5,0.75,0.5,0.871,0,615,5,1,1,3,3,48,192,240,,,,,,0,136,136,136,,,,,,,,,,,,,,,,,,,,,,,,,,,,,,,,,,,,,,,,,,,,,,,,,,,,,,,,,816.2933063,816.7984240999995,816.7984240999995,817.5509514000005,817.5509514000005,818.0564008999991,818.0564008999991,818.9283765,818.9283765,818.9283765,None,,818.9283765,None,miss,0,,821.927413539999,None,None,821.927413539999,None,,,,,,,,,,,,,,,,,,,,,,,,,,,,,,,,,,,,,,,,,,,,,,,,,,,,,6,001,female,20,375,400,2022_Aug_10_1145,Experiment,2021.1.4,360.06322711517873,
images\S1_F_H_01.png,images\S1_F_H_01_scrambled.png,1,happy,10,female,4,,241,off,1,0.5,0.75,0.5,0.882,3,240,1,1,1,0,0,0,0,4,,,,,,0,137,137,137,,,,,,,,,,,,,,,,,,,,,,,,,,,,,,,,,,,,,,,,,,,,,,,,,,,,,,,,,822.0776167000004,822.5801009999996,822.5801009999996,823.3297397999995,823.3297397999995,823.829584699999,823.829584699999,824.7155297999998,824.7155297999998,None,num_6,0.39121720000002824,824.7155297999998,822.0776167000004,happy,0,Happy,825.120843759999,None,None,825.120843759999,None,,,,,,,,,,,,,,,,,,,,,,,,,,,,,,,,,,,,,,,,,,,,,,,,,,,,,6,001,female,20,375,400,2022_Aug_10_1145,Experiment,2021.1.4,360.06322711517873,
images\S1_F_S_03.png,images\S1_F_S_03_scrambled.png,1,sad,-30,female,1,,126,off,1,0.5,0.75,0.5,0.766,3,125,2,2,1,0,0,0,0,1,,,,,,0,138,138,138,,,,,,,,,,,,,,,,,,,,,,,,,,,,,,,,,,,,,,,,,,,,,,,,,,,,,,,,,825.2319234000006,825.7346761000008,825.7346761000008,826.4871002,826.4871002,826.992522999999,826.992522999999,827.7617437999997,827.7617437999997,None,num_4,0.3685801999999967,827.7617437999997,None,sad,0,Sad,828.14217896,None,None,828.14217896,None,,,,,,,,,,,,,,,,,,,,,,,,,,,,,,,,,,,,,,,,,,,,,,,,,,,,,6,001,female,20,375,400,2022_Aug_10_1145,Experiment,2021.1.4,360.06322711517873,
