image_face,image_scram,avatar,emo,emotion,sex,trigeeg,dac,trial_no,NMES,stimtime,baseline,iti,face,scr_face,resp_time,index,count_NMES,count_avatar,count_emotion,dac1,dac2,dac1_output,dac2_output,trigs_out,nmes,practice_trials.thisRepN,practice_trials.thisTrialN,practice_trials.thisN,practice_trials.thisIndex,real_trials.thisRepN,real_trials.thisTrialN,real_trials.thisN,real_trials.thisIndex,trials.thisRepN,trials.thisTrialN,trials.thisN,trials.thisIndex,position,Welcome.started,Welcome.stopped,Welcome_resp.keys,Welcome_resp.rt,text_2.started,text_2.stopped,form_2.index,form_2.itemText,form_2.type,form_2.response,form_2.rt,key_resp_4.keys,key_resp_4.rt,key_resp_4.started,key_resp_4.stopped,instructions.started,instructions.stopped,end_instr.keys,end_instr.rt,instructions_2.started,instructions_2.stopped,end_instr_2.keys,end_instr_2.rt,end_instr_2.started,end_instr_2.stopped,instruct_keypress.started,instruct_keypress.stopped,end_instruct_keypress.keys,end_instruct_keypress.rt,start_practice.started,start_practice.stopped,start_practice_resp.keys,start_practice_resp.rt,prac_baseline.started,prac_baseline.stopped,prac_iti.started,prac_iti.stopped,prac_stimulus.started,prac_stimulus.stopped,prac_scram_stim.started,prac_scram_stim.stopped,prac_stimulus_resp.started,prac_stimulus_resp.stopped,prac_resp.keys,prac_resp.rt,prac_resp.started,prac_resp.stopped,transition_to_real.started,transition_to_real.stopped,end_transition_to_real.keys,end_transition_to_real.rt,fixation_cross.started,fixation_cross.stopped,tr_iti.started,tr_iti.stopped,stimulus.started,stimulus.stopped,scram_stim.started,scram_stim.stopped,response_txt.started,response_txt.stopped,response.keys,response.rt,response.started,response.stopped,participant_Resp,grouping,corAnswer,break_msg.started,break_msg.stopped,end_break.keys,end_break.started,end_break.stopped,end_break.rt,text.started,text.stopped,key_resp_3.keys,key_resp_3.rt,key_resp_3.started,key_resp_3.stopped,fix_cross_comf.started,fix_cross_comf.stopped,stimulation_comf.started,stimulation_comf.stopped,rate_instr.started,rate_instr.stopped,comfort_rating.response,comfort_rating.rt,comfort_rating.started,comfort_rating.stopped,resp_form.keys,resp_form.rt,resp_form.started,resp_form.stopped,survey_instructions.started,survey_instructions.stopped,key_resp_2.keys,key_resp_2.rt,key_resp_2.started,key_resp_2.stopped,form.index,form.itemText,form.type,form.response,form.rt,key_resp.keys,key_resp.rt,key_resp.started,key_resp.stopped,text_3.started,text_3.stopped,rate_smile.response,rate_smile.rt,rate_smile.started,rate_smile.stopped,key_resp_5.keys,key_resp_5.rt,key_resp_5.started,key_resp_5.stopped,end_msg.started,end_msg.stopped,end_resp.keys,end_resp.rt,end_resp.started,end_resp.stopped,participant,session,gender,age,LEFT,RIGHT,date,expName,psychopyVersion,frameRate,
,,,,,,,,,,,,,,,,,,,,,,,,,,,,,,,,,,,,,,H-S,63.703656700000465,None,num_add,5.364769800000431,,,,,,,,,,,,,,,,,,,,,,,,,,,,,,,,,,,,,,,,,,,,,,,,,,,,,,,,,,,,,,,,,,,,,,,,,,,,,,,,,,,,,,,,,,,,,,,,,,,,,,,,,,,,,,,,,,,,,,,,,,7,001,male,21,500,500,2022_Aug_11_1047,Experiment,2021.1.4,359.920673483159,
,,,,,,,,,,,,,,,,,,,,,,,,,,,,,,,,,,,,,,,,,,,69.0761936000008,71.13662680000016,1,"This scale consistes of a number of words that describe different feelings and emotion. Read each item and then list the number from the scale below each word. Indicate (by clicking) to what extend you feel this way RIGHT NOW, that is, AT THE PRESENT MOMENT.",description,,,,,,,,,,,,,,,,,,,,,,,,,,,,,,,,,,,,,,,,,,,,,,,,,,,,,,,,,,,,,,,,,,,,,,,,,,,,,,,,,,,,,,,,,,,,,,,,,,,,,,,,,,,,,,,,,,,,,7,001,male,21,500,500,2022_Aug_11_1047,Experiment,2021.1.4,359.920673483159,
,,,,,,,,,,,,,,,,,,,,,,,,,,,,,,,,,,,,,,,,,,,,,2,Interested,rating,4.0,19.474584399999912,,,,,,,,,,,,,,,,,,,,,,,,,,,,,,,,,,,,,,,,,,,,,,,,,,,,,,,,,,,,,,,,,,,,,,,,,,,,,,,,,,,,,,,,,,,,,,,,,,,,,,,,,,,,,,,,,,,7,001,male,21,500,500,2022_Aug_11_1047,Experiment,2021.1.4,359.920673483159,
,,,,,,,,,,,,,,,,,,,,,,,,,,,,,,,,,,,,,,,,,,,,,3,Distressed,rating,2.0,25.760224799999378,,,,,,,,,,,,,,,,,,,,,,,,,,,,,,,,,,,,,,,,,,,,,,,,,,,,,,,,,,,,,,,,,,,,,,,,,,,,,,,,,,,,,,,,,,,,,,,,,,,,,,,,,,,,,,,,,,,7,001,male,21,500,500,2022_Aug_11_1047,Experiment,2021.1.4,359.920673483159,
,,,,,,,,,,,,,,,,,,,,,,,,,,,,,,,,,,,,,,,,,,,,,4,Excited,rating,4.0,27.56997070000034,,,,,,,,,,,,,,,,,,,,,,,,,,,,,,,,,,,,,,,,,,,,,,,,,,,,,,,,,,,,,,,,,,,,,,,,,,,,,,,,,,,,,,,,,,,,,,,,,,,,,,,,,,,,,,,,,,,7,001,male,21,500,500,2022_Aug_11_1047,Experiment,2021.1.4,359.920673483159,
,,,,,,,,,,,,,,,,,,,,,,,,,,,,,,,,,,,,,,,,,,,,,5,Upset,rating,2.0,32.78028379999978,,,,,,,,,,,,,,,,,,,,,,,,,,,,,,,,,,,,,,,,,,,,,,,,,,,,,,,,,,,,,,,,,,,,,,,,,,,,,,,,,,,,,,,,,,,,,,,,,,,,,,,,,,,,,,,,,,,7,001,male,21,500,500,2022_Aug_11_1047,Experiment,2021.1.4,359.920673483159,
,,,,,,,,,,,,,,,,,,,,,,,,,,,,,,,,,,,,,,,,,,,,,6,Strong,rating,3.0,66.2107605000001,,,,,,,,,,,,,,,,,,,,,,,,,,,,,,,,,,,,,,,,,,,,,,,,,,,,,,,,,,,,,,,,,,,,,,,,,,,,,,,,,,,,,,,,,,,,,,,,,,,,,,,,,,,,,,,,,,,7,001,male,21,500,500,2022_Aug_11_1047,Experiment,2021.1.4,359.920673483159,
,,,,,,,,,,,,,,,,,,,,,,,,,,,,,,,,,,,,,,,,,,,,,7,Guilty,rating,1.0,32.41511339999943,,,,,,,,,,,,,,,,,,,,,,,,,,,,,,,,,,,,,,,,,,,,,,,,,,,,,,,,,,,,,,,,,,,,,,,,,,,,,,,,,,,,,,,,,,,,,,,,,,,,,,,,,,,,,,,,,,,7,001,male,21,500,500,2022_Aug_11_1047,Experiment,2021.1.4,359.920673483159,
,,,,,,,,,,,,,,,,,,,,,,,,,,,,,,,,,,,,,,,,,,,,,8,Scared,rating,1.0,35.330695300000116,,,,,,,,,,,,,,,,,,,,,,,,,,,,,,,,,,,,,,,,,,,,,,,,,,,,,,,,,,,,,,,,,,,,,,,,,,,,,,,,,,,,,,,,,,,,,,,,,,,,,,,,,,,,,,,,,,,7,001,male,21,500,500,2022_Aug_11_1047,Experiment,2021.1.4,359.920673483159,
,,,,,,,,,,,,,,,,,,,,,,,,,,,,,,,,,,,,,,,,,,,,,9,Hostile,rating,1.0,38.657902199999626,,,,,,,,,,,,,,,,,,,,,,,,,,,,,,,,,,,,,,,,,,,,,,,,,,,,,,,,,,,,,,,,,,,,,,,,,,,,,,,,,,,,,,,,,,,,,,,,,,,,,,,,,,,,,,,,,,,7,001,male,21,500,500,2022_Aug_11_1047,Experiment,2021.1.4,359.920673483159,
,,,,,,,,,,,,,,,,,,,,,,,,,,,,,,,,,,,,,,,,,,,,,10,Enthusiastic,rating,4.0,21.72122070000023,,,,,,,,,,,,,,,,,,,,,,,,,,,,,,,,,,,,,,,,,,,,,,,,,,,,,,,,,,,,,,,,,,,,,,,,,,,,,,,,,,,,,,,,,,,,,,,,,,,,,,,,,,,,,,,,,,,7,001,male,21,500,500,2022_Aug_11_1047,Experiment,2021.1.4,359.920673483159,
,,,,,,,,,,,,,,,,,,,,,,,,,,,,,,,,,,,,,,,,,,,,,11,Proud,rating,4.0,13.415416499999992,,,,,,,,,,,,,,,,,,,,,,,,,,,,,,,,,,,,,,,,,,,,,,,,,,,,,,,,,,,,,,,,,,,,,,,,,,,,,,,,,,,,,,,,,,,,,,,,,,,,,,,,,,,,,,,,,,,7,001,male,21,500,500,2022_Aug_11_1047,Experiment,2021.1.4,359.920673483159,
,,,,,,,,,,,,,,,,,,,,,,,,,,,,,,,,,,,,,,,,,,,,,12,Irritable,rating,1.0,8.065358500000002,,,,,,,,,,,,,,,,,,,,,,,,,,,,,,,,,,,,,,,,,,,,,,,,,,,,,,,,,,,,,,,,,,,,,,,,,,,,,,,,,,,,,,,,,,,,,,,,,,,,,,,,,,,,,,,,,,,7,001,male,21,500,500,2022_Aug_11_1047,Experiment,2021.1.4,359.920673483159,
,,,,,,,,,,,,,,,,,,,,,,,,,,,,,,,,,,,,,,,,,,,,,13,Alert,rating,1.0,10.522000400000252,,,,,,,,,,,,,,,,,,,,,,,,,,,,,,,,,,,,,,,,,,,,,,,,,,,,,,,,,,,,,,,,,,,,,,,,,,,,,,,,,,,,,,,,,,,,,,,,,,,,,,,,,,,,,,,,,,,7,001,male,21,500,500,2022_Aug_11_1047,Experiment,2021.1.4,359.920673483159,
,,,,,,,,,,,,,,,,,,,,,,,,,,,,,,,,,,,,,,,,,,,,,14,Ashamed,rating,1.0,10.087582499999371,,,,,,,,,,,,,,,,,,,,,,,,,,,,,,,,,,,,,,,,,,,,,,,,,,,,,,,,,,,,,,,,,,,,,,,,,,,,,,,,,,,,,,,,,,,,,,,,,,,,,,,,,,,,,,,,,,,7,001,male,21,500,500,2022_Aug_11_1047,Experiment,2021.1.4,359.920673483159,
,,,,,,,,,,,,,,,,,,,,,,,,,,,,,,,,,,,,,,,,,,,,,15,Inspired,rating,4.0,9.712153899999976,,,,,,,,,,,,,,,,,,,,,,,,,,,,,,,,,,,,,,,,,,,,,,,,,,,,,,,,,,,,,,,,,,,,,,,,,,,,,,,,,,,,,,,,,,,,,,,,,,,,,,,,,,,,,,,,,,,7,001,male,21,500,500,2022_Aug_11_1047,Experiment,2021.1.4,359.920673483159,
,,,,,,,,,,,,,,,,,,,,,,,,,,,,,,,,,,,,,,,,,,,,,16,Nervous,rating,1.0,8.822573899999952,,,,,,,,,,,,,,,,,,,,,,,,,,,,,,,,,,,,,,,,,,,,,,,,,,,,,,,,,,,,,,,,,,,,,,,,,,,,,,,,,,,,,,,,,,,,,,,,,,,,,,,,,,,,,,,,,,,7,001,male,21,500,500,2022_Aug_11_1047,Experiment,2021.1.4,359.920673483159,
,,,,,,,,,,,,,,,,,,,,,,,,,,,,,,,,,,,,,,,,,,,,,17,Determined,rating,4.0,8.42868610000005,,,,,,,,,,,,,,,,,,,,,,,,,,,,,,,,,,,,,,,,,,,,,,,,,,,,,,,,,,,,,,,,,,,,,,,,,,,,,,,,,,,,,,,,,,,,,,,,,,,,,,,,,,,,,,,,,,,7,001,male,21,500,500,2022_Aug_11_1047,Experiment,2021.1.4,359.920673483159,
,,,,,,,,,,,,,,,,,,,,,,,,,,,,,,,,,,,,,,,,,,,,,18,Attentive,rating,4.0,6.374145099999623,,,,,,,,,,,,,,,,,,,,,,,,,,,,,,,,,,,,,,,,,,,,,,,,,,,,,,,,,,,,,,,,,,,,,,,,,,,,,,,,,,,,,,,,,,,,,,,,,,,,,,,,,,,,,,,,,,,7,001,male,21,500,500,2022_Aug_11_1047,Experiment,2021.1.4,359.920673483159,
,,,,,,,,,,,,,,,,,,,,,,,,,,,,,,,,,,,,,,,,,,,,,19,Jittery,rating,1.0,8.088156099999651,,,,,,,,,,,,,,,,,,,,,,,,,,,,,,,,,,,,,,,,,,,,,,,,,,,,,,,,,,,,,,,,,,,,,,,,,,,,,,,,,,,,,,,,,,,,,,,,,,,,,,,,,,,,,,,,,,,7,001,male,21,500,500,2022_Aug_11_1047,Experiment,2021.1.4,359.920673483159,
,,,,,,,,,,,,,,,,,,,,,,,,,,,,,,,,,,,,,,,,,,,,,20,Active,rating,4.0,6.81935490000069,,,,,,,,,,,,,,,,,,,,,,,,,,,,,,,,,,,,,,,,,,,,,,,,,,,,,,,,,,,,,,,,,,,,,,,,,,,,,,,,,,,,,,,,,,,,,,,,,,,,,,,,,,,,,,,,,,,7,001,male,21,500,500,2022_Aug_11_1047,Experiment,2021.1.4,359.920673483159,
,,,,,,,,,,,,,,,,,,,,,,,,,,,,,,,,,,,,,,,,,,,,,21,Afraid,rating,1.0,8.631175100000291,,,,,,,,,,,,,,,,,,,,,,,,,,,,,,,,,,,,,,,,,,,,,,,,,,,,,,,,,,,,,,,,,,,,,,,,,,,,,,,,,,,,,,,,,,,,,,,,,,,,,,,,,,,,,,,,,,,7,001,male,21,500,500,2022_Aug_11_1047,Experiment,2021.1.4,359.920673483159,
,,,,,,,,,,,,,,,,,,,,,,,,,,,,,,,,,,,,,,,,,,,,,22,Press the + button to submit your answers,description,,,,,,,,,,,,,,,,,,,,,,,,,,,,,,,,,,,,,,,,,,,,,,,,,,,,,,,,,,,,,,,,,,,,,,,,,,,,,,,,,,,,,,,,,,,,,,,,,,,,,,,,,,,,,,,,,,,,,7,001,male,21,500,500,2022_Aug_11_1047,Experiment,2021.1.4,359.920673483159,
,,,,,,,,,,,,,,,,,,,,,,,,,,,,,,,,,,,,,,,,,,,,,,,,,,num_add,109.77819530000033,79.10640230000081,None,,,,,,,,,,,,,,,,,,,,,,,,,,,,,,,,,,,,,,,,,,,,,,,,,,,,,,,,,,,,,,,,,,,,,,,,,,,,,,,,,,,,,,,,,,,,,,,,,,,,,,,,,,,,,,,7,001,male,21,500,500,2022_Aug_11_1047,Experiment,2021.1.4,359.920673483159,
,,,,,,,,,,,,,,,,,,,,,,,,,,,,,,,,,,,,,,,,,,,,,,,,,,,,,,188.9144599000001,None,num_add,31.54593560000012,,,,,,,,,,,,,,,,,,,,,,,,,,,,,,,,,,,,,,,,,,,,,,,,,,,,,,,,,,,,,,,,,,,,,,,,,,,,,,,,,,,,,,,,,,,,,,,,,,,,,,,,,,,7,001,male,21,500,500,2022_Aug_11_1047,Experiment,2021.1.4,359.920673483159,
,,,,,,,,,,,,,,,,,,,,,,,,,,,,,,,,,,,,,,,,,,,,,,,,,,,,,,,,,,220.46853380000084,None,num_add,14.824095099999795,220.46853380000084,None,,,,,,,,,,,,,,,,,,,,,,,,,,,,,,,,,,,,,,,,,,,,,,,,,,,,,,,,,,,,,,,,,,,,,,,,,,,,,,,,,,,,,,,,,,,,,,,,,,,,,7,001,male,21,500,500,2022_Aug_11_1047,Experiment,2021.1.4,359.920673483159,
,,,,,,,,,,,,,,,,,,,,,,,,,,,,,,,,,,,,,,,,,,,,,,,,,,,,,,,,,,,,,,,,235.31398120000085,None,num_add,15.258434299999863,,,,,,,,,,,,,,,,,,,,,,,,,,,,,,,,,,,,,,,,,,,,,,,,,,,,,,,,,,,,,,,,,,,,,,,,,,,,,,,,,,,,,,,,,,,,,,,,,7,001,male,21,500,500,2022_Aug_11_1047,Experiment,2021.1.4,359.920673483159,
,,,,,,,,,,,,,,,,,,,,,,,,,,,,,,,,,,,,,,,,,,,,,,,,,,,,,,,,,,,,,,,,,,,,250.58150700000078,None,space,32.4069769000007,,,,,,,,,,,,,,,,,,,,,,,,,,,,,,,,,,,,,,,,,,,,,,,,,,,,,,,,,,,,,,,,,,,,,,,,,,,,,,,,,,,,,,,,,,,,,7,001,male,21,500,500,2022_Aug_11_1047,Experiment,2021.1.4,359.920673483159,
images\S21_F_H_01.png,images\S21_F_H_01_scrambled.png,21,Happy,-0.1,F,0,0,practice,off,1,0.5,0.75,0.5,0.853,3,,,,,,,,,,,0,0,0,0,,,,,,,,,,,,,,,,,,,,,,,,,,,,,,,,,,,,,,,,,,,283.1604734000002,283.66300260000025,283.66300260000025,284.41842520000046,284.41842520000046,284.9237840000005,284.9237840000005,285.77906320000056,285.77906320000056,None,num_6,1.9700081999999384,285.77906320000056,None,,,,,,,,,,,,,,,,,,,,,,,,,,,,,,,,,,,,,,,,,,,,,,,,,,,,,,,,,,,,,,,,,,,,,,,,,,,,,,,7,001,male,21,500,500,2022_Aug_11_1047,Experiment,2021.1.4,359.920673483159,
images\S22_M_S_02.png,images\S22_M_S_02_scrambled.png,22,Sad,0.2,M,0,0,practice,off,1,0.5,0.75,0.5,0.751,3,,,,,,,,,,,0,1,1,3,,,,,,,,,,,,,,,,,,,,,,,,,,,,,,,,,,,,,,,,,,,287.8395093000008,288.3422347000005,288.3422347000005,289.0946848000003,289.0946848000003,289.59739680000075,289.59739680000075,290.3526743000002,290.3526743000002,None,num_4,2.404459599999427,290.3526743000002,None,,,,,,,,,,,,,,,,,,,,,,,,,,,,,,,,,,,,,,,,,,,,,,,,,,,,,,,,,,,,,,,,,,,,,,,,,,,,,,,7,001,male,21,500,500,2022_Aug_11_1047,Experiment,2021.1.4,359.920673483159,
images\S22_M_H_02.png,images\S22_M_H_02_scrambled.png,22,Happy,-0.2,M,0,0,practice,off,1,0.5,0.75,0.5,0.883,3,,,,,,,,,,,0,2,2,2,,,,,,,,,,,,,,,,,,,,,,,,,,,,,,,,,,,,,,,,,,,292.8490756000001,293.35171040000023,293.35171040000023,294.1042660000003,294.1042660000003,294.60700370000086,294.60700370000086,295.4927153000008,295.4927153000008,None,num_4,1.1923463000002812,295.4927153000008,None,,,,,,,,,,,,,,,,,,,,,,,,,,,,,,,,,,,,,,,,,,,,,,,,,,,,,,,,,,,,,,,,,,,,,,,,,,,,,,,7,001,male,21,500,500,2022_Aug_11_1047,Experiment,2021.1.4,359.920673483159,
images\S22_M_S_03.png,images\S22_M_S_03_scrambled.png,22,Sad,0.3,M,0,0,practice,on,2,0.5,0.75,0.5,0.794,3,,,,,,,,,,,0,3,3,7,,,,,,,,,,,,,,,,,,,,,,,,,,,,,,,,,,,,,,,,,,,296.79785900000024,297.2977038000008,297.2977038000008,298.0502725000006,298.0502725000006,298.5530062000007,298.5530062000007,299.34988350000003,299.34988350000003,None,num_4,1.8710666999995738,299.34988350000003,None,,,,,,,,,,,,,,,,,,,,,,,,,,,,,,,,,,,,,,,,,,,,,,,,,,,,,,,,,,,,,,,,,,,,,,,,,,,,,,,7,001,male,21,500,500,2022_Aug_11_1047,Experiment,2021.1.4,359.920673483159,
images\S22_M_S_01.png,images\S22_M_S_01_scrambled.png,22,Sad,0.1,M,0,0,practice,on,2,0.5,0.75,0.5,0.867,3,,,,,,,,,,,0,4,4,5,,,,,,,,,,,,,,,,,,,,,,,,,,,,,,,,,,,,,,,,,,,301.3075983000008,301.80744230000073,301.80744230000073,302.5627647000001,302.5627647000001,303.0654561000001,303.0654561000001,303.9373551000008,303.9373551000008,None,None,,303.9373551000008,None,,,,,,,,,,,,,,,,,,,,,,,,,,,,,,,,,,,,,,,,,,,,,,,,,,,,,,,,,,,,,,,,,,,,,,,,,,,,,,,7,001,male,21,500,500,2022_Aug_11_1047,Experiment,2021.1.4,359.920673483159,
images\S21_F_H_02.png,images\S21_F_H_02_scrambled.png,21,Happy,-0.2,F,0,0,practice,off,1,0.5,0.75,0.5,0.91,3,,,,,,,,,,,0,5,5,1,,,,,,,,,,,,,,,,,,,,,,,,,,,,,,,,,,,,,,,,,,,307.0224982,307.5252610000007,307.5252610000007,308.27770190000047,308.27770190000047,308.7831029000008,308.7831029000008,309.6967338000004,309.6967338000004,307.0224982,num_4,0.8443341000001965,309.6967338000004,307.0224982,,,,,,,,,,,,,,,,,,,,,,,,,,,,,,,,,,,,,,,,,,,,,,,,,,,,,,,,,,,,,,,,,,,,,,,,,,,,,,,7,001,male,21,500,500,2022_Aug_11_1047,Experiment,2021.1.4,359.920673483159,
images\S22_M_S_03.png,images\S22_M_S_03_scrambled.png,22,Sad,0.3,M,0,0,practice,on,2,0.5,0.75,0.5,0.87,3,,,,,,,,,,,0,6,6,4,,,,,,,,,,,,,,,,,,,,,,,,,,,,,,,,,,,,,,,,,,,310.59640800000034,311.09906800000044,311.09906800000044,311.84880110000086,311.84880110000086,312.35423530000025,312.35423530000025,313.2289666000006,313.2289666000006,None,num_4,1.4158680000000459,313.2289666000006,None,,,,,,,,,,,,,,,,,,,,,,,,,,,,,,,,,,,,,,,,,,,,,,,,,,,,,,,,,,,,,,,,,,,,,,,,,,,,,,,7,001,male,21,500,500,2022_Aug_11_1047,Experiment,2021.1.4,359.920673483159,
images\S22_M_S_02.png,images\S22_M_S_02_scrambled.png,22,Sad,0.2,M,0,0,practice,on,2,0.5,0.75,0.5,0.783,3,,,,,,,,,,,0,7,7,6,,,,,,,,,,,,,,,,,,,,,,,,,,,,,,,,,,,,,,,,,,,314.6979192000008,315.2033390000006,315.2033390000006,315.95600640000066,315.95600640000066,316.4613642000004,316.4613642000004,317.24717860000055,317.24717860000055,None,num_4,0.6538605999994616,317.24717860000055,None,,,,,,,,,,,,,,,,,,,,,,,,,,,,,,,,,,,,,,,,,,,,,,,,,,,,,,,,,,,,,,,,,,,,,,,,,,,,,,,7,001,male,21,500,500,2022_Aug_11_1047,Experiment,2021.1.4,359.920673483159,
,,,,,,,,,,,,,,,,,,,,,,,,,,,,,,,,,,,,,,,,,,,,,,,,,,,,,,,,,,,,,,,,,,,,,,,,,,,,,,,,,,,,,,317.9274813000002,None,space,94.5728667000003,,,,,,,,,,,,,,,,,,,,,,,,,,,,,,,,,,,,,,,,,,,,,,,,,,,,,,,,,,,,,,,,,,,,,,,,,,,7,001,male,21,500,500,2022_Aug_11_1047,Experiment,2021.1.4,359.920673483159,
images\S2_M_S_01.png,images\S2_M_S_01_scrambled.png,2,sad,-10,male,3,,250,off,1,0.5,0.75,0.5,0.778,3,249,1,1,1,0,0,0,0,3,,,,,,0,0,0,0,,,,,,,,,,,,,,,,,,,,,,,,,,,,,,,,,,,,,,,,,,,,,,,,,,,,,,,,,413.0094147,413.51480080000056,413.51480080000056,414.26746170000024,414.26746170000024,414.7727855000003,414.7727855000003,415.5530845000003,415.5530845000003,None,num_4,0.2036748999998963,415.5530845000003,None,happy,1,Sad,415.7779671200002,None,None,415.7779671200002,None,,,,,,,,,,,,,,,,,,,,,,,,,,,,,,,,,,,,,,,,,,,,,,,,,,,,,7,001,male,21,500,500,2022_Aug_11_1047,Experiment,2021.1.4,359.920673483159,
images\S4_M_H_02.png,images\S4_M_H_02_scrambled.png,4,happy,20,male,5,,200,on,2,0.5,0.75,0.5,0.765,3,199,1,1,1,2,2,32,128,165,,,,,,0,1,1,1,,,,,,,,,,,,,,,,,,,,,,,,,,,,,,,,,,,,,,,,,,,,,,,,,,,,,,,,,415.8918308000002,416.3973195000008,416.3973195000008,417.1498106000008,417.1498106000008,417.6552016000005,417.6552016000005,418.42718550000063,418.42718550000063,None,num_4,0.729841999999735,418.42718550000063,None,happy,1,Happy,419.17138308000034,None,None,419.17138308000034,None,,,,,,,,,,,,,,,,,,,,,,,,,,,,,,,,,,,,,,,,,,,,,,,,,,,,,7,001,male,21,500,500,2022_Aug_11_1047,Experiment,2021.1.4,359.920673483159,
images\S4_M_H_01.png,images\S4_M_H_01_scrambled.png,4,happy,10,male,4,,379,off,1,0.5,0.75,0.5,0.844,3,378,1,2,1,0,0,0,0,4,,,,,,0,2,2,2,,,,,,,,,,,,,,,,,,,,,,,,,,,,,,,,,,,,,,,,,,,,,,,,,,,,,,,,,419.25191520000044,419.7573381000002,419.7573381000002,420.50997890000053,420.50997890000053,421.01248080000005,421.01248080000005,421.8594387000003,421.8594387000003,None,num_4,0.5452887999999803,421.8594387000003,None,happy,1,Happy,422.43702610000037,None,None,422.43702610000037,None,,,,,,,,,,,,,,,,,,,,,,,,,,,,,,,,,,,,,,,,,,,,,,,,,,,,,7,001,male,21,500,500,2022_Aug_11_1047,Experiment,2021.1.4,359.920673483159,
images\S7_F_S_01.png,images\S7_F_S_01_scrambled.png,7,sad,-10,female,3,,520,off,1,0.5,0.75,0.5,0.923,3,519,2,1,1,0,0,0,0,3,,,,,,0,3,3,3,,,,,,,,,,,,,,,,,,,,,,,,,,,,,,,,,,,,,,,,,,,,,,,,,,,,,,,,,422.5231279000009,423.02576060000047,423.02576060000047,423.7812182000007,423.7812182000007,424.2865339,424.2865339,425.2168055000002,425.2168055000002,None,num_4,0.5810188999994352,425.2168055000002,None,happy,1,Sad,425.8055847600006,None,None,425.8055847600006,None,,,,,,,,,,,,,,,,,,,,,,,,,,,,,,,,,,,,,,,,,,,,,,,,,,,,,7,001,male,21,500,500,2022_Aug_11_1047,Experiment,2021.1.4,359.920673483159,
images\S1_F_S_02.png,images\S1_F_S_02_scrambled.png,1,sad,-20,female,2,,305,on,2,0.5,0.75,0.5,0.855,3,304,1,1,1,2,2,32,128,162,,,,,,0,4,4,4,,,,,,,,,,,,,,,,,,,,,,,,,,,,,,,,,,,,,,,,,,,,,,,,,,,,,,,,,425.91652220000014,426.4219668000005,426.4219668000005,427.17448370000056,427.17448370000056,427.67433210000036,427.67433210000036,428.5324089000005,428.5324089000005,None,num_4,1.1532099999994898,428.5324089000005,None,happy,1,Sad,429.70160866000043,None,None,429.70160866000043,None,,,,,,,,,,,,,,,,,,,,,,,,,,,,,,,,,,,,,,,,,,,,,,,,,,,,,7,001,male,21,500,500,2022_Aug_11_1047,Experiment,2021.1.4,359.920673483159,
images\S2_M_H_01.png,images\S2_M_H_01_scrambled.png,2,happy,10,male,4,,307,on,2,0.5,0.75,0.5,0.856,3,306,2,1,1,2,2,32,128,164,,,,,,0,5,5,5,,,,,,,,,,,,,,,,,,,,,,,,,,,,,,,,,,,,,,,,,,,,,,,,,,,,,,,,,429.80976960000044,430.3151888000002,430.3151888000002,431.06773410000005,431.06773410000005,431.57316620000074,431.57316620000074,432.43399990000034,432.43399990000034,None,num_4,0.8908644000002823,432.43399990000034,None,happy,1,Happy,433.3392361800001,None,None,433.3392361800001,None,,,,,,,,,,,,,,,,,,,,,,,,,,,,,,,,,,,,,,,,,,,,,,,,,,,,,7,001,male,21,500,500,2022_Aug_11_1047,Experiment,2021.1.4,359.920673483159,
images\blank.jpg,images\blank.jpg,none,none,none,none,0,,622,on,2,0.5,0.75,0.5,0.763,0,621,3,1,1,3,3,48,192,240,,,,,,0,6,6,6,,,,,,,,,,,,,,,,,,,,,,,,,,,,,,,,,,,,,,,,,,,,,,,,,,,,,,,,,433.46191780000026,433.9668954000008,433.9668954000008,434.7166186000004,434.7166186000004,435.21924540000055,435.21924540000055,435.98568590000014,435.98568590000014,435.98568590000014,None,,435.98568590000014,None,miss,1,,438.98759084000017,None,None,438.98759084000017,None,,,,,,,,,,,,,,,,,,,,,,,,,,,,,,,,,,,,,,,,,,,,,,,,,,,,,7,001,male,21,500,500,2022_Aug_11_1047,Experiment,2021.1.4,359.920673483159,
images\S1_F_H_02.png,images\S1_F_H_02_scrambled.png,1,happy,20,female,5,,482,off,1,0.5,0.75,0.5,0.886,3,481,1,1,1,0,0,0,0,5,,,,,,0,7,7,7,,,,,,,,,,,,,,,,,,,,,,,,,,,,,,,,,,,,,,,,,,,,,,,,,,,,,,,,,439.15439680000054,439.65681100000074,439.65681100000074,440.40652110000065,440.40652110000065,440.90638540000054,440.90638540000054,441.79779450000024,441.79779450000024,None,num_4,0.7590017000002263,441.79779450000024,439.15439680000054,happy,1,Happy,442.5697518800002,None,None,442.5697518800002,None,,,,,,,,,,,,,,,,,,,,,,,,,,,,,,,,,,,,,,,,,,,,,,,,,,,,,7,001,male,21,500,500,2022_Aug_11_1047,Experiment,2021.1.4,359.920673483159,
images\S6_M_S_03.png,images\S6_M_S_03_scrambled.png,6,sad,-30,male,1,,276,off,1,0.5,0.75,0.5,0.826,3,275,2,1,1,0,0,0,0,1,,,,,,0,8,8,8,,,,,,,,,,,,,,,,,,,,,,,,,,,,,,,,,,,,,,,,,,,,,,,,,,,,,,,,,442.65306320000036,443.1557005000004,443.1557005000004,443.9054849000004,443.9054849000004,444.41095720000067,444.41095720000067,445.24126140000044,445.24126140000044,None,num_6,0.9558135999996011,445.24126140000044,None,sad,1,Sad,446.2102910799999,None,None,446.2102910799999,None,,,,,,,,,,,,,,,,,,,,,,,,,,,,,,,,,,,,,,,,,,,,,,,,,,,,,7,001,male,21,500,500,2022_Aug_11_1047,Experiment,2021.1.4,359.920673483159,
images\S7_F_H_02.png,images\S7_F_H_02_scrambled.png,7,happy,20,female,5,,218,on,2,0.5,0.75,0.5,0.947,3,217,1,1,1,2,2,32,128,165,,,,,,0,9,9,9,,,,,,,,,,,,,,,,,,,,,,,,,,,,,,,,,,,,,,,,,,,,,,,,,,,,,,,,,446.29361400000016,446.7962447,446.7962447,447.54881510000087,447.54881510000087,448.0513937000005,448.0513937000005,449.00110680000034,449.00110680000034,None,num_4,0.42762999999922613,449.00110680000034,None,happy,1,Happy,449.45929478000056,None,None,449.45929478000056,None,,,,,,,,,,,,,,,,,,,,,,,,,,,,,,,,,,,,,,,,,,,,,,,,,,,,,7,001,male,21,500,500,2022_Aug_11_1047,Experiment,2021.1.4,359.920673483159,
images\S10_M_H_02.png,images\S10_M_H_02_scrambled.png,10,happy,20,male,5,,236,on,2,0.5,0.75,0.5,0.858,3,235,2,1,2,2,2,32,128,165,,,,,,0,10,10,10,,,,,,,,,,,,,,,,,,,,,,,,,,,,,,,,,,,,,,,,,,,,,,,,,,,,,,,,,449.5704740000001,450.0702402000006,450.0702402000006,450.82278470000074,450.82278470000074,451.32544640000015,451.32544640000015,452.1862778000004,452.1862778000004,None,num_4,0.7545878000000812,452.1862778000004,None,happy,1,Happy,452.9554368800004,None,None,452.9554368800004,None,,,,,,,,,,,,,,,,,,,,,,,,,,,,,,,,,,,,,,,,,,,,,,,,,,,,,7,001,male,21,500,500,2022_Aug_11_1047,Experiment,2021.1.4,359.920673483159,
images\S7_F_H_01.png,images\S7_F_H_01_scrambled.png,7,happy,10,female,4,,37,off,1,0.5,0.75,0.5,0.851,3,36,1,1,1,0,0,0,0,4,,,,,,0,11,11,11,,,,,,,,,,,,,,,,,,,,,,,,,,,,,,,,,,,,,,,,,,,,,,,,,,,,,,,,,453.0387627,453.54138350000085,453.54138350000085,454.2939677000004,454.2939677000004,454.79655190000085,454.79655190000085,455.65188240000043,455.65188240000043,None,num_4,0.7056507999996029,455.65188240000043,None,happy,1,Happy,456.37670302000026,None,None,456.37670302000026,None,,,,,,,,,,,,,,,,,,,,,,,,,,,,,,,,,,,,,,,,,,,,,,,,,,,,,7,001,male,21,500,500,2022_Aug_11_1047,Experiment,2021.1.4,359.920673483159,
images\S6_M_S_03.png,images\S6_M_S_03_scrambled.png,6,sad,-30,male,1,,396,off,1,0.5,0.75,0.5,0.866,3,395,2,1,1,0,0,0,0,1,,,,,,0,12,12,12,,,,,,,,,,,,,,,,,,,,,,,,,,,,,,,,,,,,,,,,,,,,,,,,,,,,,,,,,456.4293822000009,456.9348161000007,456.9348161000007,457.6874607,457.6874607,458.18996660000084,458.18996660000084,459.05916980000075,459.05916980000075,None,num_6,0.6256521000004795,459.05916980000075,None,sad,1,Sad,459.7005981000002,None,None,459.7005981000002,None,,,,,,,,,,,,,,,,,,,,,,,,,,,,,,,,,,,,,,,,,,,,,,,,,,,,,7,001,male,21,500,500,2022_Aug_11_1047,Experiment,2021.1.4,359.920673483159,
images\S3_F_S_01.png,images\S3_F_S_01_scrambled.png,3,sad,-10,female,3,,316,on,2,0.5,0.75,0.5,0.941,3,315,1,1,1,2,2,32,128,163,,,,,,0,13,13,13,,,,,,,,,,,,,,,,,,,,,,,,,,,,,,,,,,,,,,,,,,,,,,,,,,,,,,,,,459.7839072000006,460.28668090000065,460.28668090000065,461.03909380000005,461.03909380000005,461.54182590000073,461.54182590000073,462.48865450000085,462.48865450000085,None,num_6,0.6921969999993962,462.48865450000085,None,sad,1,Sad,463.19119328000073,None,None,463.19119328000073,None,,,,,,,,,,,,,,,,,,,,,,,,,,,,,,,,,,,,,,,,,,,,,,,,,,,,,7,001,male,21,500,500,2022_Aug_11_1047,Experiment,2021.1.4,359.920673483159,
images\S4_M_S_01.png,images\S4_M_S_01_scrambled.png,4,sad,-10,male,3,,142,off,1,0.5,0.75,0.5,0.885,3,141,1,1,2,0,0,0,0,3,,,,,,0,14,14,14,,,,,,,,,,,,,,,,,,,,,,,,,,,,,,,,,,,,,,,,,,,,,,,,,,,,,,,,,463.2745059000008,463.7799136000003,463.7799136000003,464.5296790000002,464.5296790000002,465.0295403,465.0295403,465.9181735000002,465.9181735000002,None,num_6,0.518683900000724,465.9181735000002,None,sad,1,Sad,466.4512953800008,None,None,466.4512953800008,None,,,,,,,,,,,,,,,,,,,,,,,,,,,,,,,,,,,,,,,,,,,,,,,,,,,,,7,001,male,21,500,500,2022_Aug_11_1047,Experiment,2021.1.4,359.920673483159,
images\S7_F_S_03.png,images\S7_F_S_03_scrambled.png,7,sad,-30,female,1,,402,off,1,0.5,0.75,0.5,0.918,3,401,2,1,1,0,0,0,0,1,,,,,,0,15,15,15,,,,,,,,,,,,,,,,,,,,,,,,,,,,,,,,,,,,,,,,,,,,,,,,,,,,,,,,,466.5428812,467.04838050000035,467.04838050000035,467.80092370000057,467.80092370000057,468.3007733000004,468.3007733000004,469.2226703000006,469.2226703000006,None,num_6,0.5264084000000366,469.2226703000006,None,sad,1,Sad,469.76416278000073,None,None,469.76416278000073,None,,,,,,,,,,,,,,,,,,,,,,,,,,,,,,,,,,,,,,,,,,,,,,,,,,,,,7,001,male,21,500,500,2022_Aug_11_1047,Experiment,2021.1.4,359.920673483159,
images\S7_F_S_02.png,images\S7_F_S_02_scrambled.png,7,sad,-20,female,2,,341,on,2,0.5,0.75,0.5,0.886,3,340,1,2,1,2,2,32,128,162,,,,,,0,16,16,16,,,,,,,,,,,,,,,,,,,,,,,,,,,,,,,,,,,,,,,,,,,,,,,,,,,,,,,,,469.8474840000008,470.3473324000006,470.3473324000006,471.10266070000034,471.10266070000034,471.6052961000005,471.6052961000005,472.4966966000002,472.4966966000002,None,num_6,0.5240341999997327,472.4966966000002,None,sad,1,Sad,473.0381711,None,None,473.0381711,None,,,,,,,,,,,,,,,,,,,,,,,,,,,,,,,,,,,,,,,,,,,,,,,,,,,,,7,001,male,21,500,500,2022_Aug_11_1047,Experiment,2021.1.4,359.920673483159,
images\S1_F_S_02.png,images\S1_F_S_02_scrambled.png,1,sad,-20,female,2,,65,on,2,0.5,0.75,0.5,0.922,3,64,2,1,2,2,2,32,128,162,,,,,,0,17,17,17,,,,,,,,,,,,,,,,,,,,,,,,,,,,,,,,,,,,,,,,,,,,,,,,,,,,,,,,,473.08537550000074,473.5908150000005,473.5908150000005,474.34055100000023,474.34055100000023,474.8403911000005,474.8403911000005,475.7652557000001,475.7652557000001,None,num_4,0.6077281000007133,475.7652557000001,None,happy,1,Sad,476.38156924000054,None,None,476.38156924000054,None,,,,,,,,,,,,,,,,,,,,,,,,,,,,,,,,,,,,,,,,,,,,,,,,,,,,,7,001,male,21,500,500,2022_Aug_11_1047,Experiment,2021.1.4,359.920673483159,
images\S6_M_H_02.png,images\S6_M_H_02_scrambled.png,6,happy,20,male,5,,152,off,1,0.5,0.75,0.5,0.832,3,151,1,1,1,0,0,0,0,5,,,,,,0,18,18,18,,,,,,,,,,,,,,,,,,,,,,,,,,,,,,,,,,,,,,,,,,,,,,,,,,,,,,,,,476.46767400000044,476.9730793000008,476.9730793000008,477.72839700000077,477.72839700000077,478.2310614000007,478.2310614000007,479.0668974,479.0668974,None,num_4,0.4739994999999908,479.0668974,None,happy,1,Happy,479.55559897999996,None,None,479.55559897999996,None,,,,,,,,,,,,,,,,,,,,,,,,,,,,,,,,,,,,,,,,,,,,,,,,,,,,,7,001,male,21,500,500,2022_Aug_11_1047,Experiment,2021.1.4,359.920673483159,
images\S7_F_S_02.png,images\S7_F_S_02_scrambled.png,7,sad,-20,female,2,,281,off,1,0.5,0.75,0.5,0.797,3,280,2,1,1,0,0,0,0,2,,,,,,0,19,19,19,,,,,,,,,,,,,,,,,,,,,,,,,,,,,,,,,,,,,,,,,,,,,,,,,,,,,,,,,479.6028223000003,480.1054401000001,480.1054401000001,480.8552103000002,480.8552103000002,481.3606419000007,481.3606419000007,482.1603599,482.1603599,None,num_6,0.5643815000003087,482.1603599,None,sad,1,Sad,482.73798720000013,None,None,482.73798720000013,None,,,,,,,,,,,,,,,,,,,,,,,,,,,,,,,,,,,,,,,,,,,,,,,,,,,,,7,001,male,21,500,500,2022_Aug_11_1047,Experiment,2021.1.4,359.920673483159,
images\S8_M_H_02.png,images\S8_M_H_02_scrambled.png,8,happy,20,male,5,,104,on,2,0.5,0.75,0.5,0.949,3,103,1,1,1,2,2,32,128,165,,,,,,0,20,20,20,,,,,,,,,,,,,,,,,,,,,,,,,,,,,,,,,,,,,,,,,,,,,,,,,,,,,,,,,482.84626430000026,483.3490384000006,483.3490384000006,484.0986784000006,484.0986784000006,484.60420460000023,484.60420460000023,485.55654890000005,485.55654890000005,None,num_4,0.40034020000075543,485.55654890000005,None,happy,1,Happy,485.9675280800006,None,None,485.9675280800006,None,,,,,,,,,,,,,,,,,,,,,,,,,,,,,,,,,,,,,,,,,,,,,,,,,,,,,7,001,male,21,500,500,2022_Aug_11_1047,Experiment,2021.1.4,359.920673483159,
images\S5_F_H_01.png,images\S5_F_H_01_scrambled.png,5,happy,10,female,4,,385,off,1,0.5,0.75,0.5,0.851,3,384,1,1,1,0,0,0,0,4,,,,,,0,21,21,21,,,,,,,,,,,,,,,,,,,,,,,,,,,,,,,,,,,,,,,,,,,,,,,,,,,,,,,,,486.0508352000006,486.55346570000074,486.55346570000074,487.30600870000035,487.30600870000035,487.80589320000036,487.80589320000036,488.66118350000033,488.66118350000033,None,num_4,0.42387830000006943,488.66118350000033,None,happy,1,Happy,489.0999000800006,None,None,489.0999000800006,None,,,,,,,,,,,,,,,,,,,,,,,,,,,,,,,,,,,,,,,,,,,,,,,,,,,,,7,001,male,21,500,500,2022_Aug_11_1047,Experiment,2021.1.4,359.920673483159,
images\S2_M_H_03.png,images\S2_M_H_03_scrambled.png,2,happy,30,male,6,,429,on,2,0.5,0.75,0.5,0.763,3,428,1,1,1,2,2,32,128,166,,,,,,0,22,22,22,,,,,,,,,,,,,,,,,,,,,,,,,,,,,,,,,,,,,,,,,,,,,,,,,,,,,,,,,489.1859914000006,489.69138010000006,489.69138010000006,490.44115039999997,490.44115039999997,490.9438889000003,490.9438889000003,491.71024730000045,491.71024730000045,None,num_4,0.6066343000002234,491.71024730000045,None,happy,1,Happy,492.3406955200004,None,None,492.3406955200004,None,,,,,,,,,,,,,,,,,,,,,,,,,,,,,,,,,,,,,,,,,,,,,,,,,,,,,7,001,male,21,500,500,2022_Aug_11_1047,Experiment,2021.1.4,359.920673483159,
images\S1_F_H_02.png,images\S1_F_H_02_scrambled.png,1,happy,20,female,5,,242,off,1,0.5,0.75,0.5,0.802,3,241,1,1,1,0,0,0,0,5,,,,,,0,23,23,23,,,,,,,,,,,,,,,,,,,,,,,,,,,,,,,,,,,,,,,,,,,,,,,,,,,,,,,,,492.3933283000006,492.8988685000004,492.8988685000004,493.65129830000024,493.65129830000024,494.15404090000084,494.15404090000084,494.95941930000026,494.95941930000026,None,num_4,0.3813983999998527,494.95941930000026,None,happy,1,Happy,495.36469036,None,None,495.36469036,None,,,,,,,,,,,,,,,,,,,,,,,,,,,,,,,,,,,,,,,,,,,,,,,,,,,,,7,001,male,21,500,500,2022_Aug_11_1047,Experiment,2021.1.4,359.920673483159,
images\S9_F_S_03.png,images\S9_F_S_03_scrambled.png,9,sad,-30,female,1,,474,on,2,0.5,0.75,0.5,0.809,3,473,1,1,1,2,2,32,128,161,,,,,,0,24,24,24,,,,,,,,,,,,,,,,,,,,,,,,,,,,,,,,,,,,,,,,,,,,,,,,,,,,,,,,,495.47016430000076,495.97559160000037,495.97559160000037,496.73091420000037,496.73091420000037,497.2336342000008,497.2336342000008,498.0444314000006,498.0444314000006,None,num_6,0.4483981000003041,498.0444314000006,None,sad,1,Sad,498.50532958000025,None,None,498.50532958000025,None,,,,,,,,,,,,,,,,,,,,,,,,,,,,,,,,,,,,,,,,,,,,,,,,,,,,,7,001,male,21,500,500,2022_Aug_11_1047,Experiment,2021.1.4,359.920673483159,
images\S9_F_H_03.png,images\S9_F_H_03_scrambled.png,9,happy,30,female,6,,231,on,2,0.5,0.75,0.5,0.763,3,230,2,2,1,2,2,32,128,166,,,,,,0,25,25,25,,,,,,,,,,,,,,,,,,,,,,,,,,,,,,,,,,,,,,,,,,,,,,,,,,,,,,,,,498.5914308000001,499.0968517000001,499.0968517000001,499.8495049000003,499.8495049000003,500.35487420000027,500.35487420000027,501.1212514000008,501.1212514000008,None,num_4,0.49943979999989097,501.1212514000008,None,happy,1,Happy,501.63214548000036,None,None,501.63214548000036,None,,,,,,,,,,,,,,,,,,,,,,,,,,,,,,,,,,,,,,,,,,,,,,,,,,,,,7,001,male,21,500,500,2022_Aug_11_1047,Experiment,2021.1.4,359.920673483159,
images\S4_M_S_02.png,images\S4_M_S_02_scrambled.png,4,sad,-20,male,2,,143,off,1,0.5,0.75,0.5,0.898,3,142,1,1,1,0,0,0,0,2,,,,,,0,26,26,26,,,,,,,,,,,,,,,,,,,,,,,,,,,,,,,,,,,,,,,,,,,,,,,,,,,,,,,,,501.72102130000076,502.22376800000075,502.22376800000075,502.97343980000005,502.97343980000005,503.47892950000005,503.47892950000005,504.3841908000004,504.3841908000004,None,num_6,0.260509999999158,504.3841908000004,None,sad,1,Sad,504.65621308000067,None,None,504.65621308000067,None,,,,,,,,,,,,,,,,,,,,,,,,,,,,,,,,,,,,,,,,,,,,,,,,,,,,,7,001,male,21,500,500,2022_Aug_11_1047,Experiment,2021.1.4,359.920673483159,
images\S8_M_S_02.png,images\S8_M_S_02_scrambled.png,8,sad,-20,male,2,,347,on,2,0.5,0.75,0.5,0.884,3,346,1,1,2,2,2,32,128,162,,,,,,0,27,27,27,,,,,,,,,,,,,,,,,,,,,,,,,,,,,,,,,,,,,,,,,,,,,,,,,,,,,,,,,504.76731010000003,505.2699743000003,505.2699743000003,506.0225263000002,506.0225263000002,506.52513850000014,506.52513850000014,507.4138472000004,507.4138472000004,None,num_6,0.358947700000499,507.4138472000004,None,sad,1,Sad,507.7858239800002,None,None,507.7858239800002,None,,,,,,,,,,,,,,,,,,,,,,,,,,,,,,,,,,,,,,,,,,,,,,,,,,,,,7,001,male,21,500,500,2022_Aug_11_1047,Experiment,2021.1.4,359.920673483159,
images\S2_M_H_03.png,images\S2_M_H_03_scrambled.png,2,happy,30,male,6,,189,on,2,0.5,0.75,0.5,0.914,3,188,2,1,1,2,2,32,128,166,,,,,,0,28,28,28,,,,,,,,,,,,,,,,,,,,,,,,,,,,,,,,,,,,,,,,,,,,,,,,,,,,,,,,,507.83580840000013,508.3384278000003,508.3384278000003,509.0909992000006,509.0909992000006,509.5936182000005,509.5936182000005,510.50720680000086,510.50720680000086,None,num_4,0.5376696000002994,510.50720680000086,None,happy,1,Happy,511.0597793800002,None,None,511.0597793800002,None,,,,,,,,,,,,,,,,,,,,,,,,,,,,,,,,,,,,,,,,,,,,,,,,,,,,,7,001,male,21,500,500,2022_Aug_11_1047,Experiment,2021.1.4,359.920673483159,
images\S6_M_S_01.png,images\S6_M_S_01_scrambled.png,6,sad,-10,male,3,,394,off,1,0.5,0.75,0.5,0.767,3,393,1,1,1,0,0,0,0,3,,,,,,0,29,29,29,,,,,,,,,,,,,,,,,,,,,,,,,,,,,,,,,,,,,,,,,,,,,,,,,,,,,,,,,511.14314300000024,511.64576880000004,511.64576880000004,512.3955146000008,512.3955146000008,512.8982331000007,512.8982331000007,513.6701548000001,513.6701548000001,None,num_6,0.4227700999999797,513.6701548000001,None,sad,1,Sad,514.1033404800004,None,None,514.1033404800004,None,,,,,,,,,,,,,,,,,,,,,,,,,,,,,,,,,,,,,,,,,,,,,,,,,,,,,7,001,male,21,500,500,2022_Aug_11_1047,Experiment,2021.1.4,359.920673483159,
images\S7_F_S_03.png,images\S7_F_S_03_scrambled.png,7,sad,-30,female,1,,162,off,1,0.5,0.75,0.5,0.813,3,161,2,1,1,0,0,0,0,1,,,,,,0,30,30,30,,,,,,,,,,,,,,,,,,,,,,,,,,,,,,,,,,,,,,,,,,,,,,,,,,,,,,,,,514.1534226000003,514.6531759000009,514.6531759000009,515.4057186,515.4057186,515.9083274000004,515.9083274000004,516.7247501000002,516.7247501000002,None,num_6,0.4320981999999276,516.7247501000002,None,sad,1,Sad,517.1718224800001,None,None,517.1718224800001,None,,,,,,,,,,,,,,,,,,,,,,,,,,,,,,,,,,,,,,,,,,,,,,,,,,,,,7,001,male,21,500,500,2022_Aug_11_1047,Experiment,2021.1.4,359.920673483159,
images\S10_M_S_01.png,images\S10_M_S_01_scrambled.png,10,sad,-10,male,3,,478,on,2,0.5,0.75,0.5,0.925,3,477,1,1,1,2,2,32,128,163,,,,,,0,31,31,31,,,,,,,,,,,,,,,,,,,,,,,,,,,,,,,,,,,,,,,,,,,,,,,,,,,,,,,,,517.2551439000008,517.7605688000003,517.7605688000003,518.5131108000005,518.5131108000005,519.0157369000008,519.0157369000008,519.9432285000003,519.9432285000003,None,num_4,0.42209600000023784,519.9432285000003,None,happy,1,Sad,520.37926116,None,None,520.37926116,None,,,,,,,,,,,,,,,,,,,,,,,,,,,,,,,,,,,,,,,,,,,,,,,,,,,,,7,001,male,21,500,500,2022_Aug_11_1047,Experiment,2021.1.4,359.920673483159,
images\S6_M_H_02.png,images\S6_M_H_02_scrambled.png,6,happy,20,male,5,,32,off,1,0.5,0.75,0.5,0.941,3,31,1,1,1,0,0,0,0,5,,,,,,0,32,32,32,,,,,,,,,,,,,,,,,,,,,,,,,,,,,,,,,,,,,,,,,,,,,,,,,,,,,,,,,520.4430488000007,520.9457000000002,520.9457000000002,521.7010170000003,521.7010170000003,522.2037530000007,522.2037530000007,523.1477715000001,523.1477715000001,None,num_4,0.4252284000003783,523.1477715000001,None,happy,1,Happy,523.5892969800001,None,None,523.5892969800001,None,,,,,,,,,,,,,,,,,,,,,,,,,,,,,,,,,,,,,,,,,,,,,,,,,,,,,7,001,male,21,500,500,2022_Aug_11_1047,Experiment,2021.1.4,359.920673483159,
images\blank.jpg,images\blank.jpg,none,none,none,none,0,,614,on,2,0.5,0.75,0.5,0.881,0,613,1,1,1,3,3,48,192,240,,,,,,0,33,33,33,,,,,,,,,,,,,,,,,,,,,,,,,,,,,,,,,,,,,,,,,,,,,,,,,,,,,,,,,523.6758667000004,524.1808272000007,524.1808272000007,524.9333299,524.9333299,525.4331793000001,525.4331793000001,526.3135208000003,526.3135208000003,526.3135208000003,None,,526.3135208000003,None,miss,1,,529.3154326400002,None,None,529.3154326400002,None,,,,,,,,,,,,,,,,,,,,,,,,,,,,,,,,,,,,,,,,,,,,,,,,,,,,,7,001,male,21,500,500,2022_Aug_11_1047,Experiment,2021.1.4,359.920673483159,
images\S10_M_H_03.png,images\S10_M_H_03_scrambled.png,10,happy,30,male,6,,477,on,2,0.5,0.75,0.5,0.773,3,476,2,1,1,2,2,32,128,166,,,,,,0,34,34,34,,,,,,,,,,,,,,,,,,,,,,,,,,,,,,,,,,,,,,,,,,,,,,,,,,,,,,,,,529.4738219000001,529.9762724000002,529.9762724000002,530.7289153000002,530.7289153000002,531.2343006000001,531.2343006000001,532.0117478000002,532.0117478000002,None,num_4,0.3690033000002586,532.0117478000002,529.4738219000001,happy,1,Happy,532.3921355800006,None,None,532.3921355800006,None,,,,,,,,,,,,,,,,,,,,,,,,,,,,,,,,,,,,,,,,,,,,,,,,,,,,,7,001,male,21,500,500,2022_Aug_11_1047,Experiment,2021.1.4,359.920673483159,
images\S7_F_H_02.png,images\S7_F_H_02_scrambled.png,7,happy,20,female,5,,158,off,1,0.5,0.75,0.5,0.886,3,157,1,1,1,0,0,0,0,5,,,,,,0,35,35,35,,,,,,,,,,,,,,,,,,,,,,,,,,,,,,,,,,,,,,,,,,,,,,,,,,,,,,,,,532.4421411000003,532.9475460000003,532.9475460000003,533.7001083000005,533.7001083000005,534.1999539000008,534.1999539000008,535.0913675000002,535.0913675000002,None,num_4,0.29750960000001214,535.0913675000002,None,happy,1,Happy,535.4051062200002,None,None,535.4051062200002,None,,,,,,,,,,,,,,,,,,,,,,,,,,,,,,,,,,,,,,,,,,,,,,,,,,,,,7,001,male,21,500,500,2022_Aug_11_1047,Experiment,2021.1.4,359.920673483159,
images\S6_M_S_01.png,images\S6_M_S_01_scrambled.png,6,sad,-10,male,3,,154,off,1,0.5,0.75,0.5,0.85,3,153,2,1,1,0,0,0,0,3,,,,,,0,36,36,36,,,,,,,,,,,,,,,,,,,,,,,,,,,,,,,,,,,,,,,,,,,,,,,,,,,,,,,,,535.4552613000005,535.9577395000006,535.9577395000006,536.7103752000003,536.7103752000003,537.2157162000003,537.2157162000003,538.0709977000006,538.0709977000006,None,num_4,0.36636100000032457,538.0709977000006,None,happy,1,Sad,538.45429856,None,None,538.45429856,None,,,,,,,,,,,,,,,,,,,,,,,,,,,,,,,,,,,,,,,,,,,,,,,,,,,,,7,001,male,21,500,500,2022_Aug_11_1047,Experiment,2021.1.4,359.920673483159,
images\S2_M_S_01.png,images\S2_M_S_01_scrambled.png,2,sad,-10,male,3,,10,off,1,0.5,0.75,0.5,0.947,3,9,3,1,2,0,0,0,0,3,,,,,,0,37,37,37,,,,,,,,,,,,,,,,,,,,,,,,,,,,,,,,,,,,,,,,,,,,,,,,,,,,,,,,,538.5125003000003,539.0152217000004,539.0152217000004,539.7704992000008,539.7704992000008,540.2731286000007,540.2731286000007,541.2227731000003,541.2227731000003,None,num_6,0.23833119999926566,541.2227731000003,None,sad,1,Sad,541.4838367600004,None,None,541.4838367600004,None,,,,,,,,,,,,,,,,,,,,,,,,,,,,,,,,,,,,,,,,,,,,,,,,,,,,,7,001,male,21,500,500,2022_Aug_11_1047,Experiment,2021.1.4,359.920673483159,
images\S6_M_S_02.png,images\S6_M_S_02_scrambled.png,6,sad,-20,male,2,,95,on,2,0.5,0.75,0.5,0.765,3,94,1,1,1,2,2,32,128,162,,,,,,0,38,38,38,,,,,,,,,,,,,,,,,,,,,,,,,,,,,,,,,,,,,,,,,,,,,,,,,,,,,,,,,541.5921057000005,542.0948398,542.0948398,542.8472959000001,542.8472959000001,543.3499837000008,543.3499837000008,544.1163342,544.1163342,None,num_6,0.4964418999998088,544.1163342,None,sad,1,Sad,544.6272742800005,None,None,544.6272742800005,None,,,,,,,,,,,,,,,,,,,,,,,,,,,,,,,,,,,,,,,,,,,,,,,,,,,,,7,001,male,21,500,500,2022_Aug_11_1047,Experiment,2021.1.4,359.920673483159,
images\S8_M_H_02.png,images\S8_M_H_02_scrambled.png,8,happy,20,male,5,,164,off,1,0.5,0.75,0.5,0.921,3,163,1,1,1,0,0,0,0,5,,,,,,0,39,39,39,,,,,,,,,,,,,,,,,,,,,,,,,,,,,,,,,,,,,,,,,,,,,,,,,,,,,,,,,544.6772733000007,545.1771121000002,545.1771121000002,545.9296596000004,545.9296596000004,546.4295339,546.4295339,547.3543461000008,547.3543461000008,None,num_4,0.24259299999994255,547.3543461000008,None,happy,1,Happy,547.6096999800005,None,None,547.6096999800005,None,,,,,,,,,,,,,,,,,,,,,,,,,,,,,,,,,,,,,,,,,,,,,,,,,,,,,7,001,male,21,500,500,2022_Aug_11_1047,Experiment,2021.1.4,359.920673483159,
images\S5_F_S_01.png,images\S5_F_S_01_scrambled.png,5,sad,-10,female,3,,508,off,1,0.5,0.75,0.5,0.818,3,507,2,1,1,0,0,0,0,3,,,,,,0,40,40,40,,,,,,,,,,,,,,,,,,,,,,,,,,,,,,,,,,,,,,,,,,,,,,,,,,,,,,,,,547.6930238000004,548.1956885000009,548.1956885000009,548.9509989000007,548.9509989000007,549.4535820000001,549.4535820000001,550.2755468000005,550.2755468000005,None,num_4,0.32134619999942515,550.2755468000005,None,happy,1,Sad,550.6088314400006,None,None,550.6088314400006,None,,,,,,,,,,,,,,,,,,,,,,,,,,,,,,,,,,,,,,,,,,,,,,,,,,,,,7,001,male,21,500,500,2022_Aug_11_1047,Experiment,2021.1.4,359.920673483159,
images\S6_M_S_01.png,images\S6_M_S_01_scrambled.png,6,sad,-10,male,3,,574,on,2,0.5,0.75,0.5,0.943,3,573,1,1,2,2,2,32,128,163,,,,,,0,41,41,41,,,,,,,,,,,,,,,,,,,,,,,,,,,,,,,,,,,,,,,,,,,,,,,,,,,,,,,,,550.6671082000003,551.1698431000004,551.1698431000004,551.9222631000002,551.9222631000002,552.4250273000007,552.4250273000007,553.3718494000004,553.3718494000004,None,num_6,0.4011185999997906,553.3718494000004,None,sad,1,Sad,553.7939768599998,None,None,553.7939768599998,None,,,,,,,,,,,,,,,,,,,,,,,,,,,,,,,,,,,,,,,,,,,,,,,,,,,,,7,001,male,21,500,500,2022_Aug_11_1047,Experiment,2021.1.4,359.920673483159,
images\S6_M_H_01.png,images\S6_M_H_01_scrambled.png,6,happy,10,male,4,,211,on,2,0.5,0.75,0.5,0.877,3,210,2,2,1,2,2,32,128,164,,,,,,0,42,42,42,,,,,,,,,,,,,,,,,,,,,,,,,,,,,,,,,,,,,,,,,,,,,,,,,,,,,,,,,553.9022143000002,554.4076252000004,554.4076252000004,555.1602951000004,555.1602951000004,555.6600063000005,555.6600063000005,556.5375270000004,556.5375270000004,None,num_6,0.4432749999996304,556.5375270000004,None,sad,1,Happy,556.98462984,None,None,556.98462984,None,,,,,,,,,,,,,,,,,,,,,,,,,,,,,,,,,,,,,,,,,,,,,,,,,,,,,7,001,male,21,500,500,2022_Aug_11_1047,Experiment,2021.1.4,359.920673483159,
images\S3_F_H_03.png,images\S3_F_H_03_scrambled.png,3,happy,30,female,6,,195,on,2,0.5,0.75,0.5,0.802,3,194,3,1,1,2,2,32,128,166,,,,,,0,43,43,43,,,,,,,,,,,,,,,,,,,,,,,,,,,,,,,,,,,,,,,,,,,,,,,,,,,,,,,,,557.0956799000005,557.5955313000004,557.5955313000004,558.3508760000004,558.3508760000004,558.8535234000001,558.8535234000001,559.6615840000004,559.6615840000004,None,num_4,0.3434797999998409,559.6615840000004,None,happy,1,Happy,560.0197713800002,None,None,560.0197713800002,None,,,,,,,,,,,,,,,,,,,,,,,,,,,,,,,,,,,,,,,,,,,,,,,,,,,,,7,001,male,21,500,500,2022_Aug_11_1047,Experiment,2021.1.4,359.920673483159,
images\blank.jpg,images\blank.jpg,none,none,none,none,0,,607,on,2,0.5,0.75,0.5,0.925,0,606,4,1,1,3,3,48,192,240,,,,,,0,44,44,44,,,,,,,,,,,,,,,,,,,,,,,,,,,,,,,,,,,,,,,,,,,,,,,,,,,,,,,,,560.1033661000001,560.6057143000007,560.6057143000007,561.3554875,561.3554875,561.8553273000007,561.8553273000007,562.7856554,562.7856554,562.7856554,None,,562.7856554,None,miss,1,,565.7846861200002,None,None,565.7846861200002,None,,,,,,,,,,,,,,,,,,,,,,,,,,,,,,,,,,,,,,,,,,,,,,,,,,,,,7,001,male,21,500,500,2022_Aug_11_1047,Experiment,2021.1.4,359.920673483159,
images\S2_M_H_01.png,images\S2_M_H_01_scrambled.png,2,happy,10,male,4,,487,off,1,0.5,0.75,0.5,0.926,3,486,1,1,1,0,0,0,0,4,,,,,,0,45,45,45,,,,,,,,,,,,,,,,,,,,,,,,,,,,,,,,,,,,,,,,,,,,,,,,,,,,,,,,,565.9015888000004,566.4039720000001,566.4039720000001,567.1592559000001,567.1592559000001,567.6619131000007,567.6619131000007,568.5893672000002,568.5893672000002,None,num_6,0.6955037999996421,568.5893672000002,565.9015888000004,sad,1,Happy,569.28916564,None,None,569.28916564,None,,,,,,,,,,,,,,,,,,,,,,,,,,,,,,,,,,,,,,,,,,,,,,,,,,,,,7,001,male,21,500,500,2022_Aug_11_1047,Experiment,2021.1.4,359.920673483159,
images\S5_F_H_02.png,images\S5_F_H_02_scrambled.png,5,happy,20,female,5,,446,on,2,0.5,0.75,0.5,0.843,3,445,1,1,1,2,2,32,128,165,,,,,,0,46,46,46,,,,,,,,,,,,,,,,,,,,,,,,,,,,,,,,,,,,,,,,,,,,,,,,,,,,,,,,,569.3724642000006,569.8751098000002,569.8751098000002,570.6277675000001,570.6277675000001,571.1331821000003,571.1331821000003,571.9828443000006,571.9828443000006,None,num_4,0.34196410000004107,571.9828443000006,None,happy,1,Happy,572.3381920800006,None,None,572.3381920800006,None,,,,,,,,,,,,,,,,,,,,,,,,,,,,,,,,,,,,,,,,,,,,,,,,,,,,,7,001,male,21,500,500,2022_Aug_11_1047,Experiment,2021.1.4,359.920673483159,
images\blank.jpg,images\blank.jpg,none,none,none,none,0,,646,on,2,0.5,0.75,0.5,0.802,0,645,2,1,1,3,3,48,192,240,,,,,,0,47,47,47,,,,,,,,,,,,,,,,,,,,,,,,,,,,,,,,,,,,,,,,,,,,,,,,,,,,,,,,,572.4218054000003,572.9269465000007,572.9269465000007,573.6795786000002,573.6795786000002,574.1821146000002,574.1821146000002,574.9874568000005,574.9874568000005,574.9874568000005,None,,574.9874568000005,None,miss,1,,577.9864992200006,None,None,577.9864992200006,None,,,,,,,,,,,,,,,,,,,,,,,,,,,,,,,,,,,,,,,,,,,,,,,,,,,,,7,001,male,21,500,500,2022_Aug_11_1047,Experiment,2021.1.4,359.920673483159,
images\S1_F_S_01.png,images\S1_F_S_01_scrambled.png,1,sad,-10,female,3,,424,on,2,0.5,0.75,0.5,0.829,3,423,3,1,1,2,2,32,128,163,,,,,,0,48,48,48,,,,,,,,,,,,,,,,,,,,,,,,,,,,,,,,,,,,,,,,,,,,,,,,,,,,,,,,,578.1365910000004,578.6391015000008,578.6391015000008,579.3943822000001,579.3943822000001,579.8942495000001,579.8942495000001,580.7301097000009,580.7301097000009,None,num_4,0.25853379999989556,580.7301097000009,578.1365910000004,happy,1,Sad,580.9966459600008,None,None,580.9966459600008,None,,,,,,,,,,,,,,,,,,,,,,,,,,,,,,,,,,,,,,,,,,,,,,,,,,,,,7,001,male,21,500,500,2022_Aug_11_1047,Experiment,2021.1.4,359.920673483159,
images\S6_M_S_02.png,images\S6_M_S_02_scrambled.png,6,sad,-20,male,2,,455,on,2,0.5,0.75,0.5,0.751,3,454,4,1,1,2,2,32,128,162,,,,,,0,49,49,49,,,,,,,,,,,,,,,,,,,,,,,,,,,,,,,,,,,,,,,,,,,,,,,,,,,,,,,,,581.0466555000003,581.5493083000001,581.5493083000001,582.3046313000004,582.3046313000004,582.8073682000004,582.8073682000004,583.5653407,583.5653407,None,num_6,0.3679087000000436,583.5653407,None,sad,1,Sad,583.95685514,None,None,583.95685514,None,,,,,,,,,,,,,,,,,,,,,,,,,,,,,,,,,,,,,,,,,,,,,,,,,,,,,7,001,male,21,500,500,2022_Aug_11_1047,Experiment,2021.1.4,359.920673483159,
images\S4_M_S_03.png,images\S4_M_S_03_scrambled.png,4,sad,-30,male,1,,204,on,2,0.5,0.75,0.5,0.846,3,203,5,1,1,2,2,32,128,161,,,,,,0,50,50,50,,,,,,,,,,,,,,,,,,,,,,,,,,,,,,,,,,,,,,,,,,,,,,,,,,,,,,,,,584.0429578000003,584.5484105000005,584.5484105000005,585.3037366000008,585.3037366000008,585.8063594000005,585.8063594000005,586.6588618000005,586.6588618000005,None,num_6,0.2578366999996433,586.6588618000005,None,sad,1,Sad,586.9365298000002,None,None,586.9365298000002,None,,,,,,,,,,,,,,,,,,,,,,,,,,,,,,,,,,,,,,,,,,,,,,,,,,,,,7,001,male,21,500,500,2022_Aug_11_1047,Experiment,2021.1.4,359.920673483159,
images\S8_M_S_02.png,images\S8_M_S_02_scrambled.png,8,sad,-20,male,2,,287,off,1,0.5,0.75,0.5,0.854,3,286,1,1,1,0,0,0,0,2,,,,,,0,51,51,51,,,,,,,,,,,,,,,,,,,,,,,,,,,,,,,,,,,,,,,,,,,,,,,,,,,,,,,,,586.9837210000005,587.4835639000003,587.4835639000003,588.2389179000002,588.2389179000002,588.7387796000003,588.7387796000003,589.5996065000008,589.5996065000008,None,num_6,0.5493371000002298,589.5996065000008,None,sad,1,Sad,590.16328878,None,None,590.16328878,None,,,,,,,,,,,,,,,,,,,,,,,,,,,,,,,,,,,,,,,,,,,,,,,,,,,,,7,001,male,21,500,500,2022_Aug_11_1047,Experiment,2021.1.4,359.920673483159,
images\S10_M_S_01.png,images\S10_M_S_01_scrambled.png,10,sad,-10,male,3,,178,off,1,0.5,0.75,0.5,0.853,3,177,2,1,1,0,0,0,0,3,,,,,,0,52,52,52,,,,,,,,,,,,,,,,,,,,,,,,,,,,,,,,,,,,,,,,,,,,,,,,,,,,,,,,,590.2105257000003,590.7103481000004,590.7103481000004,591.4628995000003,591.4628995000003,591.9627436000001,591.9627436000001,592.8152612000004,592.8152612000004,None,num_4,0.3414440000005925,592.8152612000004,None,happy,1,Sad,593.1679451400007,None,None,593.1679451400007,None,,,,,,,,,,,,,,,,,,,,,,,,,,,,,,,,,,,,,,,,,,,,,,,,,,,,,7,001,male,21,500,500,2022_Aug_11_1047,Experiment,2021.1.4,359.920673483159,
images\S9_F_S_01.png,images\S9_F_S_01_scrambled.png,9,sad,-10,female,3,,352,on,2,0.5,0.75,0.5,0.83,3,351,1,1,2,2,2,32,128,163,,,,,,0,53,53,53,,,,,,,,,,,,,,,,,,,,,,,,,,,,,,,,,,,,,,,,,,,,,,,,,,,,,,,,,593.2790056000003,593.7844685,593.7844685,594.5342064000006,594.5342064000006,595.0396340000007,595.0396340000007,595.8726514,595.8726514,None,num_4,0.3482310999997935,595.8726514,None,happy,1,Sad,596.2253256400002,None,None,596.2253256400002,None,,,,,,,,,,,,,,,,,,,,,,,,,,,,,,,,,,,,,,,,,,,,,,,,,,,,,7,001,male,21,500,500,2022_Aug_11_1047,Experiment,2021.1.4,359.920673483159,
images\S8_M_H_01.png,images\S8_M_H_01_scrambled.png,8,happy,10,male,4,,403,off,1,0.5,0.75,0.5,0.903,3,402,1,1,1,0,0,0,0,4,,,,,,0,54,54,54,,,,,,,,,,,,,,,,,,,,,,,,,,,,,,,,,,,,,,,,,,,,,,,,,,,,,,,,,596.3114119000002,596.8140347000008,596.8140347000008,597.5666203000001,597.5666203000001,598.0664274000001,598.0664274000001,598.9689294,598.9689294,None,num_4,0.6438748999999007,598.9689294,None,happy,1,Happy,599.6270386000006,None,None,599.6270386000006,None,,,,,,,,,,,,,,,,,,,,,,,,,,,,,,,,,,,,,,,,,,,,,,,,,,,,,7,001,male,21,500,500,2022_Aug_11_1047,Experiment,2021.1.4,359.920673483159,
images\S5_F_H_03.png,images\S5_F_H_03_scrambled.png,5,happy,30,female,6,,87,on,2,0.5,0.75,0.5,0.887,3,86,1,1,1,2,2,32,128,166,,,,,,0,55,55,55,,,,,,,,,,,,,,,,,,,,,,,,,,,,,,,,,,,,,,,,,,,,,,,,,,,,,,,,,599.7075885000004,600.2129934000004,600.2129934000004,600.9655618000006,600.9655618000006,601.4681672000006,601.4681672000006,602.3596691000002,602.3596691000002,None,num_4,0.48516899999958696,602.3596691000002,None,happy,1,Happy,602.8593948800002,None,None,602.8593948800002,None,,,,,,,,,,,,,,,,,,,,,,,,,,,,,,,,,,,,,,,,,,,,,,,,,,,,,7,001,male,21,500,500,2022_Aug_11_1047,Experiment,2021.1.4,359.920673483159,
images\S6_M_S_03.png,images\S6_M_S_03_scrambled.png,6,sad,-30,male,1,,576,on,2,0.5,0.75,0.5,0.783,3,575,2,1,1,2,2,32,128,161,,,,,,0,56,56,56,,,,,,,,,,,,,,,,,,,,,,,,,,,,,,,,,,,,,,,,,,,,,,,,,,,,,,,,,602.9066229,603.4120465000005,603.4120465000005,604.1617894000001,604.1617894000001,604.6672187000004,604.6672187000004,605.4559399,605.4559399,None,num_6,0.4767304000006334,605.4559399,None,sad,1,Sad,605.9445648800005,None,None,605.9445648800005,None,,,,,,,,,,,,,,,,,,,,,,,,,,,,,,,,,,,,,,,,,,,,,,,,,,,,,7,001,male,21,500,500,2022_Aug_11_1047,Experiment,2021.1.4,359.920673483159,
images\S2_M_H_02.png,images\S2_M_H_02_scrambled.png,2,happy,20,male,5,,368,off,1,0.5,0.75,0.5,0.775,3,367,1,1,1,0,0,0,0,5,,,,,,0,57,57,57,,,,,,,,,,,,,,,,,,,,,,,,,,,,,,,,,,,,,,,,,,,,,,,,,,,,,,,,,606.0528634000002,606.5582799000003,606.5582799000003,607.3136004000007,607.3136004000007,607.8163037000004,607.8163037000004,608.5965823000006,608.5965823000006,None,num_4,0.4883921000000555,608.5965823000006,None,happy,1,Happy,609.0991432800005,None,None,609.0991432800005,None,,,,,,,,,,,,,,,,,,,,,,,,,,,,,,,,,,,,,,,,,,,,,,,,,,,,,7,001,male,21,500,500,2022_Aug_11_1047,Experiment,2021.1.4,359.920673483159,
images\S3_F_H_01.png,images\S3_F_H_01_scrambled.png,3,happy,10,female,4,,13,off,1,0.5,0.75,0.5,0.759,3,12,2,1,1,0,0,0,0,4,,,,,,0,58,58,58,,,,,,,,,,,,,,,,,,,,,,,,,,,,,,,,,,,,,,,,,,,,,,,,,,,,,,,,,609.1852362000009,609.6878750000005,609.6878750000005,610.4404282000005,610.4404282000005,610.9402483000003,610.9402483000003,611.7012016000008,611.7012016000008,None,num_4,0.44746759999998176,611.7012016000008,None,happy,1,Happy,612.1648832000001,None,None,612.1648832000001,None,,,,,,,,,,,,,,,,,,,,,,,,,,,,,,,,,,,,,,,,,,,,,,,,,,,,,7,001,male,21,500,500,2022_Aug_11_1047,Experiment,2021.1.4,359.920673483159,
images\S1_F_H_03.png,images\S1_F_H_03_scrambled.png,1,happy,30,female,6,,183,on,2,0.5,0.75,0.5,0.781,3,182,1,1,1,2,2,32,128,166,,,,,,0,59,59,59,,,,,,,,,,,,,,,,,,,,,,,,,,,,,,,,,,,,,,,,,,,,,,,,,,,,,,,,,612.2759497000006,612.7813771000001,612.7813771000001,613.5338973000007,613.5338973000007,614.0365193000007,614.0365193000007,614.8197606000003,614.8197606000003,None,num_4,0.5371370000002571,614.8197606000003,None,happy,1,Happy,615.38059616,None,None,615.38059616,None,,,,,,,,,,,,,,,,,,,,,,,,,,,,,,,,,,,,,,,,,,,,,,,,,,,,,7,001,male,21,500,500,2022_Aug_11_1047,Experiment,2021.1.4,359.920673483159,
images\S5_F_S_03.png,images\S5_F_S_03_scrambled.png,5,sad,-30,female,1,,150,off,1,0.5,0.75,0.5,0.826,3,149,1,1,1,0,0,0,0,1,,,,,,0,60,60,60,,,,,,,,,,,,,,,,,,,,,,,,,,,,,,,,,,,,,,,,,,,,,,,,,,,,,,,,,615.4999319000008,616.0053577000008,616.0053577000008,616.7551254,616.7551254,617.2550143000008,617.2550143000008,618.0880711,618.0880711,None,num_6,0.4766743000000133,618.0880711,None,sad,1,Sad,618.5795595800004,None,None,618.5795595800004,None,,,,,,,,,,,,,,,,,,,,,,,,,,,,,,,,,,,,,,,,,,,,,,,,,,,,,7,001,male,21,500,500,2022_Aug_11_1047,Experiment,2021.1.4,359.920673483159,
images\S6_M_S_02.png,images\S6_M_S_02_scrambled.png,6,sad,-20,male,2,,215,on,2,0.5,0.75,0.5,0.844,3,214,1,1,1,2,2,32,128,162,,,,,,0,61,61,61,,,,,,,,,,,,,,,,,,,,,,,,,,,,,,,,,,,,,,,,,,,,,,,,,,,,,,,,,618.6295547,619.1322909,619.1322909,619.8847347000001,619.8847347000001,620.3874028,620.3874028,621.2371029000005,621.2371029000005,None,num_6,0.3755139999993844,621.2371029000005,None,sad,1,Sad,621.6258588800005,None,None,621.6258588800005,None,,,,,,,,,,,,,,,,,,,,,,,,,,,,,,,,,,,,,,,,,,,,,,,,,,,,,7,001,male,21,500,500,2022_Aug_11_1047,Experiment,2021.1.4,359.920673483159,
images\S7_F_S_02.png,images\S7_F_S_02_scrambled.png,7,sad,-20,female,2,,401,off,1,0.5,0.75,0.5,0.874,3,400,1,1,2,0,0,0,0,2,,,,,,0,62,62,62,,,,,,,,,,,,,,,,,,,,,,,,,,,,,,,,,,,,,,,,,,,,,,,,,,,,,,,,,621.6787200000008,622.1840376,622.1840376,622.9366972000007,622.9366972000007,623.4420912000005,623.4420912000005,624.3194683000002,624.3194683000002,None,num_6,0.3172087000002648,624.3194683000002,None,sad,1,Sad,624.6499391800002,None,None,624.6499391800002,None,,,,,,,,,,,,,,,,,,,,,,,,,,,,,,,,,,,,,,,,,,,,,,,,,,,,,7,001,male,21,500,500,2022_Aug_11_1047,Experiment,2021.1.4,359.920673483159,
images\S9_F_S_03.png,images\S9_F_S_03_scrambled.png,9,sad,-30,female,1,,294,off,1,0.5,0.75,0.5,0.85,3,293,2,1,1,0,0,0,0,1,,,,,,0,63,63,63,,,,,,,,,,,,,,,,,,,,,,,,,,,,,,,,,,,,,,,,,,,,,,,,,,,,,,,,,624.6999024000006,625.2025987000006,625.2025987000006,625.9578961000007,625.9578961000007,626.4633022000007,626.4633022000007,627.3158009000008,627.3158009000008,None,num_6,0.5128826000000117,627.3158009000008,None,sad,1,Sad,627.8433734800004,None,None,627.8433734800004,None,,,,,,,,,,,,,,,,,,,,,,,,,,,,,,,,,,,,,,,,,,,,,,,,,,,,,7,001,male,21,500,500,2022_Aug_11_1047,Experiment,2021.1.4,359.920673483159,
images\S5_F_S_01.png,images\S5_F_S_01_scrambled.png,5,sad,-10,female,3,,448,on,2,0.5,0.75,0.5,0.817,3,447,1,1,1,2,2,32,128,163,,,,,,0,64,64,64,,,,,,,,,,,,,,,,,,,,,,,,,,,,,,,,,,,,,,,,,,,,,,,,,,,,,,,,,627.8906002000003,628.3933624000001,628.3933624000001,629.1457905000007,629.1457905000007,629.6483849000006,629.6483849000006,630.4703867000007,630.4703867000007,None,num_4,0.5112133000002359,630.4703867000007,None,happy,1,Sad,630.9897535400007,None,None,630.9897535400007,None,,,,,,,,,,,,,,,,,,,,,,,,,,,,,,,,,,,,,,,,,,,,,,,,,,,,,7,001,male,21,500,500,2022_Aug_11_1047,Experiment,2021.1.4,359.920673483159,
images\S9_F_H_01.png,images\S9_F_H_01_scrambled.png,9,happy,10,female,4,,349,on,2,0.5,0.75,0.5,0.836,3,348,2,1,1,2,2,32,128,164,,,,,,0,65,65,65,,,,,,,,,,,,,,,,,,,,,,,,,,,,,,,,,,,,,,,,,,,,,,,,,,,,,,,,,631.1007558000001,631.6033371000003,631.6033371000003,632.3531031000002,632.3531031000002,632.8529996000007,632.8529996000007,633.6915825000005,633.6915825000005,None,num_4,0.5134122999997999,633.6915825000005,None,happy,1,Happy,634.2191915800007,None,None,634.2191915800007,None,,,,,,,,,,,,,,,,,,,,,,,,,,,,,,,,,,,,,,,,,,,,,,,,,,,,,7,001,male,21,500,500,2022_Aug_11_1047,Experiment,2021.1.4,359.920673483159,
images\S3_F_S_03.png,images\S3_F_S_03_scrambled.png,3,sad,-30,female,1,,498,off,1,0.5,0.75,0.5,0.798,3,497,1,1,1,0,0,0,0,1,,,,,,0,66,66,66,,,,,,,,,,,,,,,,,,,,,,,,,,,,,,,,,,,,,,,,,,,,,,,,,,,,,,,,,634.3052958000007,634.8051368000006,634.8051368000006,635.5605183000007,635.5605183000007,636.0658998000008,636.0658998000008,636.8656799,636.8656799,None,num_6,0.42725250000057713,636.8656799,None,sad,1,Sad,637.3043729800005,None,None,637.3043729800005,None,,,,,,,,,,,,,,,,,,,,,,,,,,,,,,,,,,,,,,,,,,,,,,,,,,,,,7,001,male,21,500,500,2022_Aug_11_1047,Experiment,2021.1.4,359.920673483159,
images\blank.jpg,images\blank.jpg,none,none,none,none,0,,637,on,2,0.5,0.75,0.5,0.851,0,636,1,1,1,3,3,48,192,240,,,,,,0,67,67,67,,,,,,,,,,,,,,,,,,,,,,,,,,,,,,,,,,,,,,,,,,,,,,,,,,,,,,,,,637.4073313000008,637.9125356000004,637.9125356000004,638.6651396000007,638.6651396000007,639.1705289000001,639.1705289000001,640.0229818000007,640.0229818000007,640.0229818000007,None,,640.0229818000007,None,miss,1,,643.0248887400005,None,None,643.0248887400005,None,,,,,,,,,,,,,,,,,,,,,,,,,,,,,,,,,,,,,,,,,,,,,,,,,,,,,7,001,male,21,500,500,2022_Aug_11_1047,Experiment,2021.1.4,359.920673483159,
images\S1_F_H_01.png,images\S1_F_H_01_scrambled.png,1,happy,10,female,4,,301,on,2,0.5,0.75,0.5,0.925,3,300,2,1,1,2,2,32,128,164,,,,,,0,68,68,68,,,,,,,,,,,,,,,,,,,,,,,,,,,,,,,,,,,,,,,,,,,,,,,,,,,,,,,,,643.1750730000003,643.6775337000008,643.6775337000008,644.4328461000005,644.4328461000005,644.9382286,644.9382286,645.8684688000003,645.8684688000003,None,num_4,0.58427169999959,645.8684688000003,643.1750730000003,happy,1,Happy,646.4793493599999,None,None,646.4793493599999,None,,,,,,,,,,,,,,,,,,,,,,,,,,,,,,,,,,,,,,,,,,,,,,,,,,,,,7,001,male,21,500,500,2022_Aug_11_1047,Experiment,2021.1.4,359.920673483159,
images\S4_M_H_01.png,images\S4_M_H_01_scrambled.png,4,happy,10,male,4,,199,on,2,0.5,0.75,0.5,0.893,3,198,3,1,2,2,2,32,128,164,,,,,,0,69,69,69,,,,,,,,,,,,,,,,,,,,,,,,,,,,,,,,,,,,,,,,,,,,,,,,,,,,,,,,,646.5348779000005,647.0374883000004,647.0374883000004,647.7900674000002,647.7900674000002,648.2927926000002,648.2927926000002,649.1896023000008,649.1896023000008,None,num_6,0.7110387000002447,649.1896023000008,None,sad,1,Happy,649.9060486400006,None,None,649.9060486400006,None,,,,,,,,,,,,,,,,,,,,,,,,,,,,,,,,,,,,,,,,,,,,,,,,,,,,,7,001,male,21,500,500,2022_Aug_11_1047,Experiment,2021.1.4,359.920673483159,
images\S7_F_H_01.png,images\S7_F_H_01_scrambled.png,7,happy,10,female,4,,157,off,1,0.5,0.75,0.5,0.938,3,156,1,1,3,0,0,0,0,4,,,,,,0,70,70,70,,,,,,,,,,,,,,,,,,,,,,,,,,,,,,,,,,,,,,,,,,,,,,,,,,,,,,,,,649.9560423000003,650.4586926000002,650.4586926000002,651.2112309000004,651.2112309000004,651.7139735000001,651.7139735000001,652.6552511,652.6552511,None,num_4,0.3174845000003188,652.6552511,None,happy,1,Happy,653.0023342799999,None,None,653.0023342799999,None,,,,,,,,,,,,,,,,,,,,,,,,,,,,,,,,,,,,,,,,,,,,,,,,,,,,,7,001,male,21,500,500,2022_Aug_11_1047,Experiment,2021.1.4,359.920673483159,
images\S10_M_S_02.png,images\S10_M_S_02_scrambled.png,10,sad,-20,male,2,,359,on,2,0.5,0.75,0.5,0.835,3,358,1,1,1,2,2,32,128,162,,,,,,0,71,71,71,,,,,,,,,,,,,,,,,,,,,,,,,,,,,,,,,,,,,,,,,,,,,,,,,,,,,,,,,653.1050778000008,653.6049195000005,653.6049195000005,654.3546952000006,654.3546952000006,654.8601331,654.8601331,655.6988172000001,655.6988172000001,None,num_4,0.44188279999980296,655.6988172000001,None,happy,1,Sad,656.1458040400005,None,None,656.1458040400005,None,,,,,,,,,,,,,,,,,,,,,,,,,,,,,,,,,,,,,,,,,,,,,,,,,,,,,7,001,male,21,500,500,2022_Aug_11_1047,Experiment,2021.1.4,359.920673483159,
images\S6_M_H_03.png,images\S6_M_H_03_scrambled.png,6,happy,30,male,6,,153,off,1,0.5,0.75,0.5,0.894,3,152,1,1,1,0,0,0,0,6,,,,,,0,72,72,72,,,,,,,,,,,,,,,,,,,,,,,,,,,,,,,,,,,,,,,,,,,,,,,,,,,,,,,,,656.2319359000003,656.7345720000003,656.7345720000003,657.4842832000004,657.4842832000004,657.9897251000002,657.9897251000002,658.8866145000002,658.8866145000002,None,num_4,0.27826290000029985,658.8866145000002,None,happy,1,Happy,659.1754311799999,None,None,659.1754311799999,None,,,,,,,,,,,,,,,,,,,,,,,,,,,,,,,,,,,,,,,,,,,,,,,,,,,,,7,001,male,21,500,500,2022_Aug_11_1047,Experiment,2021.1.4,359.920673483159,
images\S3_F_S_03.png,images\S3_F_S_03_scrambled.png,3,sad,-30,female,1,,138,off,1,0.5,0.75,0.5,0.855,3,137,2,1,1,0,0,0,0,1,,,,,,0,73,73,73,,,,,,,,,,,,,,,,,,,,,,,,,,,,,,,,,,,,,,,,,,,,,,,,,,,,,,,,,659.2254285000008,659.7252681,659.7252681,660.4779609000007,660.4779609000007,660.9776734000006,660.9776734000006,661.8385678000004,661.8385678000004,None,num_6,0.29413860000022396,661.8385678000004,None,sad,1,Sad,662.1605761800005,None,None,662.1605761800005,None,,,,,,,,,,,,,,,,,,,,,,,,,,,,,,,,,,,,,,,,,,,,,,,,,,,,,7,001,male,21,500,500,2022_Aug_11_1047,Experiment,2021.1.4,359.920673483159,
images\S5_F_H_03.png,images\S5_F_H_03_scrambled.png,5,happy,30,female,6,,27,off,1,0.5,0.75,0.5,0.825,3,26,3,1,1,0,0,0,0,6,,,,,,0,74,74,74,,,,,,,,,,,,,,,,,,,,,,,,,,,,,,,,,,,,,,,,,,,,,,,,,,,,,,,,,662.2161690000003,662.7188144000002,662.7188144000002,663.4741135000004,663.4741135000004,663.9795387000004,663.9795387000004,664.8071640000007,664.8071640000007,None,num_4,0.22941570000057254,664.8071640000007,None,happy,1,Happy,665.0652773799997,None,None,665.0652773799997,None,,,,,,,,,,,,,,,,,,,,,,,,,,,,,,,,,,,,,,,,,,,,,,,,,,,,,7,001,male,21,500,500,2022_Aug_11_1047,Experiment,2021.1.4,359.920673483159,
images\blank.jpg,images\blank.jpg,none,none,none,none,0,,612,on,2,0.5,0.75,0.5,0.766,0,611,1,1,1,3,3,48,192,240,,,,,,0,75,75,75,,,,,,,,,,,,,,,,,,,,,,,,,,,,,,,,,,,,,,,,,,,,,,,,,,,,,,,,,665.1543672000007,665.6567722,665.6567722,666.4065601000002,666.4065601000002,666.9092062,666.9092062,667.6784318,667.6784318,667.6784318,None,,667.6784318,None,miss,1,,670.6802411200002,None,None,670.6802411200002,None,,,,,,,,,,,,,,,,,,,,,,,,,,,,,,,,,,,,,,,,,,,,,,,,,,,,,7,001,male,21,500,500,2022_Aug_11_1047,Experiment,2021.1.4,359.920673483159,
images\S3_F_S_01.png,images\S3_F_S_01_scrambled.png,3,sad,-10,female,3,,196,on,2,0.5,0.75,0.5,0.876,3,195,2,1,1,2,2,32,128,163,,,,,,0,76,76,76,,,,,,,,,,,,,,,,,,,,,,,,,,,,,,,,,,,,,,,,,,,,,,,,,,,,,,,,,670.7971434000001,671.3022641000007,671.3022641000007,672.0549279000006,672.0549279000006,672.5546834000006,672.5546834000006,673.4349597,673.4349597,None,num_6,0.4256975999996939,673.4349597,670.7971434000001,sad,1,Sad,673.8903521000002,None,None,673.8903521000002,None,,,,,,,,,,,,,,,,,,,,,,,,,,,,,,,,,,,,,,,,,,,,,,,,,,,,,7,001,male,21,500,500,2022_Aug_11_1047,Experiment,2021.1.4,359.920673483159,
images\S2_M_S_03.png,images\S2_M_S_03_scrambled.png,2,sad,-30,male,1,,432,on,2,0.5,0.75,0.5,0.828,3,431,3,1,1,2,2,32,128,161,,,,,,0,77,77,77,,,,,,,,,,,,,,,,,,,,,,,,,,,,,,,,,,,,,,,,,,,,,,,,,,,,,,,,,674.0015208000004,674.5068526000005,674.5068526000005,675.2595040000006,675.2595040000006,675.7649016000005,675.7649016000005,676.5952226000009,676.5952226000009,None,num_6,0.39357190000009723,676.5952226000009,None,sad,1,Sad,677.0032776800002,None,None,677.0032776800002,None,,,,,,,,,,,,,,,,,,,,,,,,,,,,,,,,,,,,,,,,,,,,,,,,,,,,,7,001,male,21,500,500,2022_Aug_11_1047,Experiment,2021.1.4,359.920673483159,
images\S8_M_S_01.png,images\S8_M_S_01_scrambled.png,8,sad,-10,male,3,,406,off,1,0.5,0.75,0.5,0.848,3,405,1,1,1,0,0,0,0,3,,,,,,0,78,78,78,,,,,,,,,,,,,,,,,,,,,,,,,,,,,,,,,,,,,,,,,,,,,,,,,,,,,,,,,677.0921468000006,677.5947823000006,677.5947823000006,678.3445460000003,678.3445460000003,678.8499803000004,678.8499803000004,679.6997376000008,679.6997376000008,None,num_4,0.6008913000005123,679.6997376000008,None,happy,1,Sad,680.3106067400006,None,None,680.3106067400006,None,,,,,,,,,,,,,,,,,,,,,,,,,,,,,,,,,,,,,,,,,,,,,,,,,,,,,7,001,male,21,500,500,2022_Aug_11_1047,Experiment,2021.1.4,359.920673483159,
images\S6_M_S_01.png,images\S6_M_S_01_scrambled.png,6,sad,-10,male,3,,94,on,2,0.5,0.75,0.5,0.947,3,93,1,1,2,2,2,32,128,163,,,,,,0,79,79,79,,,,,,,,,,,,,,,,,,,,,,,,,,,,,,,,,,,,,,,,,,,,,,,,,,,,,,,,,680.3605990000005,680.8661159000003,680.8661159000003,681.6185643000008,681.6185643000008,682.1212810000006,682.1212810000006,683.0680884000003,683.0680884000003,None,num_6,0.4806847999998354,683.0680884000003,None,sad,1,Sad,683.5707649400003,None,None,683.5707649400003,None,,,,,,,,,,,,,,,,,,,,,,,,,,,,,,,,,,,,,,,,,,,,,,,,,,,,,7,001,male,21,500,500,2022_Aug_11_1047,Experiment,2021.1.4,359.920673483159,
images\S1_F_H_03.png,images\S1_F_H_03_scrambled.png,1,happy,30,female,6,,3,off,1,0.5,0.75,0.5,0.76,3,2,1,1,1,0,0,0,0,6,,,,,,0,80,80,80,,,,,,,,,,,,,,,,,,,,,,,,,,,,,,,,,,,,,,,,,,,,,,,,,,,,,,,,,683.6291398000003,684.1317714000006,684.1317714000006,684.8842193,684.8842193,685.3869643000007,685.3869643000007,686.1532816000008,686.1532816000008,None,num_4,0.2836344999996072,686.1532816000008,None,happy,1,Happy,686.4559857000004,None,None,686.4559857000004,None,,,,,,,,,,,,,,,,,,,,,,,,,,,,,,,,,,,,,,,,,,,,,,,,,,,,,7,001,male,21,500,500,2022_Aug_11_1047,Experiment,2021.1.4,359.920673483159,
images\S3_F_H_01.png,images\S3_F_H_01_scrambled.png,3,happy,10,female,4,,433,on,2,0.5,0.75,0.5,0.865,3,432,1,1,1,2,2,32,128,164,,,,,,0,81,81,81,,,,,,,,,,,,,,,,,,,,,,,,,,,,,,,,,,,,,,,,,,,,,,,,,,,,,,,,,686.5225816000002,687.0280317000006,687.0280317000006,687.7777626000006,687.7777626000006,688.2803831000001,688.2803831000001,689.1523924000003,689.1523924000003,None,num_4,0.3245387999995728,689.1523924000003,None,happy,1,Happy,689.5022780600001,None,None,689.5022780600001,None,,,,,,,,,,,,,,,,,,,,,,,,,,,,,,,,,,,,,,,,,,,,,,,,,,,,,7,001,male,21,500,500,2022_Aug_11_1047,Experiment,2021.1.4,359.920673483159,
images\S5_F_H_02.png,images\S5_F_H_02_scrambled.png,5,happy,20,female,5,,146,off,1,0.5,0.75,0.5,0.84,3,145,1,1,1,0,0,0,0,5,,,,,,0,82,82,82,,,,,,,,,,,,,,,,,,,,,,,,,,,,,,,,,,,,,,,,,,,,,,,,,,,,,,,,,689.5661047000003,690.0687573000005,690.0687573000005,690.8213912000001,690.8213912000001,691.3211395000008,691.3211395000008,692.1652934000003,692.1652934000003,None,num_4,0.3435543999994479,692.1652934000003,None,happy,1,Happy,692.5235129800006,None,None,692.5235129800006,None,,,,,,,,,,,,,,,,,,,,,,,,,,,,,,,,,,,,,,,,,,,,,,,,,,,,,7,001,male,21,500,500,2022_Aug_11_1047,Experiment,2021.1.4,359.920673483159,
images\S7_F_H_03.png,images\S7_F_H_03_scrambled.png,7,happy,30,female,6,,39,off,1,0.5,0.75,0.5,0.798,3,38,2,1,1,0,0,0,0,6,,,,,,0,83,83,83,,,,,,,,,,,,,,,,,,,,,,,,,,,,,,,,,,,,,,,,,,,,,,,,,,,,,,,,,692.6068336000008,693.1094855000001,693.1094855000001,693.8647905000007,693.8647905000007,694.3675306000005,694.3675306000005,695.1728286000007,695.1728286000007,None,num_4,0.29605200000059995,695.1728286000007,None,happy,1,Happy,695.48371068,None,None,695.48371068,None,,,,,,,,,,,,,,,,,,,,,,,,,,,,,,,,,,,,,,,,,,,,,,,,,,,,,7,001,male,21,500,500,2022_Aug_11_1047,Experiment,2021.1.4,359.920673483159,
images\S8_M_H_01.png,images\S8_M_H_01_scrambled.png,8,happy,10,male,4,,583,on,2,0.5,0.75,0.5,0.857,3,582,1,1,1,2,2,32,128,164,,,,,,0,84,84,84,,,,,,,,,,,,,,,,,,,,,,,,,,,,,,,,,,,,,,,,,,,,,,,,,,,,,,,,,695.5337087000007,696.0363219000001,696.0363219000001,696.7889209000004,696.7889209000004,697.2943978000003,697.2943978000003,698.1579155000009,698.1579155000009,None,num_4,0.46279260000028444,698.1579155000009,None,happy,1,Happy,698.6355191800006,None,None,698.6355191800006,None,,,,,,,,,,,,,,,,,,,,,,,,,,,,,,,,,,,,,,,,,,,,,,,,,,,,,7,001,male,21,500,500,2022_Aug_11_1047,Experiment,2021.1.4,359.920673483159,
images\S1_F_S_02.png,images\S1_F_S_02_scrambled.png,1,sad,-20,female,2,,485,off,1,0.5,0.75,0.5,0.819,3,484,1,1,1,0,0,0,0,2,,,,,,0,85,85,85,,,,,,,,,,,,,,,,,,,,,,,,,,,,,,,,,,,,,,,,,,,,,,,,,,,,,,,,,698.6827407000001,699.1854852000006,699.1854852000006,699.9351282000007,699.9351282000007,700.4349773000004,700.4349773000004,701.2569815000006,701.2569815000006,None,num_4,0.46794649999992544,701.2569815000006,None,happy,1,Sad,701.73735194,None,None,701.73735194,None,,,,,,,,,,,,,,,,,,,,,,,,,,,,,,,,,,,,,,,,,,,,,,,,,,,,,7,001,male,21,500,500,2022_Aug_11_1047,Experiment,2021.1.4,359.920673483159,
images\S6_M_S_02.png,images\S6_M_S_02_scrambled.png,6,sad,-20,male,2,,395,off,1,0.5,0.75,0.5,0.874,3,394,2,1,2,0,0,0,0,2,,,,,,0,86,86,86,,,,,,,,,,,,,,,,,,,,,,,,,,,,,,,,,,,,,,,,,,,,,,,,,,,,,,,,,701.7845711,702.2900052000005,702.2900052000005,703.0425637000008,703.0425637000008,703.5451646000001,703.5451646000001,704.4254517000008,704.4254517000008,None,num_6,0.37101780000011786,704.4254517000008,None,sad,1,Sad,704.8141967000001,None,None,704.8141967000001,None,,,,,,,,,,,,,,,,,,,,,,,,,,,,,,,,,,,,,,,,,,,,,,,,,,,,,7,001,male,21,500,500,2022_Aug_11_1047,Experiment,2021.1.4,359.920673483159,
images\S3_F_H_03.png,images\S3_F_H_03_scrambled.png,3,happy,30,female,6,,75,on,2,0.5,0.75,0.5,0.865,3,74,1,1,1,2,2,32,128,166,,,,,,0,87,87,87,,,,,,,,,,,,,,,,,,,,,,,,,,,,,,,,,,,,,,,,,,,,,,,,,,,,,,,,,704.8641748,705.3668105000006,705.3668105000006,706.1221270000005,706.1221270000005,706.6247841000004,706.6247841000004,707.4940046000002,707.4940046000002,None,num_4,0.7109568999994735,707.4940046000002,None,happy,1,Happy,708.2186964800006,None,None,708.2186964800006,None,,,,,,,,,,,,,,,,,,,,,,,,,,,,,,,,,,,,,,,,,,,,,,,,,,,,,7,001,male,21,500,500,2022_Aug_11_1047,Experiment,2021.1.4,359.920673483159,
images\S9_F_S_02.png,images\S9_F_S_02_scrambled.png,9,sad,-20,female,2,,593,on,2,0.5,0.75,0.5,0.773,3,592,2,1,1,2,2,32,128,162,,,,,,0,88,88,88,,,,,,,,,,,,,,,,,,,,,,,,,,,,,,,,,,,,,,,,,,,,,,,,,,,,,,,,,708.3020096,708.8046270000004,708.8046270000004,709.5544035000003,709.5544035000003,710.0570674,710.0570674,710.8345893000005,710.8345893000005,None,num_4,0.6824629999991885,710.8345893000005,None,happy,1,Sad,711.5260635600006,None,None,711.5260635600006,None,,,,,,,,,,,,,,,,,,,,,,,,,,,,,,,,,,,,,,,,,,,,,,,,,,,,,7,001,male,21,500,500,2022_Aug_11_1047,Experiment,2021.1.4,359.920673483159,
images\S2_M_H_01.png,images\S2_M_H_01_scrambled.png,2,happy,10,male,4,,187,on,2,0.5,0.75,0.5,0.927,3,186,3,1,1,2,2,32,128,164,,,,,,0,89,89,89,,,,,,,,,,,,,,,,,,,,,,,,,,,,,,,,,,,,,,,,,,,,,,,,,,,,,,,,,711.5871083000002,712.0869555000008,712.0869555000008,712.8423065000006,712.8423065000006,713.3477061000003,713.3477061000003,714.2779650000002,714.2779650000002,None,num_4,0.4145985000004657,714.2779650000002,None,happy,1,Happy,714.7028195800007,None,None,714.7028195800007,None,,,,,,,,,,,,,,,,,,,,,,,,,,,,,,,,,,,,,,,,,,,,,,,,,,,,,7,001,male,21,500,500,2022_Aug_11_1047,Experiment,2021.1.4,359.920673483159,
images\S10_M_H_01.png,images\S10_M_H_01_scrambled.png,10,happy,10,male,4,,535,off,1,0.5,0.75,0.5,0.797,3,534,1,1,2,0,0,0,0,4,,,,,,0,90,90,90,,,,,,,,,,,,,,,,,,,,,,,,,,,,,,,,,,,,,,,,,,,,,,,,,,,,,,,,,714.8138912000004,715.3165628000006,715.3165628000006,716.0690624000008,716.0690624000008,716.5717285000001,716.5717285000001,717.3714524000006,717.3714524000006,None,num_4,0.609233399999539,717.3714524000006,None,happy,1,Happy,717.9962508800003,None,None,717.9962508800003,None,,,,,,,,,,,,,,,,,,,,,,,,,,,,,,,,,,,,,,,,,,,,,,,,,,,,,7,001,male,21,500,500,2022_Aug_11_1047,Experiment,2021.1.4,359.920673483159,
images\blank.jpg,images\blank.jpg,none,none,none,none,0,,602,on,2,0.5,0.75,0.5,0.843,0,601,1,1,1,3,3,48,192,240,,,,,,0,91,91,91,,,,,,,,,,,,,,,,,,,,,,,,,,,,,,,,,,,,,,,,,,,,,,,,,,,,,,,,,718.0798097000006,718.5821902000007,718.5821902000007,719.3319570000003,719.3319570000003,719.8345933,719.8345933,720.6843653000005,720.6843653000005,720.6843653000005,None,,720.6843653000005,None,miss,1,,723.6834024200003,None,None,723.6834024200003,None,,,,,,,,,,,,,,,,,,,,,,,,,,,,,,,,,,,,,,,,,,,,,,,,,,,,,7,001,male,21,500,500,2022_Aug_11_1047,Experiment,2021.1.4,359.920673483159,
images\S8_M_S_02.png,images\S8_M_S_02_scrambled.png,8,sad,-20,male,2,,467,on,2,0.5,0.75,0.5,0.86,3,466,2,1,1,2,2,32,128,162,,,,,,0,92,92,92,,,,,,,,,,,,,,,,,,,,,,,,,,,,,,,,,,,,,,,,,,,,,,,,,,,,,,,,,723.8003487000005,724.3054383000008,724.3054383000008,725.0580631000003,725.0580631000003,725.5634311000003,725.5634311000003,726.4298032000006,726.4298032000006,None,num_6,0.5588387999996485,726.4298032000006,723.8003487000005,sad,1,Sad,726.9990631800005,None,None,726.9990631800005,None,,,,,,,,,,,,,,,,,,,,,,,,,,,,,,,,,,,,,,,,,,,,,,,,,,,,,7,001,male,21,500,500,2022_Aug_11_1047,Experiment,2021.1.4,359.920673483159,
images\S10_M_S_03.png,images\S10_M_S_03_scrambled.png,10,sad,-30,male,1,,240,on,2,0.5,0.75,0.5,0.772,3,239,3,1,1,2,2,32,128,161,,,,,,0,93,93,93,,,,,,,,,,,,,,,,,,,,,,,,,,,,,,,,,,,,,,,,,,,,,,,,,,,,,,,,,727.0823503000001,727.5850154,727.5850154,728.3375625000008,728.3375625000008,728.8401444000001,728.8401444000001,729.6149155000003,729.6149155000003,None,num_6,0.5897234000003664,729.6149155000003,None,sad,1,Sad,730.2314094799998,None,None,730.2314094799998,None,,,,,,,,,,,,,,,,,,,,,,,,,,,,,,,,,,,,,,,,,,,,,,,,,,,,,7,001,male,21,500,500,2022_Aug_11_1047,Experiment,2021.1.4,359.920673483159,
images\S9_F_H_02.png,images\S9_F_H_02_scrambled.png,9,happy,20,female,5,,590,on,2,0.5,0.75,0.5,0.923,3,589,4,1,1,2,2,32,128,165,,,,,,0,94,94,94,,,,,,,,,,,,,,,,,,,,,,,,,,,,,,,,,,,,,,,,,,,,,,,,,,,,,,,,,730.3424640000003,730.8451649000008,730.8451649000008,731.5948783000003,731.5948783000003,732.1003050000008,732.1003050000008,733.0277523000004,733.0277523000004,None,num_4,0.4011375999998563,733.0277523000004,None,happy,1,Happy,733.44150458,None,None,733.44150458,None,,,,,,,,,,,,,,,,,,,,,,,,,,,,,,,,,,,,,,,,,,,,,,,,,,,,,7,001,male,21,500,500,2022_Aug_11_1047,Experiment,2021.1.4,359.920673483159,
images\S6_M_H_03.png,images\S6_M_H_03_scrambled.png,6,happy,30,male,6,,213,on,2,0.5,0.75,0.5,0.896,3,212,5,1,1,2,2,32,128,166,,,,,,0,95,95,95,,,,,,,,,,,,,,,,,,,,,,,,,,,,,,,,,,,,,,,,,,,,,,,,,,,,,,,,,733.4887193000004,733.9941350000008,733.9941350000008,734.7494572000005,734.7494572000005,735.2521932000009,735.2521932000009,736.1517974000008,736.1517974000008,None,num_6,0.4689433999992616,736.1517974000008,None,sad,1,Happy,736.62940284,None,None,736.62940284,None,,,,,,,,,,,,,,,,,,,,,,,,,,,,,,,,,,,,,,,,,,,,,,,,,,,,,7,001,male,21,500,500,2022_Aug_11_1047,Experiment,2021.1.4,359.920673483159,
images\S3_F_H_02.png,images\S3_F_H_02_scrambled.png,3,happy,20,female,5,,74,on,2,0.5,0.75,0.5,0.754,3,73,6,1,1,2,2,32,128,165,,,,,,0,96,96,96,,,,,,,,,,,,,,,,,,,,,,,,,,,,,,,,,,,,,,,,,,,,,,,,,,,,,,,,,736.7127316000006,737.2154625000003,737.2154625000003,737.9707357000007,737.9707357000007,738.4761884000009,738.4761884000009,739.2369872000008,739.2369872000008,None,num_4,0.40761899999961315,739.2369872000008,None,happy,1,Happy,739.6618042999999,None,None,739.6618042999999,None,,,,,,,,,,,,,,,,,,,,,,,,,,,,,,,,,,,,,,,,,,,,,,,,,,,,,7,001,male,21,500,500,2022_Aug_11_1047,Experiment,2021.1.4,359.920673483159,
images\S10_M_H_01.png,images\S10_M_H_01_scrambled.png,10,happy,10,male,4,,175,off,1,0.5,0.75,0.5,0.916,3,174,1,1,1,0,0,0,0,4,,,,,,0,97,97,97,,,,,,,,,,,,,,,,,,,,,,,,,,,,,,,,,,,,,,,,,,,,,,,,,,,,,,,,,739.7118932000003,740.2172649000004,740.2172649000004,740.9725826000004,740.9725826000004,741.4751565000006,741.4751565000006,742.3943089000004,742.3943089000004,None,num_4,0.4665739999991274,742.3943089000004,None,happy,1,Happy,742.8747090800001,None,None,742.8747090800001,None,,,,,,,,,,,,,,,,,,,,,,,,,,,,,,,,,,,,,,,,,,,,,,,,,,,,,7,001,male,21,500,500,2022_Aug_11_1047,Experiment,2021.1.4,359.920673483159,
images\S9_F_H_01.png,images\S9_F_H_01_scrambled.png,9,happy,10,female,4,,469,on,2,0.5,0.75,0.5,0.817,3,468,1,1,2,2,2,32,128,164,,,,,,0,98,98,98,,,,,,,,,,,,,,,,,,,,,,,,,,,,,,,,,,,,,,,,,,,,,,,,,,,,,,,,,742.9219277000002,743.4245927000002,743.4245927000002,744.1743276000007,744.1743276000007,744.6797754000008,744.6797754000008,745.4989319000006,745.4989319000006,None,num_4,0.674039300000004,745.4989319000006,None,happy,1,Happy,746.1875921800005,None,None,746.1875921800005,None,,,,,,,,,,,,,,,,,,,,,,,,,,,,,,,,,,,,,,,,,,,,,,,,,,,,,7,001,male,21,500,500,2022_Aug_11_1047,Experiment,2021.1.4,359.920673483159,
images\blank.jpg,images\blank.jpg,none,none,none,none,0,,642,on,2,0.5,0.75,0.5,0.919,0,641,2,1,1,3,3,48,192,240,,,,,,0,99,99,99,,,,,,,,,,,,,,,,,,,,,,,,,,,,,,,,,,,,,,,,,,,,,,,,,,,,,,,,,746.2739598000007,746.7791025000006,746.7791025000006,747.5316406000002,747.5316406000002,748.0371224,748.0371224,748.9590408000004,748.9590408000004,748.9590408000004,None,,748.9590408000004,None,miss,1,,751.9636624400002,None,None,751.9636624400002,None,,,,,,,,,,,,,,,,,,,,,,,,,,,,,,,,,,,,,,,,,,,,,,,,,,,,,7,001,male,21,500,500,2022_Aug_11_1047,Experiment,2021.1.4,359.920673483159,
images\S4_M_H_03.png,images\S4_M_H_03_scrambled.png,4,happy,30,male,6,,321,on,2,0.5,0.75,0.5,0.95,3,320,3,1,1,2,2,32,128,166,,,,,,0,100,100,100,,,,,,,,,,,,,,,,,,,,,,,,,,,,,,,,,,,,,,,,,,,,,,,,,,,,,,,,,752.1305334000008,752.6356378,752.6356378,753.3909504000003,753.3909504000003,753.8935861,753.8935861,754.8432620000003,754.8432620000003,None,num_4,0.31355530000018916,754.8432620000003,752.1305334000008,happy,1,Happy,755.1792874600004,None,None,755.1792874600004,None,,,,,,,,,,,,,,,,,,,,,,,,,,,,,,,,,,,,,,,,,,,,,,,,,,,,,7,001,male,21,500,500,2022_Aug_11_1047,Experiment,2021.1.4,359.920673483159,
images\S1_F_S_03.png,images\S1_F_S_03_scrambled.png,1,sad,-30,female,1,,66,on,2,0.5,0.75,0.5,0.802,3,65,4,1,1,2,2,32,128,161,,,,,,0,101,101,101,,,,,,,,,,,,,,,,,,,,,,,,,,,,,,,,,,,,,,,,,,,,,,,,,,,,,,,,,755.2875800000002,755.7930990000004,755.7930990000004,756.5455468,756.5455468,757.0482759000006,757.0482759000006,757.8535871000004,757.8535871000004,None,num_6,0.2711835999998584,757.8535871000004,None,sad,1,Sad,758.1394602800004,None,None,758.1394602800004,None,,,,,,,,,,,,,,,,,,,,,,,,,,,,,,,,,,,,,,,,,,,,,,,,,,,,,7,001,male,21,500,500,2022_Aug_11_1047,Experiment,2021.1.4,359.920673483159,
images\S4_M_H_01.png,images\S4_M_H_01_scrambled.png,4,happy,10,male,4,,439,on,2,0.5,0.75,0.5,0.913,3,438,5,1,1,2,2,32,128,164,,,,,,0,102,102,102,,,,,,,,,,,,,,,,,,,,,,,,,,,,,,,,,,,,,,,,,,,,,,,,,,,,,,,,,758.1867338000002,758.6894367000004,758.6894367000004,759.4418826000001,759.4418826000001,759.9472715000002,759.9472715000002,760.8608641000001,760.8608641000001,None,num_6,0.2726323999995657,760.8608641000001,None,sad,1,Happy,761.1470589600002,None,None,761.1470589600002,None,,,,,,,,,,,,,,,,,,,,,,,,,,,,,,,,,,,,,,,,,,,,,,,,,,,,,7,001,male,21,500,500,2022_Aug_11_1047,Experiment,2021.1.4,359.920673483159,
images\S5_F_H_02.png,images\S5_F_H_02_scrambled.png,5,happy,20,female,5,,506,off,1,0.5,0.75,0.5,0.899,3,505,1,1,1,0,0,0,0,5,,,,,,0,103,103,103,,,,,,,,,,,,,,,,,,,,,,,,,,,,,,,,,,,,,,,,,,,,,,,,,,,,,,,,,761.2163900000005,761.7190548000008,761.7190548000008,762.4687413000001,762.4687413000001,762.9685831000006,762.9685831000006,763.8710884000002,763.8710884000002,None,num_4,0.28593760000057955,763.8710884000002,None,happy,1,Happy,764.1848268600005,None,None,764.1848268600005,None,,,,,,,,,,,,,,,,,,,,,,,,,,,,,,,,,,,,,,,,,,,,,,,,,,,,,7,001,male,21,500,500,2022_Aug_11_1047,Experiment,2021.1.4,359.920673483159,
images\S6_M_H_01.png,images\S6_M_H_01_scrambled.png,6,happy,10,male,4,,271,off,1,0.5,0.75,0.5,0.947,3,270,2,1,1,0,0,0,0,4,,,,,,0,104,104,104,,,,,,,,,,,,,,,,,,,,,,,,,,,,,,,,,,,,,,,,,,,,,,,,,,,,,,,,,764.2376015,764.7402812,764.7402812,765.4900127000001,765.4900127000001,765.9898088,765.9898088,766.9396890000007,766.9396890000007,None,num_4,0.6890833000006751,766.9396890000007,None,happy,1,Happy,767.6421128800006,None,None,767.6421128800006,None,,,,,,,,,,,,,,,,,,,,,,,,,,,,,,,,,,,,,,,,,,,,,,,,,,,,,7,001,male,21,500,500,2022_Aug_11_1047,Experiment,2021.1.4,359.920673483159,
images\S10_M_H_03.png,images\S10_M_H_03_scrambled.png,10,happy,30,male,6,,237,on,2,0.5,0.75,0.5,0.804,3,236,1,1,1,2,2,32,128,166,,,,,,0,105,105,105,,,,,,,,,,,,,,,,,,,,,,,,,,,,,,,,,,,,,,,,,,,,,,,,,,,,,,,,,767.6920997000007,768.1947017000002,768.1947017000002,768.9500608000008,768.9500608000008,769.4526766000008,769.4526766000008,770.2635835000001,770.2635835000001,None,num_4,0.4372576999994635,770.2635835000001,None,happy,1,Happy,770.7301762599999,None,None,770.7301762599999,None,,,,,,,,,,,,,,,,,,,,,,,,,,,,,,,,,,,,,,,,,,,,,,,,,,,,,7,001,male,21,500,500,2022_Aug_11_1047,Experiment,2021.1.4,359.920673483159,
images\S2_M_H_02.png,images\S2_M_H_02_scrambled.png,2,happy,20,male,5,,128,off,1,0.5,0.75,0.5,0.928,3,127,1,1,1,0,0,0,0,5,,,,,,0,106,106,106,,,,,,,,,,,,,,,,,,,,,,,,,,,,,,,,,,,,,,,,,,,,,,,,,,,,,,,,,770.7855884,771.2882252000009,771.2882252000009,772.0407633000004,772.0407633000004,772.5434838000001,772.5434838000001,773.4736538000006,773.4736538000006,None,num_4,0.2511079999994763,773.4736538000006,None,happy,1,Happy,773.7402826000007,None,None,773.7402826000007,None,,,,,,,,,,,,,,,,,,,,,,,,,,,,,,,,,,,,,,,,,,,,,,,,,,,,,7,001,male,21,500,500,2022_Aug_11_1047,Experiment,2021.1.4,359.920673483159,
images\blank.jpg,images\blank.jpg,none,none,none,none,0,,620,on,2,0.5,0.75,0.5,0.873,0,619,1,1,1,3,3,48,192,240,,,,,,0,107,107,107,,,,,,,,,,,,,,,,,,,,,,,,,,,,,,,,,,,,,,,,,,,,,,,,,,,,,,,,,773.8293257000005,774.3289574,774.3289574,775.0787184000001,775.0787184000001,775.5841565000001,775.5841565000001,776.4615996000002,776.4615996000002,776.4615996000002,None,,776.4615996000002,None,miss,1,,779.4607193200005,None,None,779.4607193200005,None,,,,,,,,,,,,,,,,,,,,,,,,,,,,,,,,,,,,,,,,,,,,,,,,,,,,,7,001,male,21,500,500,2022_Aug_11_1047,Experiment,2021.1.4,359.920673483159,
images\S6_M_S_01.png,images\S6_M_S_01_scrambled.png,6,sad,-10,male,3,,214,on,2,0.5,0.75,0.5,0.949,3,213,2,1,1,2,2,32,128,163,,,,,,0,108,108,108,,,,,,,,,,,,,,,,,,,,,,,,,,,,,,,,,,,,,,,,,,,,,,,,,,,,,,,,,779.5776133000008,780.0799745000004,780.0799745000004,780.8297459000005,780.8297459000005,781.3323455,781.3323455,782.2848387000004,782.2848387000004,None,num_6,0.3518748999995296,782.2848387000004,779.5776133000008,sad,1,Sad,782.6541852,None,None,782.6541852,None,,,,,,,,,,,,,,,,,,,,,,,,,,,,,,,,,,,,,,,,,,,,,,,,,,,,,7,001,male,21,500,500,2022_Aug_11_1047,Experiment,2021.1.4,359.920673483159,
images\S7_F_H_01.png,images\S7_F_H_01_scrambled.png,7,happy,10,female,4,,517,off,1,0.5,0.75,0.5,0.846,3,516,1,1,1,0,0,0,0,4,,,,,,0,109,109,109,,,,,,,,,,,,,,,,,,,,,,,,,,,,,,,,,,,,,,,,,,,,,,,,,,,,,,,,,782.7096460000002,783.2095714000006,783.2095714000006,783.9593481000002,783.9593481000002,784.4648616000004,784.4648616000004,785.3145762000004,785.3145762000004,None,num_6,0.4669702999999572,785.3145762000004,None,sad,1,Happy,785.7894473600007,None,None,785.7894473600007,None,,,,,,,,,,,,,,,,,,,,,,,,,,,,,,,,,,,,,,,,,,,,,,,,,,,,,7,001,male,21,500,500,2022_Aug_11_1047,Experiment,2021.1.4,359.920673483159,
images\S1_F_S_03.png,images\S1_F_S_03_scrambled.png,1,sad,-30,female,1,,486,off,1,0.5,0.75,0.5,0.875,3,485,2,1,1,0,0,0,0,1,,,,,,0,110,110,110,,,,,,,,,,,,,,,,,,,,,,,,,,,,,,,,,,,,,,,,,,,,,,,,,,,,,,,,,785.8559663000005,786.3585824000002,786.3585824000002,787.1111613000003,787.1111613000003,787.6138867000009,787.6138867000009,788.494068,788.494068,None,num_6,0.29471710000052553,788.494068,None,sad,1,Sad,788.8078410400005,None,None,788.8078410400005,None,,,,,,,,,,,,,,,,,,,,,,,,,,,,,,,,,,,,,,,,,,,,,,,,,,,,,7,001,male,21,500,500,2022_Aug_11_1047,Experiment,2021.1.4,359.920673483159,
images\S7_F_S_02.png,images\S7_F_S_02_scrambled.png,7,sad,-20,female,2,,521,off,1,0.5,0.75,0.5,0.814,3,520,3,1,1,0,0,0,0,2,,,,,,0,111,111,111,,,,,,,,,,,,,,,,,,,,,,,,,,,,,,,,,,,,,,,,,,,,,,,,,,,,,,,,,788.8633705000002,789.3660035000003,789.3660035000003,790.1185873000004,790.1185873000004,790.6240819000004,790.6240819000004,791.4403701000001,791.4403701000001,None,num_6,0.3961562000004051,791.4403701000001,None,sad,1,Sad,791.8541123000005,None,None,791.8541123000005,None,,,,,,,,,,,,,,,,,,,,,,,,,,,,,,,,,,,,,,,,,,,,,,,,,,,,,7,001,male,21,500,500,2022_Aug_11_1047,Experiment,2021.1.4,359.920673483159,
images\S7_F_S_01.png,images\S7_F_S_01_scrambled.png,7,sad,-10,female,3,,340,on,2,0.5,0.75,0.5,0.923,3,339,1,2,1,2,2,32,128,163,,,,,,0,112,112,112,,,,,,,,,,,,,,,,,,,,,,,,,,,,,,,,,,,,,,,,,,,,,,,,,,,,,,,,,791.9013206000009,792.4039778000006,792.4039778000006,793.1537199000004,793.1537199000004,793.6592565000001,793.6592565000001,794.5866067000006,794.5866067000006,None,num_6,0.3539847000001828,794.5866067000006,None,sad,1,Sad,794.9559276800004,None,None,794.9559276800004,None,,,,,,,,,,,,,,,,,,,,,,,,,,,,,,,,,,,,,,,,,,,,,,,,,,,,,7,001,male,21,500,500,2022_Aug_11_1047,Experiment,2021.1.4,359.920673483159,
images\S8_M_S_03.png,images\S8_M_S_03_scrambled.png,8,sad,-30,male,1,,228,on,2,0.5,0.75,0.5,0.751,3,227,2,1,1,2,2,32,128,161,,,,,,0,113,113,113,,,,,,,,,,,,,,,,,,,,,,,,,,,,,,,,,,,,,,,,,,,,,,,,,,,,,,,,,795.0392571000002,795.5418760000002,795.5418760000002,796.2944261000002,796.2944261000002,796.7942837,796.7942837,797.5496327000001,797.5496327000001,None,num_6,0.4551578000000518,797.5496327000001,None,sad,1,Sad,798.0244862400007,None,None,798.0244862400007,None,,,,,,,,,,,,,,,,,,,,,,,,,,,,,,,,,,,,,,,,,,,,,,,,,,,,,7,001,male,21,500,500,2022_Aug_11_1047,Experiment,2021.1.4,359.920673483159,
images\S4_M_H_03.png,images\S4_M_H_03_scrambled.png,4,happy,30,male,6,,141,off,1,0.5,0.75,0.5,0.905,3,140,1,1,1,0,0,0,0,6,,,,,,0,114,114,114,,,,,,,,,,,,,,,,,,,,,,,,,,,,,,,,,,,,,,,,,,,,,,,,,,,,,,,,,798.0772079000008,798.5770543000008,798.5770543000008,799.3268325000008,799.3268325000008,799.8294805000005,799.8294805000005,800.7347283000008,800.7347283000008,None,num_4,0.26181010000073,800.7347283000008,None,happy,1,Happy,801.0096521000005,None,None,801.0096521000005,None,,,,,,,,,,,,,,,,,,,,,,,,,,,,,,,,,,,,,,,,,,,,,,,,,,,,,7,001,male,21,500,500,2022_Aug_11_1047,Experiment,2021.1.4,359.920673483159,
images\S3_F_S_03.png,images\S3_F_S_03_scrambled.png,3,sad,-30,female,1,,78,on,2,0.5,0.75,0.5,0.878,3,77,1,1,1,2,2,32,128,161,,,,,,0,115,115,115,,,,,,,,,,,,,,,,,,,,,,,,,,,,,,,,,,,,,,,,,,,,,,,,,,,,,,,,,801.0596247000003,801.5622813,801.5622813,802.3175999000005,802.3175999000005,802.8203316000008,802.8203316000008,803.7004926000009,803.7004926000009,None,num_6,0.29649090000020806,803.7004926000009,None,sad,1,Sad,804.0198828600004,None,None,804.0198828600004,None,,,,,,,,,,,,,,,,,,,,,,,,,,,,,,,,,,,,,,,,,,,,,,,,,,,,,7,001,male,21,500,500,2022_Aug_11_1047,Experiment,2021.1.4,359.920673483159,
images\S8_M_H_03.png,images\S8_M_H_03_scrambled.png,8,happy,30,male,6,,405,off,1,0.5,0.75,0.5,0.788,3,404,1,1,1,0,0,0,0,6,,,,,,0,116,116,116,,,,,,,,,,,,,,,,,,,,,,,,,,,,,,,,,,,,,,,,,,,,,,,,,,,,,,,,,804.1031355000005,804.6085498000002,804.6085498000002,805.3583079,805.3583079,805.8610655000002,805.8610655000002,806.6524141,806.6524141,None,num_4,0.24907809999967867,806.6524141,None,happy,1,Happy,806.9301996799999,None,None,806.9301996799999,None,,,,,,,,,,,,,,,,,,,,,,,,,,,,,,,,,,,,,,,,,,,,,,,,,,,,,7,001,male,21,500,500,2022_Aug_11_1047,Experiment,2021.1.4,359.920673483159,
images\S4_M_S_01.png,images\S4_M_S_01_scrambled.png,4,sad,-10,male,3,,322,on,2,0.5,0.75,0.5,0.862,3,321,1,1,1,2,2,32,128,163,,,,,,0,117,117,117,,,,,,,,,,,,,,,,,,,,,,,,,,,,,,,,,,,,,,,,,,,,,,,,,,,,,,,,,806.9828066,807.4882476000002,807.4882476000002,808.2408836000004,808.2408836000004,808.7434050000002,808.7434050000002,809.6125932000004,809.6125932000004,None,num_6,0.2960327999999208,809.6125932000004,None,sad,1,Sad,809.9235535800002,None,None,809.9235535800002,None,,,,,,,,,,,,,,,,,,,,,,,,,,,,,,,,,,,,,,,,,,,,,,,,,,,,,7,001,male,21,500,500,2022_Aug_11_1047,Experiment,2021.1.4,359.920673483159,
images\S3_F_H_02.png,images\S3_F_H_02_scrambled.png,3,happy,20,female,5,,314,on,2,0.5,0.75,0.5,0.864,3,313,2,1,1,2,2,32,128,165,,,,,,0,118,118,118,,,,,,,,,,,,,,,,,,,,,,,,,,,,,,,,,,,,,,,,,,,,,,,,,,,,,,,,,809.9707770000005,810.4733945000007,810.4733945000007,811.2231628000009,811.2231628000009,811.7259206000008,811.7259206000008,812.5921862000005,812.5921862000005,None,num_4,0.4604730999999447,812.5921862000005,None,happy,1,Happy,813.06425738,None,None,813.06425738,None,,,,,,,,,,,,,,,,,,,,,,,,,,,,,,,,,,,,,,,,,,,,,,,,,,,,,7,001,male,21,500,500,2022_Aug_11_1047,Experiment,2021.1.4,359.920673483159,
images\S9_F_S_02.png,images\S9_F_S_02_scrambled.png,9,sad,-20,female,2,,473,on,2,0.5,0.75,0.5,0.932,3,472,3,1,1,2,2,32,128,162,,,,,,0,119,119,119,,,,,,,,,,,,,,,,,,,,,,,,,,,,,,,,,,,,,,,,,,,,,,,,,,,,,,,,,813.1114788000004,813.6113209000005,813.6113209000005,814.3639250000006,814.3639250000006,814.8665496000003,814.8665496000003,815.8023508000006,815.8023508000006,None,num_4,0.2984678000002532,815.8023508000006,None,happy,1,Sad,816.1050646400001,None,None,816.1050646400001,None,,,,,,,,,,,,,,,,,,,,,,,,,,,,,,,,,,,,,,,,,,,,,,,,,,,,,7,001,male,21,500,500,2022_Aug_11_1047,Experiment,2021.1.4,359.920673483159,
images\S6_M_H_02.png,images\S6_M_H_02_scrambled.png,6,happy,20,male,5,,92,on,2,0.5,0.75,0.5,0.808,3,91,4,1,1,2,2,32,128,165,,,,,,0,120,120,120,,,,,,,,,,,,,,,,,,,,,,,,,,,,,,,,,,,,,,,,,,,,,,,,,,,,,,,,,816.1716454000007,816.6715021,816.6715021,817.4241002000008,817.4241002000008,817.9239425000005,817.9239425000005,818.7375614000002,818.7375614000002,None,num_4,0.30758739999964746,818.7375614000002,None,happy,1,Happy,819.0652627200003,None,None,819.0652627200003,None,,,,,,,,,,,,,,,,,,,,,,,,,,,,,,,,,,,,,,,,,,,,,,,,,,,,,7,001,male,21,500,500,2022_Aug_11_1047,Experiment,2021.1.4,359.920673483159,
images\S10_M_H_03.png,images\S10_M_H_03_scrambled.png,10,happy,30,male,6,,177,off,1,0.5,0.75,0.5,0.833,3,176,1,1,1,0,0,0,0,6,,,,,,0,121,121,121,,,,,,,,,,,,,,,,,,,,,,,,,,,,,,,,,,,,,,,,,,,,,,,,,,,,,,,,,819.1151884000001,819.6150318,819.6150318,820.3704633000007,820.3704633000007,820.8758856000004,820.8758856000004,821.7116699000007,821.7116699000007,None,num_4,0.26125620000038907,821.7116699000007,None,happy,1,Happy,821.98934402,None,None,821.98934402,None,,,,,,,,,,,,,,,,,,,,,,,,,,,,,,,,,,,,,,,,,,,,,,,,,,,,,7,001,male,21,500,500,2022_Aug_11_1047,Experiment,2021.1.4,359.920673483159,
images\S4_M_S_02.png,images\S4_M_S_02_scrambled.png,4,sad,-20,male,2,,23,off,1,0.5,0.75,0.5,0.753,3,22,2,1,1,0,0,0,0,2,,,,,,0,122,122,122,,,,,,,,,,,,,,,,,,,,,,,,,,,,,,,,,,,,,,,,,,,,,,,,,,,,,,,,,822.0420728000008,822.5474946000004,822.5474946000004,823.2972269000002,823.2972269000002,823.8000011000004,823.8000011000004,824.5553020000007,824.5553020000007,None,num_6,0.2571826000003057,824.5553020000007,None,sad,1,Sad,824.82728308,None,None,824.82728308,None,,,,,,,,,,,,,,,,,,,,,,,,,,,,,,,,,,,,,,,,,,,,,,,,,,,,,7,001,male,21,500,500,2022_Aug_11_1047,Experiment,2021.1.4,359.920673483159,
images\S9_F_H_03.png,images\S9_F_H_03_scrambled.png,9,happy,30,female,6,,411,off,1,0.5,0.75,0.5,0.891,3,410,3,1,1,0,0,0,0,6,,,,,,0,123,123,123,,,,,,,,,,,,,,,,,,,,,,,,,,,,,,,,,,,,,,,,,,,,,,,,,,,,,,,,,824.8773065000005,825.3827251000002,825.3827251000002,826.1353787000007,826.1353787000007,826.6351271000003,826.6351271000003,827.5293316000007,827.5293316000007,None,num_4,0.1474075999994966,827.5293316000007,None,happy,1,Happy,827.6959164,None,None,827.6959164,None,,,,,,,,,,,,,,,,,,,,,,,,,,,,,,,,,,,,,,,,,,,,,,,,,,,,,7,001,male,21,500,500,2022_Aug_11_1047,Experiment,2021.1.4,359.920673483159,
images\S1_F_S_02.png,images\S1_F_S_02_scrambled.png,1,sad,-20,female,2,,545,on,2,0.5,0.75,0.5,0.863,3,544,1,1,1,2,2,32,128,162,,,,,,0,124,124,124,,,,,,,,,,,,,,,,,,,,,,,,,,,,,,,,,,,,,,,,,,,,,,,,,,,,,,,,,827.7458742000008,828.2513227000009,828.2513227000009,829.0066379,829.0066379,829.5120384000002,829.5120384000002,830.3812270000008,830.3812270000008,None,num_4,0.30332480000015494,830.3812270000008,None,happy,1,Sad,830.6949596400002,None,None,830.6949596400002,None,,,,,,,,,,,,,,,,,,,,,,,,,,,,,,,,,,,,,,,,,,,,,,,,,,,,,7,001,male,21,500,500,2022_Aug_11_1047,Experiment,2021.1.4,359.920673483159,
images\S1_F_S_03.png,images\S1_F_S_03_scrambled.png,1,sad,-30,female,1,,186,on,2,0.5,0.75,0.5,0.882,3,185,2,2,1,2,2,32,128,161,,,,,,0,125,125,125,,,,,,,,,,,,,,,,,,,,,,,,,,,,,,,,,,,,,,,,,,,,,,,,,,,,,,,,,830.7478275000003,831.2531538000003,831.2531538000003,832.0084593000001,832.0084593000001,832.5083224,832.5083224,833.3969513000002,833.3969513000002,None,num_4,0.3115404000000126,833.3969513000002,None,happy,1,Sad,833.7134995400004,None,None,833.7134995400004,None,,,,,,,,,,,,,,,,,,,,,,,,,,,,,,,,,,,,,,,,,,,,,,,,,,,,,7,001,male,21,500,500,2022_Aug_11_1047,Experiment,2021.1.4,359.920673483159,
images\S7_F_H_03.png,images\S7_F_H_03_scrambled.png,7,happy,30,female,6,,279,off,1,0.5,0.75,0.5,0.945,3,278,1,1,1,0,0,0,0,6,,,,,,0,126,126,126,,,,,,,,,,,,,,,,,,,,,,,,,,,,,,,,,,,,,,,,,,,,,,,,,,,,,,,,,833.7606912000001,834.2634336000001,834.2634336000001,835.0187752000002,835.0187752000002,835.5241211000002,835.5241211000002,836.4738650000008,836.4738650000008,None,num_4,0.15496359999997367,836.4738650000008,None,happy,1,Happy,836.6487170999999,None,None,836.6487170999999,None,,,,,,,,,,,,,,,,,,,,,,,,,,,,,,,,,,,,,,,,,,,,,,,,,,,,,7,001,male,21,500,500,2022_Aug_11_1047,Experiment,2021.1.4,359.920673483159,
images\S3_F_S_02.png,images\S3_F_S_02_scrambled.png,3,sad,-20,female,2,,77,on,2,0.5,0.75,0.5,0.781,3,76,1,1,1,2,2,32,128,162,,,,,,0,127,127,127,,,,,,,,,,,,,,,,,,,,,,,,,,,,,,,,,,,,,,,,,,,,,,,,,,,,,,,,,836.7597734000001,837.2623862,837.2623862,838.0121614,838.0121614,838.5148247000006,838.5148247000006,839.3006847000006,839.3006847000006,None,num_6,0.3360825999998269,839.3006847000006,None,sad,1,Sad,839.6644794600005,None,None,839.6644794600005,None,,,,,,,,,,,,,,,,,,,,,,,,,,,,,,,,,,,,,,,,,,,,,,,,,,,,,7,001,male,21,500,500,2022_Aug_11_1047,Experiment,2021.1.4,359.920673483159,
images\S3_F_H_01.png,images\S3_F_H_01_scrambled.png,3,happy,10,female,4,,313,on,2,0.5,0.75,0.5,0.757,3,312,2,2,1,2,2,32,128,164,,,,,,0,128,128,128,,,,,,,,,,,,,,,,,,,,,,,,,,,,,,,,,,,,,,,,,,,,,,,,,,,,,,,,,839.7171921000008,840.2198578000007,840.2198578000007,840.9751686000009,840.9751686000009,841.4779062000007,841.4779062000007,842.2387684000005,842.2387684000005,None,num_6,0.42231290000017907,842.2387684000005,None,sad,1,Happy,842.6691520600006,None,None,842.6691520600006,None,,,,,,,,,,,,,,,,,,,,,,,,,,,,,,,,,,,,,,,,,,,,,,,,,,,,,7,001,male,21,500,500,2022_Aug_11_1047,Experiment,2021.1.4,359.920673483159,
images\S8_M_H_03.png,images\S8_M_H_03_scrambled.png,8,happy,30,male,6,,345,on,2,0.5,0.75,0.5,0.787,3,344,3,1,1,2,2,32,128,166,,,,,,0,129,129,129,,,,,,,,,,,,,,,,,,,,,,,,,,,,,,,,,,,,,,,,,,,,,,,,,,,,,,,,,842.7301594,843.2355833000001,843.2355833000001,843.9853218000007,843.9853218000007,844.4880835000004,844.4880835000004,845.2794345000002,845.2794345000002,None,num_4,0.24539000000004307,845.2794345000002,None,happy,1,Happy,845.5432952399999,None,None,845.5432952399999,None,,,,,,,,,,,,,,,,,,,,,,,,,,,,,,,,,,,,,,,,,,,,,,,,,,,,,7,001,male,21,500,500,2022_Aug_11_1047,Experiment,2021.1.4,359.920673483159,
images\blank.jpg,images\blank.jpg,none,none,none,none,0,,641,on,2,0.5,0.75,0.5,0.903,0,640,4,1,1,3,3,48,192,240,,,,,,0,130,130,130,,,,,,,,,,,,,,,,,,,,,,,,,,,,,,,,,,,,,,,,,,,,,,,,,,,,,,,,,845.6294729000001,846.1347235000003,846.1347235000003,846.8844443000007,846.8844443000007,847.3870732000005,847.3870732000005,848.2923725,848.2923725,848.2923725,None,,848.2923725,None,miss,1,,851.2997507,None,space,851.2997507,None,87.19235919999937,,,,,,,,,,,,,,,,,,,,,,,,,,,,,,,,,,,,,,,,,,,,,,,,,,,,7,001,male,21,500,500,2022_Aug_11_1047,Experiment,2021.1.4,359.920673483159,
images\S5_F_H_02.png,images\S5_F_H_02_scrambled.png,5,happy,20,female,5,,206,on,2,0.5,0.75,0.5,0.786,3,205,5,1,1,2,2,32,128,165,,,,,,0,131,131,131,,,,,,,,,,,,,,,,,,,,,,,,,,,,,,,,,,,,,,,,,,,,,,,,,,,,,,,,,938.6149102000008,939.1172359000002,939.1172359000002,939.8697806,939.8697806,940.3752183000006,940.3752183000006,941.1666190000005,941.1666190000005,None,num_4,0.2860499999997046,941.1666190000005,None,happy,1,Happy,941.4748726200002,None,None,941.4748726200002,None,,,,,,,,,,,,,,,,,,,,,,,,,,,,,,,,,,,,,,,,,,,,,,,,,,,,,7,001,male,21,500,500,2022_Aug_11_1047,Experiment,2021.1.4,359.920673483159,
images\S4_M_H_03.png,images\S4_M_H_03_scrambled.png,4,happy,30,male,6,,381,off,1,0.5,0.75,0.5,0.757,3,380,1,1,1,0,0,0,0,6,,,,,,0,132,132,132,,,,,,,,,,,,,,,,,,,,,,,,,,,,,,,,,,,,,,,,,,,,,,,,,,,,,,,,,941.5248105000001,942.0302775,942.0302775,942.7827643,942.7827643,943.2853769000003,943.2853769000003,944.0491305000005,944.0491305000005,None,num_4,0.4273579000000609,944.0491305000005,None,happy,1,Happy,944.4961269000005,None,None,944.4961269000005,None,,,,,,,,,,,,,,,,,,,,,,,,,,,,,,,,,,,,,,,,,,,,,,,,,,,,,7,001,male,21,500,500,2022_Aug_11_1047,Experiment,2021.1.4,359.920673483159,
images\S3_F_S_02.png,images\S3_F_S_02_scrambled.png,3,sad,-20,female,2,,197,on,2,0.5,0.75,0.5,0.913,3,196,1,1,1,2,2,32,128,162,,,,,,0,133,133,133,,,,,,,,,,,,,,,,,,,,,,,,,,,,,,,,,,,,,,,,,,,,,,,,,,,,,,,,,944.5433270000003,945.0459527000003,945.0459527000003,945.7957482000002,945.7957482000002,946.3011615000005,946.3011615000005,947.2203363000008,947.2203363000008,None,num_6,0.4648047000000588,947.2203363000008,None,sad,1,Sad,947.7091074600002,None,None,947.7091074600002,None,,,,,,,,,,,,,,,,,,,,,,,,,,,,,,,,,,,,,,,,,,,,,,,,,,,,,7,001,male,21,500,500,2022_Aug_11_1047,Experiment,2021.1.4,359.920673483159,
images\S5_F_S_01.png,images\S5_F_S_01_scrambled.png,5,sad,-10,female,3,,148,off,1,0.5,0.75,0.5,0.823,3,147,1,1,1,0,0,0,0,3,,,,,,0,134,134,134,,,,,,,,,,,,,,,,,,,,,,,,,,,,,,,,,,,,,,,,,,,,,,,,,,,,,,,,,947.7617824000008,948.2645402000007,948.2645402000007,949.0198822000002,949.0198822000002,949.5223517000004,949.5223517000004,950.3499761000003,950.3499761000003,None,num_4,0.23858740000014222,950.3499761000003,None,happy,1,Sad,950.5970293400007,None,None,950.5970293400007,None,,,,,,,,,,,,,,,,,,,,,,,,,,,,,,,,,,,,,,,,,,,,,,,,,,,,,7,001,male,21,500,500,2022_Aug_11_1047,Experiment,2021.1.4,359.920673483159,
images\S6_M_H_01.png,images\S6_M_H_01_scrambled.png,6,happy,10,male,4,,451,on,2,0.5,0.75,0.5,0.823,3,450,1,1,1,2,2,32,128,164,,,,,,0,135,135,135,,,,,,,,,,,,,,,,,,,,,,,,,,,,,,,,,,,,,,,,,,,,,,,,,,,,,,,,,950.6442344000006,951.1468758000001,951.1468758000001,951.8994250000005,951.8994250000005,952.4048913000006,952.4048913000006,953.2323198000004,953.2323198000004,None,num_4,0.32415860000037355,953.2323198000004,None,happy,1,Happy,953.5710582800006,None,None,953.5710582800006,None,,,,,,,,,,,,,,,,,,,,,,,,,,,,,,,,,,,,,,,,,,,,,,,,,,,,,7,001,male,21,500,500,2022_Aug_11_1047,Experiment,2021.1.4,359.920673483159,
images\S10_M_H_03.png,images\S10_M_H_03_scrambled.png,10,happy,30,male,6,,597,on,2,0.5,0.75,0.5,0.855,3,596,2,1,1,2,2,32,128,166,,,,,,0,136,136,136,,,,,,,,,,,,,,,,,,,,,,,,,,,,,,,,,,,,,,,,,,,,,,,,,,,,,,,,,953.6350039000008,954.1404378000007,954.1404378000007,954.8957445000005,954.8957445000005,955.3955804000007,955.3955804000007,956.2536139000003,956.2536139000003,None,num_4,0.24733670000023267,956.2536139000003,None,happy,1,Happy,956.5286178599998,None,None,956.5286178599998,None,,,,,,,,,,,,,,,,,,,,,,,,,,,,,,,,,,,,,,,,,,,,,,,,,,,,,7,001,male,21,500,500,2022_Aug_11_1047,Experiment,2021.1.4,359.920673483159,
images\blank.jpg,images\blank.jpg,none,none,none,none,0,,631,on,2,0.5,0.75,0.5,0.946,0,630,3,1,1,3,3,48,192,240,,,,,,0,137,137,137,,,,,,,,,,,,,,,,,,,,,,,,,,,,,,,,,,,,,,,,,,,,,,,,,,,,,,,,,956.6176973000001,957.1201392000003,957.1201392000003,957.8698024000005,957.8698024000005,958.3724246000002,958.3724246000002,959.3221760000006,959.3221760000006,959.3221760000006,None,,959.3221760000006,None,miss,1,,962.3211876200008,None,None,962.3211876200008,None,,,,,,,,,,,,,,,,,,,,,,,,,,,,,,,,,,,,,,,,,,,,,,,,,,,,,7,001,male,21,500,500,2022_Aug_11_1047,Experiment,2021.1.4,359.920673483159,
images\S9_F_S_03.png,images\S9_F_S_03_scrambled.png,9,sad,-30,female,1,,234,on,2,0.5,0.75,0.5,0.822,3,233,4,1,1,2,2,32,128,161,,,,,,0,138,138,138,,,,,,,,,,,,,,,,,,,,,,,,,,,,,,,,,,,,,,,,,,,,,,,,,,,,,,,,,962.4380157000005,962.9404605,962.9404605,963.695823,963.695823,964.1984101000007,964.1984101000007,965.0231564000005,965.0231564000005,None,num_6,0.301942300000519,965.0231564000005,962.4380157000005,sad,1,Sad,965.3425897200001,None,None,965.3425897200001,None,,,,,,,,,,,,,,,,,,,,,,,,,,,,,,,,,,,,,,,,,,,,,,,,,,,,,7,001,male,21,500,500,2022_Aug_11_1047,Experiment,2021.1.4,359.920673483159,
images\S7_F_S_02.png,images\S7_F_S_02_scrambled.png,7,sad,-20,female,2,,161,off,1,0.5,0.75,0.5,0.93,3,160,1,1,1,0,0,0,0,2,,,,,,0,139,139,139,,,,,,,,,,,,,,,,,,,,,,,,,,,,,,,,,,,,,,,,,,,,,,,,,,,,,,,,,965.3952577,965.9006959000008,965.9006959000008,966.6560065000003,966.6560065000003,967.1586431000005,967.1586431000005,968.0973119,968.0973119,None,num_6,0.2114348000004611,968.0973119,None,sad,1,Sad,968.3249199000002,None,None,968.3249199000002,None,,,,,,,,,,,,,,,,,,,,,,,,,,,,,,,,,,,,,,,,,,,,,,,,,,,,,7,001,male,21,500,500,2022_Aug_11_1047,Experiment,2021.1.4,359.920673483159,
images\S9_F_S_01.png,images\S9_F_S_01_scrambled.png,9,sad,-10,female,3,,172,off,1,0.5,0.75,0.5,0.777,3,171,2,1,1,0,0,0,0,3,,,,,,0,140,140,140,,,,,,,,,,,,,,,,,,,,,,,,,,,,,,,,,,,,,,,,,,,,,,,,,,,,,,,,,968.3721329,968.8748845,968.8748845,969.6245393000008,969.6245393000008,970.1300101000006,970.1300101000006,970.9102869000008,970.9102869000008,None,num_6,0.4864809000000605,970.9102869000008,None,sad,1,Sad,971.4100753800006,None,None,971.4100753800006,None,,,,,,,,,,,,,,,,,,,,,,,,,,,,,,,,,,,,,,,,,,,,,,,,,,,,,7,001,male,21,500,500,2022_Aug_11_1047,Experiment,2021.1.4,359.920673483159,
