image_face,image_scram,avatar,emo,emotion,sex,trigeeg,dac,trial_no,NMES,stimtime,baseline,iti,face,scr_face,resp_time,index,count_NMES,count_avatar,count_emotion,dac1,dac2,dac1_output,dac2_output,trigs_out,nmes,practice_trials.thisRepN,practice_trials.thisTrialN,practice_trials.thisN,practice_trials.thisIndex,real_trials.thisRepN,real_trials.thisTrialN,real_trials.thisN,real_trials.thisIndex,trials.thisRepN,trials.thisTrialN,trials.thisN,trials.thisIndex,position,Welcome.started,Welcome.stopped,Welcome_resp.keys,Welcome_resp.rt,text_2.started,text_2.stopped,form_2.index,form_2.itemText,form_2.type,form_2.response,form_2.rt,key_resp_4.keys,key_resp_4.rt,key_resp_4.started,key_resp_4.stopped,instructions.started,instructions.stopped,end_instr.keys,end_instr.rt,instructions_2.started,instructions_2.stopped,end_instr_2.keys,end_instr_2.rt,end_instr_2.started,end_instr_2.stopped,instruct_keypress.started,instruct_keypress.stopped,end_instruct_keypress.keys,end_instruct_keypress.rt,start_practice.started,start_practice.stopped,start_practice_resp.keys,start_practice_resp.rt,prac_baseline.started,prac_baseline.stopped,prac_iti.started,prac_iti.stopped,prac_stimulus.started,prac_stimulus.stopped,prac_scram_stim.started,prac_scram_stim.stopped,prac_stimulus_resp.started,prac_stimulus_resp.stopped,prac_resp.keys,prac_resp.rt,prac_resp.started,prac_resp.stopped,transition_to_real.started,transition_to_real.stopped,end_transition_to_real.keys,end_transition_to_real.rt,fixation_cross.started,fixation_cross.stopped,tr_iti.started,tr_iti.stopped,stimulus.started,stimulus.stopped,scram_stim.started,scram_stim.stopped,response_txt.started,response_txt.stopped,response.keys,response.rt,response.started,response.stopped,participant_Resp,grouping,corAnswer,break_msg.started,break_msg.stopped,end_break.keys,end_break.started,end_break.stopped,end_break.rt,text.started,text.stopped,key_resp_3.keys,key_resp_3.rt,key_resp_3.started,key_resp_3.stopped,fix_cross_comf.started,fix_cross_comf.stopped,stimulation_comf.started,stimulation_comf.stopped,rate_instr.started,rate_instr.stopped,comfort_rating.response,comfort_rating.rt,comfort_rating.started,comfort_rating.stopped,resp_form.keys,resp_form.rt,resp_form.started,resp_form.stopped,survey_instructions.started,survey_instructions.stopped,key_resp_2.keys,key_resp_2.rt,key_resp_2.started,key_resp_2.stopped,form.index,form.itemText,form.type,form.response,form.rt,key_resp.keys,key_resp.rt,key_resp.started,key_resp.stopped,text_3.started,text_3.stopped,rate_smile.response,rate_smile.rt,rate_smile.started,rate_smile.stopped,key_resp_5.keys,key_resp_5.rt,key_resp_5.started,key_resp_5.stopped,end_msg.started,end_msg.stopped,end_resp.keys,end_resp.rt,end_resp.started,end_resp.stopped,participant,session,gender,age,LEFT,RIGHT,date,expName,psychopyVersion,frameRate,
,,,,,,,,,,,,,,,,,,,,,,,,,,,,,,,,,,,,,,S-H,39.80628269999943,None,num_add,3.3984270000000834,,,,,,,,,,,,,,,,,,,,,,,,,,,,,,,,,,,,,,,,,,,,,,,,,,,,,,,,,,,,,,,,,,,,,,,,,,,,,,,,,,,,,,,,,,,,,,,,,,,,,,,,,,,,,,,,,,,,,,,,,,8,001,male,26,350,450,2022_Aug_31_1112,Experiment,2021.1.4,359.93362824293325,
,,,,,,,,,,,,,,,,,,,,,,,,,,,,,,,,,,,,,,,,,,,43.21281159999944,45.24274869999954,1,"This scale consistes of a number of words that describe different feelings and emotion. Read each item and then list the number from the scale below each word. Indicate (by clicking) to what extend you feel this way RIGHT NOW, that is, AT THE PRESENT MOMENT.",description,,,,,,,,,,,,,,,,,,,,,,,,,,,,,,,,,,,,,,,,,,,,,,,,,,,,,,,,,,,,,,,,,,,,,,,,,,,,,,,,,,,,,,,,,,,,,,,,,,,,,,,,,,,,,,,,,,,,,8,001,male,26,350,450,2022_Aug_31_1112,Experiment,2021.1.4,359.93362824293325,
,,,,,,,,,,,,,,,,,,,,,,,,,,,,,,,,,,,,,,,,,,,,,2,Interested,rating,4.0,12.681567200000245,,,,,,,,,,,,,,,,,,,,,,,,,,,,,,,,,,,,,,,,,,,,,,,,,,,,,,,,,,,,,,,,,,,,,,,,,,,,,,,,,,,,,,,,,,,,,,,,,,,,,,,,,,,,,,,,,,,8,001,male,26,350,450,2022_Aug_31_1112,Experiment,2021.1.4,359.93362824293325,
,,,,,,,,,,,,,,,,,,,,,,,,,,,,,,,,,,,,,,,,,,,,,3,Distressed,rating,1.0,16.360989300000256,,,,,,,,,,,,,,,,,,,,,,,,,,,,,,,,,,,,,,,,,,,,,,,,,,,,,,,,,,,,,,,,,,,,,,,,,,,,,,,,,,,,,,,,,,,,,,,,,,,,,,,,,,,,,,,,,,,8,001,male,26,350,450,2022_Aug_31_1112,Experiment,2021.1.4,359.93362824293325,
,,,,,,,,,,,,,,,,,,,,,,,,,,,,,,,,,,,,,,,,,,,,,4,Excited,rating,4.0,18.606200700000045,,,,,,,,,,,,,,,,,,,,,,,,,,,,,,,,,,,,,,,,,,,,,,,,,,,,,,,,,,,,,,,,,,,,,,,,,,,,,,,,,,,,,,,,,,,,,,,,,,,,,,,,,,,,,,,,,,,8,001,male,26,350,450,2022_Aug_31_1112,Experiment,2021.1.4,359.93362824293325,
,,,,,,,,,,,,,,,,,,,,,,,,,,,,,,,,,,,,,,,,,,,,,5,Upset,rating,1.0,24.083748199999718,,,,,,,,,,,,,,,,,,,,,,,,,,,,,,,,,,,,,,,,,,,,,,,,,,,,,,,,,,,,,,,,,,,,,,,,,,,,,,,,,,,,,,,,,,,,,,,,,,,,,,,,,,,,,,,,,,,8,001,male,26,350,450,2022_Aug_31_1112,Experiment,2021.1.4,359.93362824293325,
,,,,,,,,,,,,,,,,,,,,,,,,,,,,,,,,,,,,,,,,,,,,,6,Strong,rating,4.0,25.83892569999989,,,,,,,,,,,,,,,,,,,,,,,,,,,,,,,,,,,,,,,,,,,,,,,,,,,,,,,,,,,,,,,,,,,,,,,,,,,,,,,,,,,,,,,,,,,,,,,,,,,,,,,,,,,,,,,,,,,8,001,male,26,350,450,2022_Aug_31_1112,Experiment,2021.1.4,359.93362824293325,
,,,,,,,,,,,,,,,,,,,,,,,,,,,,,,,,,,,,,,,,,,,,,7,Guilty,rating,2.0,12.992189999999937,,,,,,,,,,,,,,,,,,,,,,,,,,,,,,,,,,,,,,,,,,,,,,,,,,,,,,,,,,,,,,,,,,,,,,,,,,,,,,,,,,,,,,,,,,,,,,,,,,,,,,,,,,,,,,,,,,,8,001,male,26,350,450,2022_Aug_31_1112,Experiment,2021.1.4,359.93362824293325,
,,,,,,,,,,,,,,,,,,,,,,,,,,,,,,,,,,,,,,,,,,,,,8,Scared,rating,1.0,17.348035699999855,,,,,,,,,,,,,,,,,,,,,,,,,,,,,,,,,,,,,,,,,,,,,,,,,,,,,,,,,,,,,,,,,,,,,,,,,,,,,,,,,,,,,,,,,,,,,,,,,,,,,,,,,,,,,,,,,,,8,001,male,26,350,450,2022_Aug_31_1112,Experiment,2021.1.4,359.93362824293325,
,,,,,,,,,,,,,,,,,,,,,,,,,,,,,,,,,,,,,,,,,,,,,9,Hostile,rating,1.0,20.089416800000436,,,,,,,,,,,,,,,,,,,,,,,,,,,,,,,,,,,,,,,,,,,,,,,,,,,,,,,,,,,,,,,,,,,,,,,,,,,,,,,,,,,,,,,,,,,,,,,,,,,,,,,,,,,,,,,,,,,8,001,male,26,350,450,2022_Aug_31_1112,Experiment,2021.1.4,359.93362824293325,
,,,,,,,,,,,,,,,,,,,,,,,,,,,,,,,,,,,,,,,,,,,,,10,Enthusiastic,rating,3.0,17.14574939999966,,,,,,,,,,,,,,,,,,,,,,,,,,,,,,,,,,,,,,,,,,,,,,,,,,,,,,,,,,,,,,,,,,,,,,,,,,,,,,,,,,,,,,,,,,,,,,,,,,,,,,,,,,,,,,,,,,,8,001,male,26,350,450,2022_Aug_31_1112,Experiment,2021.1.4,359.93362824293325,
,,,,,,,,,,,,,,,,,,,,,,,,,,,,,,,,,,,,,,,,,,,,,11,Proud,rating,3.0,12.602049299999635,,,,,,,,,,,,,,,,,,,,,,,,,,,,,,,,,,,,,,,,,,,,,,,,,,,,,,,,,,,,,,,,,,,,,,,,,,,,,,,,,,,,,,,,,,,,,,,,,,,,,,,,,,,,,,,,,,,8,001,male,26,350,450,2022_Aug_31_1112,Experiment,2021.1.4,359.93362824293325,
,,,,,,,,,,,,,,,,,,,,,,,,,,,,,,,,,,,,,,,,,,,,,12,Irritable,rating,1.0,11.903213099999448,,,,,,,,,,,,,,,,,,,,,,,,,,,,,,,,,,,,,,,,,,,,,,,,,,,,,,,,,,,,,,,,,,,,,,,,,,,,,,,,,,,,,,,,,,,,,,,,,,,,,,,,,,,,,,,,,,,8,001,male,26,350,450,2022_Aug_31_1112,Experiment,2021.1.4,359.93362824293325,
,,,,,,,,,,,,,,,,,,,,,,,,,,,,,,,,,,,,,,,,,,,,,13,Alert,rating,4.0,8.78465210000013,,,,,,,,,,,,,,,,,,,,,,,,,,,,,,,,,,,,,,,,,,,,,,,,,,,,,,,,,,,,,,,,,,,,,,,,,,,,,,,,,,,,,,,,,,,,,,,,,,,,,,,,,,,,,,,,,,,8,001,male,26,350,450,2022_Aug_31_1112,Experiment,2021.1.4,359.93362824293325,
,,,,,,,,,,,,,,,,,,,,,,,,,,,,,,,,,,,,,,,,,,,,,14,Ashamed,rating,1.0,8.638659399999597,,,,,,,,,,,,,,,,,,,,,,,,,,,,,,,,,,,,,,,,,,,,,,,,,,,,,,,,,,,,,,,,,,,,,,,,,,,,,,,,,,,,,,,,,,,,,,,,,,,,,,,,,,,,,,,,,,,8,001,male,26,350,450,2022_Aug_31_1112,Experiment,2021.1.4,359.93362824293325,
,,,,,,,,,,,,,,,,,,,,,,,,,,,,,,,,,,,,,,,,,,,,,15,Inspired,rating,3.0,6.738334300000133,,,,,,,,,,,,,,,,,,,,,,,,,,,,,,,,,,,,,,,,,,,,,,,,,,,,,,,,,,,,,,,,,,,,,,,,,,,,,,,,,,,,,,,,,,,,,,,,,,,,,,,,,,,,,,,,,,,8,001,male,26,350,450,2022_Aug_31_1112,Experiment,2021.1.4,359.93362824293325,
,,,,,,,,,,,,,,,,,,,,,,,,,,,,,,,,,,,,,,,,,,,,,16,Nervous,rating,1.0,8.392719000000398,,,,,,,,,,,,,,,,,,,,,,,,,,,,,,,,,,,,,,,,,,,,,,,,,,,,,,,,,,,,,,,,,,,,,,,,,,,,,,,,,,,,,,,,,,,,,,,,,,,,,,,,,,,,,,,,,,,8,001,male,26,350,450,2022_Aug_31_1112,Experiment,2021.1.4,359.93362824293325,
,,,,,,,,,,,,,,,,,,,,,,,,,,,,,,,,,,,,,,,,,,,,,17,Determined,rating,4.0,8.464975200000481,,,,,,,,,,,,,,,,,,,,,,,,,,,,,,,,,,,,,,,,,,,,,,,,,,,,,,,,,,,,,,,,,,,,,,,,,,,,,,,,,,,,,,,,,,,,,,,,,,,,,,,,,,,,,,,,,,,8,001,male,26,350,450,2022_Aug_31_1112,Experiment,2021.1.4,359.93362824293325,
,,,,,,,,,,,,,,,,,,,,,,,,,,,,,,,,,,,,,,,,,,,,,18,Attentive,rating,4.0,8.6884842999998,,,,,,,,,,,,,,,,,,,,,,,,,,,,,,,,,,,,,,,,,,,,,,,,,,,,,,,,,,,,,,,,,,,,,,,,,,,,,,,,,,,,,,,,,,,,,,,,,,,,,,,,,,,,,,,,,,,8,001,male,26,350,450,2022_Aug_31_1112,Experiment,2021.1.4,359.93362824293325,
,,,,,,,,,,,,,,,,,,,,,,,,,,,,,,,,,,,,,,,,,,,,,19,Jittery,rating,1.0,8.87439809999978,,,,,,,,,,,,,,,,,,,,,,,,,,,,,,,,,,,,,,,,,,,,,,,,,,,,,,,,,,,,,,,,,,,,,,,,,,,,,,,,,,,,,,,,,,,,,,,,,,,,,,,,,,,,,,,,,,,8,001,male,26,350,450,2022_Aug_31_1112,Experiment,2021.1.4,359.93362824293325,
,,,,,,,,,,,,,,,,,,,,,,,,,,,,,,,,,,,,,,,,,,,,,20,Active,rating,4.0,6.163254899999629,,,,,,,,,,,,,,,,,,,,,,,,,,,,,,,,,,,,,,,,,,,,,,,,,,,,,,,,,,,,,,,,,,,,,,,,,,,,,,,,,,,,,,,,,,,,,,,,,,,,,,,,,,,,,,,,,,,8,001,male,26,350,450,2022_Aug_31_1112,Experiment,2021.1.4,359.93362824293325,
,,,,,,,,,,,,,,,,,,,,,,,,,,,,,,,,,,,,,,,,,,,,,21,Afraid,rating,1.0,5.996203899999273,,,,,,,,,,,,,,,,,,,,,,,,,,,,,,,,,,,,,,,,,,,,,,,,,,,,,,,,,,,,,,,,,,,,,,,,,,,,,,,,,,,,,,,,,,,,,,,,,,,,,,,,,,,,,,,,,,,8,001,male,26,350,450,2022_Aug_31_1112,Experiment,2021.1.4,359.93362824293325,
,,,,,,,,,,,,,,,,,,,,,,,,,,,,,,,,,,,,,,,,,,,,,22,Press the + button to submit your answers,description,,,,,,,,,,,,,,,,,,,,,,,,,,,,,,,,,,,,,,,,,,,,,,,,,,,,,,,,,,,,,,,,,,,,,,,,,,,,,,,,,,,,,,,,,,,,,,,,,,,,,,,,,,,,,,,,,,,,,8,001,male,26,350,450,2022_Aug_31_1112,Experiment,2021.1.4,359.93362824293325,
,,,,,,,,,,,,,,,,,,,,,,,,,,,,,,,,,,,,,,,,,,,,,,,,,,num_add,63.855525699999816,53.23750239999936,None,,,,,,,,,,,,,,,,,,,,,,,,,,,,,,,,,,,,,,,,,,,,,,,,,,,,,,,,,,,,,,,,,,,,,,,,,,,,,,,,,,,,,,,,,,,,,,,,,,,,,,,,,,,,,,,8,001,male,26,350,450,2022_Aug_31_1112,Experiment,2021.1.4,359.93362824293325,
,,,,,,,,,,,,,,,,,,,,,,,,,,,,,,,,,,,,,,,,,,,,,,,,,,,,,,117.1596058999994,None,num_add,12.25317350000023,,,,,,,,,,,,,,,,,,,,,,,,,,,,,,,,,,,,,,,,,,,,,,,,,,,,,,,,,,,,,,,,,,,,,,,,,,,,,,,,,,,,,,,,,,,,,,,,,,,,,,,,,,,8,001,male,26,350,450,2022_Aug_31_1112,Experiment,2021.1.4,359.93362824293325,
,,,,,,,,,,,,,,,,,,,,,,,,,,,,,,,,,,,,,,,,,,,,,,,,,,,,,,,,,,129.42245769999954,None,num_add,11.166391400000066,129.42245769999954,None,,,,,,,,,,,,,,,,,,,,,,,,,,,,,,,,,,,,,,,,,,,,,,,,,,,,,,,,,,,,,,,,,,,,,,,,,,,,,,,,,,,,,,,,,,,,,,,,,,,,,8,001,male,26,350,450,2022_Aug_31_1112,Experiment,2021.1.4,359.93362824293325,
,,,,,,,,,,,,,,,,,,,,,,,,,,,,,,,,,,,,,,,,,,,,,,,,,,,,,,,,,,,,,,,,140.61069489999954,None,num_add,21.234271100000115,,,,,,,,,,,,,,,,,,,,,,,,,,,,,,,,,,,,,,,,,,,,,,,,,,,,,,,,,,,,,,,,,,,,,,,,,,,,,,,,,,,,,,,,,,,,,,,,,8,001,male,26,350,450,2022_Aug_31_1112,Experiment,2021.1.4,359.93362824293325,
,,,,,,,,,,,,,,,,,,,,,,,,,,,,,,,,,,,,,,,,,,,,,,,,,,,,,,,,,,,,,,,,,,,,161.85695570000007,None,space,27.363674000000174,,,,,,,,,,,,,,,,,,,,,,,,,,,,,,,,,,,,,,,,,,,,,,,,,,,,,,,,,,,,,,,,,,,,,,,,,,,,,,,,,,,,,,,,,,,,,8,001,male,26,350,450,2022_Aug_31_1112,Experiment,2021.1.4,359.93362824293325,
images\S22_M_S_01.png,images\S22_M_S_01_scrambled.png,22,Sad,0.1,M,0,0,practice,on,2,0.5,0.75,0.5,0.867,3,,,,,,,,,,,0,0,0,5,,,,,,,,,,,,,,,,,,,,,,,,,,,,,,,,,,,,,,,,,,,189.39013859999977,189.89560399999937,189.89560399999937,190.64533539999957,190.64533539999957,191.1507617999996,191.1507617999996,192.01994589999958,192.01994589999958,None,num_4,2.3930829999999332,192.01994589999958,None,,,,,,,,,,,,,,,,,,,,,,,,,,,,,,,,,,,,,,,,,,,,,,,,,,,,,,,,,,,,,,,,,,,,,,,,,,,,,,,8,001,male,26,350,450,2022_Aug_31_1112,Experiment,2021.1.4,359.93362824293325,
images\S22_M_S_03.png,images\S22_M_S_03_scrambled.png,22,Sad,0.3,M,0,0,practice,on,2,0.5,0.75,0.5,0.87,3,,,,,,,,,,,0,1,1,4,,,,,,,,,,,,,,,,,,,,,,,,,,,,,,,,,,,,,,,,,,,194.5080379000001,195.01347179999993,195.01347179999993,195.76320179999948,195.76320179999948,196.26581929999975,196.26581929999975,197.1378382999992,197.1378382999992,None,num_6,0.07500429999981861,197.1378382999992,None,,,,,,,,,,,,,,,,,,,,,,,,,,,,,,,,,,,,,,,,,,,,,,,,,,,,,,,,,,,,,,,,,,,,,,,,,,,,,,,8,001,male,26,350,450,2022_Aug_31_1112,Experiment,2021.1.4,359.93362824293325,
images\S22_M_H_02.png,images\S22_M_H_02_scrambled.png,22,Happy,-0.2,M,0,0,practice,off,1,0.5,0.75,0.5,0.883,3,,,,,,,,,,,0,2,2,2,,,,,,,,,,,,,,,,,,,,,,,,,,,,,,,,,,,,,,,,,,,197.32938560000002,197.83203759999924,197.83203759999924,198.5845773000001,198.5845773000001,199.08729839999978,199.08729839999978,199.97307889999956,199.97307889999956,None,num_6,2.2316767000002073,199.97307889999956,None,,,,,,,,,,,,,,,,,,,,,,,,,,,,,,,,,,,,,,,,,,,,,,,,,,,,,,,,,,,,,,,,,,,,,,,,,,,,,,,8,001,male,26,350,450,2022_Aug_31_1112,Experiment,2021.1.4,359.93362824293325,
images\S22_M_S_03.png,images\S22_M_S_03_scrambled.png,22,Sad,0.3,M,0,0,practice,on,2,0.5,0.75,0.5,0.794,3,,,,,,,,,,,0,3,3,7,,,,,,,,,,,,,,,,,,,,,,,,,,,,,,,,,,,,,,,,,,,202.25843579999946,202.76384959999996,202.76384959999996,203.51649759999964,203.51649759999964,204.02183679999962,204.02183679999962,204.81877089999944,204.81877089999944,None,num_6,0.9619627000001856,204.81877089999944,None,,,,,,,,,,,,,,,,,,,,,,,,,,,,,,,,,,,,,,,,,,,,,,,,,,,,,,,,,,,,,,,,,,,,,,,,,,,,,,,8,001,male,26,350,450,2022_Aug_31_1112,Experiment,2021.1.4,359.93362824293325,
images\S22_M_S_02.png,images\S22_M_S_02_scrambled.png,22,Sad,0.2,M,0,0,practice,on,2,0.5,0.75,0.5,0.783,3,,,,,,,,,,,0,4,4,6,,,,,,,,,,,,,,,,,,,,,,,,,,,,,,,,,,,,,,,,,,,205.8684747999996,206.3738319999993,206.3738319999993,207.1291814999995,207.1291814999995,207.62899469999957,207.62899469999957,208.41767889999937,208.41767889999937,None,num_6,0.17924310000034893,208.41767889999937,None,,,,,,,,,,,,,,,,,,,,,,,,,,,,,,,,,,,,,,,,,,,,,,,,,,,,,,,,,,,,,,,,,,,,,,,,,,,,,,,8,001,male,26,350,450,2022_Aug_31_1112,Experiment,2021.1.4,359.93362824293325,
images\S21_F_H_02.png,images\S21_F_H_02_scrambled.png,21,Happy,-0.2,F,0,0,practice,off,1,0.5,0.75,0.5,0.91,3,,,,,,,,,,,0,5,5,1,,,,,,,,,,,,,,,,,,,,,,,,,,,,,,,,,,,,,,,,,,,208.7203340999995,209.22296430000006,209.22296430000006,209.97276019999936,209.97276019999936,210.47536109999965,210.47536109999965,211.38899259999926,211.38899259999926,None,num_6,0.7277703999998266,211.38899259999926,None,,,,,,,,,,,,,,,,,,,,,,,,,,,,,,,,,,,,,,,,,,,,,,,,,,,,,,,,,,,,,,,,,,,,,,,,,,,,,,,8,001,male,26,350,450,2022_Aug_31_1112,Experiment,2021.1.4,359.93362824293325,
images\S21_F_H_01.png,images\S21_F_H_01_scrambled.png,21,Happy,-0.1,F,0,0,practice,off,1,0.5,0.75,0.5,0.853,3,,,,,,,,,,,0,6,6,0,,,,,,,,,,,,,,,,,,,,,,,,,,,,,,,,,,,,,,,,,,,212.20536989999982,212.7052221999993,212.7052221999993,213.45776999999998,213.45776999999998,213.96043089999966,213.96043089999966,214.81860049999977,214.81860049999977,None,num_6,0.17811410000012984,214.81860049999977,None,,,,,,,,,,,,,,,,,,,,,,,,,,,,,,,,,,,,,,,,,,,,,,,,,,,,,,,,,,,,,,,,,,,,,,,,,,,,,,,8,001,male,26,350,450,2022_Aug_31_1112,Experiment,2021.1.4,359.93362824293325,
images\S22_M_S_02.png,images\S22_M_S_02_scrambled.png,22,Sad,0.2,M,0,0,practice,off,1,0.5,0.75,0.5,0.751,3,,,,,,,,,,,0,7,7,3,,,,,,,,,,,,,,,,,,,,,,,,,,,,,,,,,,,,,,,,,,,215.05184979999922,215.55718049999996,215.55718049999996,216.3097248999993,216.3097248999993,216.81229829999938,216.81229829999938,217.56765689999975,217.56765689999975,None,num_6,0.7410880000006728,217.56765689999975,None,,,,,,,,,,,,,,,,,,,,,,,,,,,,,,,,,,,,,,,,,,,,,,,,,,,,,,,,,,,,,,,,,,,,,,,,,,,,,,,8,001,male,26,350,450,2022_Aug_31_1112,Experiment,2021.1.4,359.93362824293325,
,,,,,,,,,,,,,,,,,,,,,,,,,,,,,,,,,,,,,,,,,,,,,,,,,,,,,,,,,,,,,,,,,,,,,,,,,,,,,,,,,,,,,,218.33681929999966,None,space,29.412017099999503,,,,,,,,,,,,,,,,,,,,,,,,,,,,,,,,,,,,,,,,,,,,,,,,,,,,,,,,,,,,,,,,,,,,,,,,,,,8,001,male,26,350,450,2022_Aug_31_1112,Experiment,2021.1.4,359.93362824293325,
images\S3_F_S_02.png,images\S3_F_S_02_scrambled.png,3,sad,-20,female,2,,137,off,1,0.5,0.75,0.5,0.917,3,136,1,1,1,0,0,0,0,2,,,,,,0,0,0,0,,,,,,,,,,,,,,,,,,,,,,,,,,,,,,,,,,,,,,,,,,,,,,,,,,,,,,,,,248.24985599999945,248.75249559999975,248.75249559999975,249.5050870999994,249.5050870999994,250.01047539999945,250.01047539999945,250.9297388999994,250.9297388999994,None,num_6,0.6431330999994316,250.9297388999994,None,happy,0,Sad,251.6017728799994,None,None,251.6017728799994,None,,,,,,,,,,,,,,,,,,,,,,,,,,,,,,,,,,,,,,,,,,,,,,,,,,,,,8,001,male,26,350,450,2022_Aug_31_1112,Experiment,2021.1.4,359.93362824293325,
images\S9_F_H_02.png,images\S9_F_H_02_scrambled.png,9,happy,20,female,5,,230,on,2,0.5,0.75,0.5,0.828,3,229,1,1,1,2,2,32,128,165,,,,,,0,1,1,1,,,,,,,,,,,,,,,,,,,,,,,,,,,,,,,,,,,,,,,,,,,,,,,,,,,,,,,,,251.71268079999936,252.2153587999992,252.2153587999992,252.96509369999967,252.96509369999967,253.4705242,253.4705242,254.30082479999965,254.30082479999965,None,num_6,0.8719176000004154,254.30082479999965,None,happy,0,Happy,255.18385793999985,None,None,255.18385793999985,None,,,,,,,,,,,,,,,,,,,,,,,,,,,,,,,,,,,,,,,,,,,,,,,,,,,,,8,001,male,26,350,450,2022_Aug_31_1112,Experiment,2021.1.4,359.93362824293325,
images\S8_M_S_01.png,images\S8_M_S_01_scrambled.png,8,sad,-10,male,3,,106,on,2,0.5,0.75,0.5,0.857,3,105,2,1,1,2,2,32,128,163,,,,,,0,2,2,2,,,,,,,,,,,,,,,,,,,,,,,,,,,,,,,,,,,,,,,,,,,,,,,,,,,,,,,,,255.26992619999965,255.76977279999937,255.76977279999937,256.51955649999945,256.51955649999945,257.02221539999937,257.02221539999937,257.8830074999996,257.8830074999996,None,num_6,0.881922399999894,257.8830074999996,None,happy,0,Sad,258.7801309799998,None,None,258.7801309799998,None,,,,,,,,,,,,,,,,,,,,,,,,,,,,,,,,,,,,,,,,,,,,,,,,,,,,,8,001,male,26,350,450,2022_Aug_31_1112,Experiment,2021.1.4,359.93362824293325,
images\S5_F_H_02.png,images\S5_F_H_02_scrambled.png,5,happy,20,female,5,,206,on,2,0.5,0.75,0.5,0.786,3,205,3,1,1,2,2,32,128,165,,,,,,0,3,3,3,,,,,,,,,,,,,,,,,,,,,,,,,,,,,,,,,,,,,,,,,,,,,,,,,,,,,,,,,258.8882976999994,259.3910315999992,259.3910315999992,260.1434516999998,260.1434516999998,260.64618619999965,260.64618619999965,261.43752249999943,261.43752249999943,None,num_6,0.5592816999997012,261.43752249999943,None,happy,0,Happy,262.02075347999977,None,None,262.02075347999977,None,,,,,,,,,,,,,,,,,,,,,,,,,,,,,,,,,,,,,,,,,,,,,,,,,,,,,8,001,male,26,350,450,2022_Aug_31_1112,Experiment,2021.1.4,359.93362824293325,
images\S9_F_S_02.png,images\S9_F_S_02_scrambled.png,9,sad,-20,female,2,,173,off,1,0.5,0.75,0.5,0.948,3,172,1,1,1,0,0,0,0,2,,,,,,0,4,4,4,,,,,,,,,,,,,,,,,,,,,,,,,,,,,,,,,,,,,,,,,,,,,,,,,,,,,,,,,262.12892809999994,262.63157129999945,262.63157129999945,263.38694140000007,263.38694140000007,263.8923215999994,263.8923215999994,264.84205159999965,264.84205159999965,None,num_4,0.6747067999995124,264.84205159999965,None,sad,0,Sad,265.52790303999956,None,None,265.52790303999956,None,,,,,,,,,,,,,,,,,,,,,,,,,,,,,,,,,,,,,,,,,,,,,,,,,,,,,8,001,male,26,350,450,2022_Aug_31_1112,Experiment,2021.1.4,359.93362824293325,
images\S1_F_S_01.png,images\S1_F_S_01_scrambled.png,1,sad,-10,female,3,,244,off,1,0.5,0.75,0.5,0.818,3,243,2,1,1,0,0,0,0,3,,,,,,0,5,5,5,,,,,,,,,,,,,,,,,,,,,,,,,,,,,,,,,,,,,,,,,,,,,,,,,,,,,,,,,265.61397729999953,266.11662159999923,266.11662159999923,266.8663902999997,266.8663902999997,267.37182699999994,267.37182699999994,268.1937610999994,268.1937610999994,None,num_6,0.5871735999999146,268.1937610999994,None,happy,0,Sad,268.78524481999955,None,None,268.78524481999955,None,,,,,,,,,,,,,,,,,,,,,,,,,,,,,,,,,,,,,,,,,,,,,,,,,,,,,8,001,male,26,350,450,2022_Aug_31_1112,Experiment,2021.1.4,359.93362824293325,
images\S1_F_H_02.png,images\S1_F_H_02_scrambled.png,1,happy,20,female,5,,242,off,1,0.5,0.75,0.5,0.802,3,241,3,2,1,0,0,0,0,5,,,,,,0,6,6,6,,,,,,,,,,,,,,,,,,,,,,,,,,,,,,,,,,,,,,,,,,,,,,,,,,,,,,,,,268.87130459999935,269.3711586999998,269.3711586999998,270.12093469999945,270.12093469999945,270.62358929999937,270.62358929999937,271.42888760000005,271.42888760000005,None,num_6,0.46401070000047184,271.42888760000005,None,happy,0,Happy,271.9094411600001,None,None,271.9094411600001,None,,,,,,,,,,,,,,,,,,,,,,,,,,,,,,,,,,,,,,,,,,,,,,,,,,,,,8,001,male,26,350,450,2022_Aug_31_1112,Experiment,2021.1.4,359.93362824293325,
images\S5_F_S_02.png,images\S5_F_S_02_scrambled.png,5,sad,-20,female,2,,569,on,2,0.5,0.75,0.5,0.903,3,568,1,1,1,2,2,32,128,162,,,,,,0,7,7,7,,,,,,,,,,,,,,,,,,,,,,,,,,,,,,,,,,,,,,,,,,,,,,,,,,,,,,,,,272.0175707999997,272.52302989999953,272.52302989999953,273.27276729999994,273.27276729999994,273.77819159999945,273.77819159999945,274.68063619999975,274.68063619999975,None,num_6,0.5401955999996062,274.68063619999975,None,happy,0,Sad,275.2304895199999,None,None,275.2304895199999,None,,,,,,,,,,,,,,,,,,,,,,,,,,,,,,,,,,,,,,,,,,,,,,,,,,,,,8,001,male,26,350,450,2022_Aug_31_1112,Experiment,2021.1.4,359.93362824293325,
images\blank.jpg,images\blank.jpg,none,none,none,none,0,,617,on,2,0.5,0.75,0.5,0.822,0,616,2,1,1,3,3,48,192,240,,,,,,0,8,8,8,,,,,,,,,,,,,,,,,,,,,,,,,,,,,,,,,,,,,,,,,,,,,,,,,,,,,,,,,275.3503271999998,275.85251399999925,275.85251399999925,276.60505979999925,276.60505979999925,277.1076785999994,277.1076785999994,277.92964649999976,277.92964649999976,277.92964649999976,None,,277.92964649999976,None,miss,0,,280.9343373199994,None,None,280.9343373199994,None,,,,,,,,,,,,,,,,,,,,,,,,,,,,,,,,,,,,,,,,,,,,,,,,,,,,,8,001,male,26,350,450,2022_Aug_31_1112,Experiment,2021.1.4,359.93362824293325,
images\S6_M_S_02.png,images\S6_M_S_02_scrambled.png,6,sad,-20,male,2,,515,off,1,0.5,0.75,0.5,0.768,3,514,1,1,1,0,0,0,0,2,,,,,,0,9,9,9,,,,,,,,,,,,,,,,,,,,,,,,,,,,,,,,,,,,,,,,,,,,,,,,,,,,,,,,,281.0982433999998,281.6007291999995,281.6007291999995,282.3560907000001,282.3560907000001,282.85881079999945,282.85881079999945,283.6307108000001,283.6307108000001,None,num_4,0.4221434999999474,283.6307108000001,281.0982433999998,sad,0,Sad,284.0750526799998,None,None,284.0750526799998,None,,,,,,,,,,,,,,,,,,,,,,,,,,,,,,,,,,,,,,,,,,,,,,,,,,,,,8,001,male,26,350,450,2022_Aug_31_1112,Experiment,2021.1.4,359.93362824293325,
images\S3_F_H_02.png,images\S3_F_H_02_scrambled.png,3,happy,20,female,5,,314,on,2,0.5,0.75,0.5,0.864,3,313,1,1,1,2,2,32,128,165,,,,,,0,10,10,10,,,,,,,,,,,,,,,,,,,,,,,,,,,,,,,,,,,,,,,,,,,,,,,,,,,,,,,,,284.1805048999995,284.68592979999994,284.68592979999994,285.4412530999998,285.4412530999998,285.9438440999993,285.9438440999993,286.8102853999999,286.8102853999999,None,num_6,0.3066454999998314,286.8102853999999,None,happy,0,Happy,287.1296389999993,None,None,287.1296389999993,None,,,,,,,,,,,,,,,,,,,,,,,,,,,,,,,,,,,,,,,,,,,,,,,,,,,,,8,001,male,26,350,450,2022_Aug_31_1112,Experiment,2021.1.4,359.93362824293325,
images\S2_M_S_03.png,images\S2_M_S_03_scrambled.png,2,sad,-30,male,1,,72,on,2,0.5,0.75,0.5,0.796,3,71,2,1,1,2,2,32,128,161,,,,,,0,11,11,11,,,,,,,,,,,,,,,,,,,,,,,,,,,,,,,,,,,,,,,,,,,,,,,,,,,,,,,,,287.21567999999934,287.7155365999997,287.7155365999997,288.47086409999974,288.47086409999974,288.9707553999997,288.9707553999997,289.7732656999997,289.7732656999997,None,num_4,0.3676177000006646,289.7732656999997,None,sad,0,Sad,290.1537070999998,None,None,290.1537070999998,None,,,,,,,,,,,,,,,,,,,,,,,,,,,,,,,,,,,,,,,,,,,,,,,,,,,,,8,001,male,26,350,450,2022_Aug_31_1112,Experiment,2021.1.4,359.93362824293325,
images\blank.jpg,images\blank.jpg,none,none,none,none,0,,612,on,2,0.5,0.75,0.5,0.766,0,611,3,1,1,3,3,48,192,240,,,,,,0,12,12,12,,,,,,,,,,,,,,,,,,,,,,,,,,,,,,,,,,,,,,,,,,,,,,,,,,,,,,,,,290.2401678999995,290.74239659999967,290.74239659999967,291.49778029999925,291.49778029999925,292.00315729999966,292.00315729999966,292.76952600000004,292.76952600000004,292.76952600000004,None,,292.76952600000004,None,miss,0,,295.7741885199997,None,None,295.7741885199997,None,,,,,,,,,,,,,,,,,,,,,,,,,,,,,,,,,,,,,,,,,,,,,,,,,,,,,8,001,male,26,350,450,2022_Aug_31_1112,Experiment,2021.1.4,359.93362824293325,
images\S3_F_H_03.png,images\S3_F_H_03_scrambled.png,3,happy,30,female,6,,15,off,1,0.5,0.75,0.5,0.829,3,14,1,1,1,0,0,0,0,6,,,,,,0,13,13,13,,,,,,,,,,,,,,,,,,,,,,,,,,,,,,,,,,,,,,,,,,,,,,,,,,,,,,,,,295.92432310000004,296.42397749999964,296.42397749999964,297.17933360000006,297.17933360000006,297.6819381999994,297.6819381999994,298.51789649999955,298.51789649999955,None,num_6,0.4470002999996723,298.51789649999955,295.92432310000004,happy,0,Happy,298.98714581999945,None,None,298.98714581999945,None,,,,,,,,,,,,,,,,,,,,,,,,,,,,,,,,,,,,,,,,,,,,,,,,,,,,,8,001,male,26,350,450,2022_Aug_31_1112,Experiment,2021.1.4,359.93362824293325,
images\S7_F_H_03.png,images\S7_F_H_03_scrambled.png,7,happy,30,female,6,,219,on,2,0.5,0.75,0.5,0.931,3,218,1,1,2,2,2,32,128,166,,,,,,0,14,14,14,,,,,,,,,,,,,,,,,,,,,,,,,,,,,,,,,,,,,,,,,,,,,,,,,,,,,,,,,299.10091439999997,299.6036820999998,299.6036820999998,300.3589239999992,300.3589239999992,300.85874369999965,300.85874369999965,301.7945639999998,301.7945639999998,None,num_6,0.3382664000000659,301.7945639999998,None,happy,0,Happy,302.15280010000015,None,None,302.15280010000015,None,,,,,,,,,,,,,,,,,,,,,,,,,,,,,,,,,,,,,,,,,,,,,,,,,,,,,8,001,male,26,350,450,2022_Aug_31_1112,Experiment,2021.1.4,359.93362824293325,
images\blank.jpg,images\blank.jpg,none,none,none,none,0,,603,on,2,0.5,0.75,0.5,0.94,0,602,2,1,1,3,3,48,192,240,,,,,,0,15,15,15,,,,,,,,,,,,,,,,,,,,,,,,,,,,,,,,,,,,,,,,,,,,,,,,,,,,,,,,,302.2362643999995,302.7415072999993,302.7415072999993,303.4968283999997,303.4968283999997,304.00222309999936,304.00222309999936,304.9463831999992,304.9463831999992,304.9463831999992,None,,304.9463831999992,None,miss,0,,307.9482228599997,None,None,307.9482228599997,None,,,,,,,,,,,,,,,,,,,,,,,,,,,,,,,,,,,,,,,,,,,,,,,,,,,,,8,001,male,26,350,450,2022_Aug_31_1112,Experiment,2021.1.4,359.93362824293325,
images\S9_F_H_01.png,images\S9_F_H_01_scrambled.png,9,happy,10,female,4,,109,on,2,0.5,0.75,0.5,0.916,3,108,3,1,1,2,2,32,128,164,,,,,,0,16,16,16,,,,,,,,,,,,,,,,,,,,,,,,,,,,,,,,,,,,,,,,,,,,,,,,,,,,,,,,,308.0983540999996,308.6007770999995,308.6007770999995,309.3533265999995,309.3533265999995,309.85876839999946,309.85876839999946,310.7779505999997,310.7779505999997,None,num_6,0.3469909999994343,310.7779505999997,308.0983540999996,happy,0,Happy,311.14447900000005,None,None,311.14447900000005,None,,,,,,,,,,,,,,,,,,,,,,,,,,,,,,,,,,,,,,,,,,,,,,,,,,,,,8,001,male,26,350,450,2022_Aug_31_1112,Experiment,2021.1.4,359.93362824293325,
images\S2_M_H_03.png,images\S2_M_H_03_scrambled.png,2,happy,30,male,6,,69,on,2,0.5,0.75,0.5,0.846,3,68,4,1,1,2,2,32,128,166,,,,,,0,17,17,17,,,,,,,,,,,,,,,,,,,,,,,,,,,,,,,,,,,,,,,,,,,,,,,,,,,,,,,,,311.2305312999997,311.73597379999956,311.73597379999956,312.4913098999996,312.4913098999996,312.99669229999927,312.99669229999927,313.84643479999977,313.84643479999977,None,num_6,0.31036760000006325,313.84643479999977,None,happy,0,Happy,314.17976588000016,None,None,314.17976588000016,None,,,,,,,,,,,,,,,,,,,,,,,,,,,,,,,,,,,,,,,,,,,,,,,,,,,,,8,001,male,26,350,450,2022_Aug_31_1112,Experiment,2021.1.4,359.93362824293325,
images\S6_M_S_01.png,images\S6_M_S_01_scrambled.png,6,sad,-10,male,3,,94,on,2,0.5,0.75,0.5,0.947,3,93,5,1,1,2,2,32,128,163,,,,,,0,18,18,18,,,,,,,,,,,,,,,,,,,,,,,,,,,,,,,,,,,,,,,,,,,,,,,,,,,,,,,,,314.29897399999936,314.79887469999994,314.79887469999994,315.5486498,315.5486498,316.0540751999997,316.0540751999997,317.00657429999956,317.00657429999956,None,num_4,0.29433179999978165,317.00657429999956,None,sad,0,Sad,317.31759809999994,None,None,317.31759809999994,None,,,,,,,,,,,,,,,,,,,,,,,,,,,,,,,,,,,,,,,,,,,,,,,,,,,,,8,001,male,26,350,450,2022_Aug_31_1112,Experiment,2021.1.4,359.93362824293325,
images\S7_F_H_03.png,images\S7_F_H_03_scrambled.png,7,happy,30,female,6,,99,on,2,0.5,0.75,0.5,0.813,3,98,6,1,1,2,2,32,128,166,,,,,,0,19,19,19,,,,,,,,,,,,,,,,,,,,,,,,,,,,,,,,,,,,,,,,,,,,,,,,,,,,,,,,,317.3675347999997,317.8702977999992,317.8702977999992,318.61992419999933,318.61992419999933,319.1254679999993,319.1254679999993,319.9417862,319.9417862,None,num_6,0.3190575999997236,319.9417862,None,happy,0,Happy,320.28617317999993,None,None,320.28617317999993,None,,,,,,,,,,,,,,,,,,,,,,,,,,,,,,,,,,,,,,,,,,,,,,,,,,,,,8,001,male,26,350,450,2022_Aug_31_1112,Experiment,2021.1.4,359.93362824293325,
images\S1_F_H_02.png,images\S1_F_H_02_scrambled.png,1,happy,20,female,5,,362,off,1,0.5,0.75,0.5,0.888,3,361,1,1,1,0,0,0,0,5,,,,,,0,20,20,20,,,,,,,,,,,,,,,,,,,,,,,,,,,,,,,,,,,,,,,,,,,,,,,,,,,,,,,,,320.3388484999996,320.8415041999997,320.8415041999997,321.59402059999957,321.59402059999957,322.09667349999927,322.09667349999927,322.99086850000003,322.99086850000003,None,num_6,0.3419284000001426,322.99086850000003,None,happy,0,Happy,323.3547067799996,None,None,323.3547067799996,None,,,,,,,,,,,,,,,,,,,,,,,,,,,,,,,,,,,,,,,,,,,,,,,,,,,,,8,001,male,26,350,450,2022_Aug_31_1112,Experiment,2021.1.4,359.93362824293325,
images\S7_F_S_02.png,images\S7_F_S_02_scrambled.png,7,sad,-20,female,2,,221,on,2,0.5,0.75,0.5,0.787,3,220,1,1,1,2,2,32,128,162,,,,,,0,21,21,21,,,,,,,,,,,,,,,,,,,,,,,,,,,,,,,,,,,,,,,,,,,,,,,,,,,,,,,,,323.4628839999996,323.9655264999992,323.9655264999992,324.7208909000001,324.7208909000001,325.2262818999998,325.2262818999998,326.0176752999996,326.0176752999996,None,num_4,0.29900939999970433,326.0176752999996,None,sad,0,Sad,326.3342622999994,None,None,326.3342622999994,None,,,,,,,,,,,,,,,,,,,,,,,,,,,,,,,,,,,,,,,,,,,,,,,,,,,,,8,001,male,26,350,450,2022_Aug_31_1112,Experiment,2021.1.4,359.93362824293325,
images\S2_M_H_01.png,images\S2_M_H_01_scrambled.png,2,happy,10,male,4,,487,off,1,0.5,0.75,0.5,0.926,3,486,1,1,1,0,0,0,0,4,,,,,,0,22,22,22,,,,,,,,,,,,,,,,,,,,,,,,,,,,,,,,,,,,,,,,,,,,,,,,,,,,,,,,,326.44252329999927,326.9451449999997,326.9451449999997,327.6977141999996,327.6977141999996,328.2004668999998,328.2004668999998,329.13065899999947,329.13065899999947,None,num_4,0.2500435000001744,329.13065899999947,None,sad,0,Happy,329.38886601999945,None,None,329.38886601999945,None,,,,,,,,,,,,,,,,,,,,,,,,,,,,,,,,,,,,,,,,,,,,,,,,,,,,,8,001,male,26,350,450,2022_Aug_31_1112,Experiment,2021.1.4,359.93362824293325,
images\S10_M_H_03.png,images\S10_M_H_03_scrambled.png,10,happy,30,male,6,,597,on,2,0.5,0.75,0.5,0.855,3,596,1,1,1,2,2,32,128,166,,,,,,0,23,23,23,,,,,,,,,,,,,,,,,,,,,,,,,,,,,,,,,,,,,,,,,,,,,,,,,,,,,,,,,329.4777028999997,329.9831196999994,329.9831196999994,330.7357168999997,330.7357168999997,331.2410973999995,331.2410973999995,332.1019311,332.1019311,None,num_6,0.44687419999991107,332.1019311,None,happy,0,Happy,332.57129907999985,None,None,332.57129907999985,None,,,,,,,,,,,,,,,,,,,,,,,,,,,,,,,,,,,,,,,,,,,,,,,,,,,,,8,001,male,26,350,450,2022_Aug_31_1112,Experiment,2021.1.4,359.93362824293325,
images\S1_F_H_01.png,images\S1_F_H_01_scrambled.png,1,happy,10,female,4,,121,off,1,0.5,0.75,0.5,0.816,3,120,1,1,1,0,0,0,0,4,,,,,,0,24,24,24,,,,,,,,,,,,,,,,,,,,,,,,,,,,,,,,,,,,,,,,,,,,,,,,,,,,,,,,,332.68226999999933,333.1876941999999,333.1876941999999,333.9374577999997,333.9374577999997,334.4400674999997,334.4400674999997,335.2592606999997,335.2592606999997,None,num_6,0.28962789999968663,335.2592606999997,None,happy,0,Happy,335.57040318000014,None,None,335.57040318000014,None,,,,,,,,,,,,,,,,,,,,,,,,,,,,,,,,,,,,,,,,,,,,,,,,,,,,,8,001,male,26,350,450,2022_Aug_31_1112,Experiment,2021.1.4,359.93362824293325,
images\S6_M_H_01.png,images\S6_M_H_01_scrambled.png,6,happy,10,male,4,,511,off,1,0.5,0.75,0.5,0.861,3,510,2,1,2,0,0,0,0,4,,,,,,0,25,25,25,,,,,,,,,,,,,,,,,,,,,,,,,,,,,,,,,,,,,,,,,,,,,,,,,,,,,,,,,335.6813566000001,336.18678869999985,336.18678869999985,336.9365242999993,336.9365242999993,337.4391919999998,337.4391919999998,338.30563879999954,338.30563879999954,None,num_4,0.29116549999980634,338.30563879999954,None,sad,0,Happy,338.6055636799993,None,None,338.6055636799993,None,,,,,,,,,,,,,,,,,,,,,,,,,,,,,,,,,,,,,,,,,,,,,,,,,,,,,8,001,male,26,350,450,2022_Aug_31_1112,Experiment,2021.1.4,359.93362824293325,
images\S4_M_S_01.png,images\S4_M_S_01_scrambled.png,4,sad,-10,male,3,,562,on,2,0.5,0.75,0.5,0.754,3,561,1,1,1,2,2,32,128,163,,,,,,0,26,26,26,,,,,,,,,,,,,,,,,,,,,,,,,,,,,,,,,,,,,,,,,,,,,,,,,,,,,,,,,338.7193101999992,339.22196110000004,339.22196110000004,339.97170749999987,339.97170749999987,340.4715942999992,340.4715942999992,341.229781,341.229781,None,num_4,0.43091050000020914,341.229781,None,sad,0,Sad,341.67121383999967,None,None,341.67121383999967,None,,,,,,,,,,,,,,,,,,,,,,,,,,,,,,,,,,,,,,,,,,,,,,,,,,,,,8,001,male,26,350,450,2022_Aug_31_1112,Experiment,2021.1.4,359.93362824293325,
images\S10_M_S_02.png,images\S10_M_S_02_scrambled.png,10,sad,-20,male,2,,179,off,1,0.5,0.75,0.5,0.904,3,178,1,1,1,0,0,0,0,2,,,,,,0,27,27,27,,,,,,,,,,,,,,,,,,,,,,,,,,,,,,,,,,,,,,,,,,,,,,,,,,,,,,,,,341.78225829999974,342.2848879999992,342.2848879999992,343.0403314999994,343.0403314999994,343.5428738999999,343.5428738999999,344.45094849999987,344.45094849999987,None,num_6,0.13793729999997595,344.45094849999987,None,happy,0,Sad,344.6037623799994,None,None,344.6037623799994,None,,,,,,,,,,,,,,,,,,,,,,,,,,,,,,,,,,,,,,,,,,,,,,,,,,,,,8,001,male,26,350,450,2022_Aug_31_1112,Experiment,2021.1.4,359.93362824293325,
images\S8_M_S_01.png,images\S8_M_S_01_scrambled.png,8,sad,-10,male,3,,46,off,1,0.5,0.75,0.5,0.798,3,45,2,1,1,0,0,0,0,3,,,,,,0,28,28,28,,,,,,,,,,,,,,,,,,,,,,,,,,,,,,,,,,,,,,,,,,,,,,,,,,,,,,,,,344.65915479999967,345.1590034000001,345.1590034000001,345.9087781999997,345.9087781999997,346.4086763999994,346.4086763999994,347.21120509999946,347.21120509999946,None,num_4,0.25767889999951876,347.21120509999946,None,sad,0,Sad,347.4833157399997,None,None,347.4833157399997,None,,,,,,,,,,,,,,,,,,,,,,,,,,,,,,,,,,,,,,,,,,,,,,,,,,,,,8,001,male,26,350,450,2022_Aug_31_1112,Experiment,2021.1.4,359.93362824293325,
images\S2_M_S_03.png,images\S2_M_S_03_scrambled.png,2,sad,-30,male,1,,192,on,2,0.5,0.75,0.5,0.843,3,191,1,1,1,2,2,32,128,161,,,,,,0,29,29,29,,,,,,,,,,,,,,,,,,,,,,,,,,,,,,,,,,,,,,,,,,,,,,,,,,,,,,,,,347.53049219999957,348.0303409999997,348.0303409999997,348.78571099999954,348.78571099999954,349.2910951999993,349.2910951999993,350.1408329999995,350.1408329999995,None,num_4,0.3119951000007859,350.1408329999995,None,sad,0,Sad,350.47141495999966,None,None,350.47141495999966,None,,,,,,,,,,,,,,,,,,,,,,,,,,,,,,,,,,,,,,,,,,,,,,,,,,,,,8,001,male,26,350,450,2022_Aug_31_1112,Experiment,2021.1.4,359.93362824293325,
images\S7_F_H_02.png,images\S7_F_H_02_scrambled.png,7,happy,20,female,5,,518,off,1,0.5,0.75,0.5,0.906,3,517,1,1,1,0,0,0,0,5,,,,,,0,30,30,30,,,,,,,,,,,,,,,,,,,,,,,,,,,,,,,,,,,,,,,,,,,,,,,,,,,,,,,,,350.5823305999993,351.08499159999974,351.08499159999974,351.8403144999993,351.8403144999993,352.3457264999997,352.3457264999997,353.2538748999996,353.2538748999996,None,num_4,0.2629189999997834,353.2538748999996,None,sad,0,Happy,353.5286831199995,None,None,353.5286831199995,None,,,,,,,,,,,,,,,,,,,,,,,,,,,,,,,,,,,,,,,,,,,,,,,,,,,,,8,001,male,26,350,450,2022_Aug_31_1112,Experiment,2021.1.4,359.93362824293325,
images\S1_F_H_03.png,images\S1_F_H_03_scrambled.png,1,happy,30,female,6,,483,off,1,0.5,0.75,0.5,0.925,3,482,2,1,1,0,0,0,0,6,,,,,,0,31,31,31,,,,,,,,,,,,,,,,,,,,,,,,,,,,,,,,,,,,,,,,,,,,,,,,,,,,,,,,,353.6175177999994,354.11736369999926,354.11736369999926,354.87280740000006,354.87280740000006,355.3753219,355.3753219,356.30558629999996,356.30558629999996,None,num_6,0.29936629999974684,356.30558629999996,None,happy,0,Happy,356.61939564000005,None,None,356.61939564000005,None,,,,,,,,,,,,,,,,,,,,,,,,,,,,,,,,,,,,,,,,,,,,,,,,,,,,,8,001,male,26,350,450,2022_Aug_31_1112,Experiment,2021.1.4,359.93362824293325,
images\S4_M_S_02.png,images\S4_M_S_02_scrambled.png,4,sad,-20,male,2,,323,on,2,0.5,0.75,0.5,0.911,3,322,1,1,1,2,2,32,128,162,,,,,,0,32,32,32,,,,,,,,,,,,,,,,,,,,,,,,,,,,,,,,,,,,,,,,,,,,,,,,,,,,,,,,,356.70546119999926,357.2080914999997,357.2080914999997,357.96072449999974,357.96072449999974,358.4660852999996,358.4660852999996,359.38243299999976,359.38243299999976,None,num_4,0.32645529999990686,359.38243299999976,None,sad,0,Sad,359.73247886000007,None,None,359.73247886000007,None,,,,,,,,,,,,,,,,,,,,,,,,,,,,,,,,,,,,,,,,,,,,,,,,,,,,,8,001,male,26,350,450,2022_Aug_31_1112,Experiment,2021.1.4,359.93362824293325,
images\S10_M_S_01.png,images\S10_M_S_01_scrambled.png,10,sad,-10,male,3,,418,off,1,0.5,0.75,0.5,0.842,3,417,1,1,1,0,0,0,0,3,,,,,,0,33,33,33,,,,,,,,,,,,,,,,,,,,,,,,,,,,,,,,,,,,,,,,,,,,,,,,,,,,,,,,,359.84338189999926,360.34600129999944,360.34600129999944,361.0957668000001,361.0957668000001,361.60118389999934,361.60118389999934,362.44257599999946,362.44257599999946,None,num_6,0.338136399999712,362.44257599999946,None,happy,0,Sad,362.7897210199993,None,None,362.7897210199993,None,,,,,,,,,,,,,,,,,,,,,,,,,,,,,,,,,,,,,,,,,,,,,,,,,,,,,8,001,male,26,350,450,2022_Aug_31_1112,Experiment,2021.1.4,359.93362824293325,
images\blank.jpg,images\blank.jpg,none,none,none,none,0,,635,on,2,0.5,0.75,0.5,0.766,0,634,1,1,1,3,3,48,192,240,,,,,,0,34,34,34,,,,,,,,,,,,,,,,,,,,,,,,,,,,,,,,,,,,,,,,,,,,,,,,,,,,,,,,,362.8762160999995,363.3756367999995,363.3756367999995,364.1310094999999,364.1310094999999,364.63358639999933,364.63358639999933,365.4000213999998,365.4000213999998,365.4000213999998,None,,365.4000213999998,None,miss,0,,368.3991085599998,None,None,368.3991085599998,None,,,,,,,,,,,,,,,,,,,,,,,,,,,,,,,,,,,,,,,,,,,,,,,,,,,,,8,001,male,26,350,450,2022_Aug_31_1112,Experiment,2021.1.4,359.93362824293325,
images\S9_F_S_01.png,images\S9_F_S_01_scrambled.png,9,sad,-10,female,3,,532,off,1,0.5,0.75,0.5,0.852,3,531,1,1,1,0,0,0,0,3,,,,,,0,35,35,35,,,,,,,,,,,,,,,,,,,,,,,,,,,,,,,,,,,,,,,,,,,,,,,,,,,,,,,,,368.55194179999944,369.0572752999997,369.0572752999997,369.8125805999998,369.8125805999998,370.3179737999999,370.3179737999999,371.1732747999995,371.1732747999995,None,num_4,0.23157119999996212,371.1732747999995,368.55194179999944,sad,0,Sad,371.42331956000015,None,None,371.42331956000015,None,,,,,,,,,,,,,,,,,,,,,,,,,,,,,,,,,,,,,,,,,,,,,,,,,,,,,8,001,male,26,350,450,2022_Aug_31_1112,Experiment,2021.1.4,359.93362824293325,
images\S3_F_S_02.png,images\S3_F_S_02_scrambled.png,3,sad,-20,female,2,,557,on,2,0.5,0.75,0.5,0.927,3,556,1,1,1,2,2,32,128,162,,,,,,0,36,36,36,,,,,,,,,,,,,,,,,,,,,,,,,,,,,,,,,,,,,,,,,,,,,,,,,,,,,,,,,371.4759185999992,371.9814639999995,371.9814639999995,372.73678109999946,372.73678109999946,373.23928459999934,373.23928459999934,374.1723583999992,374.1723583999992,None,num_4,0.2963212000004205,374.1723583999992,None,sad,0,Sad,374.48336334000015,None,None,374.48336334000015,None,,,,,,,,,,,,,,,,,,,,,,,,,,,,,,,,,,,,,,,,,,,,,,,,,,,,,8,001,male,26,350,450,2022_Aug_31_1112,Experiment,2021.1.4,359.93362824293325,
images\S1_F_S_02.png,images\S1_F_S_02_scrambled.png,1,sad,-20,female,2,,125,off,1,0.5,0.75,0.5,0.822,3,124,1,1,2,0,0,0,0,2,,,,,,0,37,37,37,,,,,,,,,,,,,,,,,,,,,,,,,,,,,,,,,,,,,,,,,,,,,,,,,,,,,,,,,374.5944007999997,375.0970892999994,375.0970892999994,375.84964259999924,375.84964259999924,376.35226149999926,376.35226149999926,377.1770055999996,377.1770055999996,None,num_6,0.3000089000006483,377.1770055999996,None,happy,0,Sad,377.49366127999934,None,None,377.49366127999934,None,,,,,,,,,,,,,,,,,,,,,,,,,,,,,,,,,,,,,,,,,,,,,,,,,,,,,8,001,male,26,350,450,2022_Aug_31_1112,Experiment,2021.1.4,359.93362824293325,
images\blank.jpg,images\blank.jpg,none,none,none,none,0,,626,on,2,0.5,0.75,0.5,0.879,0,625,1,1,1,3,3,48,192,240,,,,,,0,38,38,38,,,,,,,,,,,,,,,,,,,,,,,,,,,,,,,,,,,,,,,,,,,,,,,,,,,,,,,,,377.5881706,378.0933546999995,378.0933546999995,378.8460036999995,378.8460036999995,379.3514250999997,379.3514250999997,380.2371784999996,380.2371784999996,380.2371784999996,None,,380.2371784999996,None,miss,0,,383.23899625999974,None,None,383.23899625999974,None,,,,,,,,,,,,,,,,,,,,,,,,,,,,,,,,,,,,,,,,,,,,,,,,,,,,,8,001,male,26,350,450,2022_Aug_31_1112,Experiment,2021.1.4,359.93362824293325,
images\S7_F_H_02.png,images\S7_F_H_02_scrambled.png,7,happy,20,female,5,,458,on,2,0.5,0.75,0.5,0.846,3,457,2,1,1,2,2,32,128,165,,,,,,0,39,39,39,,,,,,,,,,,,,,,,,,,,,,,,,,,,,,,,,,,,,,,,,,,,,,,,,,,,,,,,,383.35300019999977,383.85826949999955,383.85826949999955,384.61357469999984,384.61357469999984,385.11619449999944,385.11619449999944,385.9687414,385.9687414,None,num_6,0.25203160000000935,385.9687414,383.35300019999977,happy,0,Happy,386.2353178999997,None,None,386.2353178999997,None,,,,,,,,,,,,,,,,,,,,,,,,,,,,,,,,,,,,,,,,,,,,,,,,,,,,,8,001,male,26,350,450,2022_Aug_31_1112,Experiment,2021.1.4,359.93362824293325,
images\S2_M_H_02.png,images\S2_M_H_02_scrambled.png,2,happy,20,male,5,,8,off,1,0.5,0.75,0.5,0.782,3,7,1,1,2,0,0,0,0,5,,,,,,0,40,40,40,,,,,,,,,,,,,,,,,,,,,,,,,,,,,,,,,,,,,,,,,,,,,,,,,,,,,,,,,386.3158132999997,386.8185268999996,386.8185268999996,387.5682238999998,387.5682238999998,388.0736896999997,388.0736896999997,388.85951769999974,388.85951769999974,None,num_6,0.3212818000001789,388.85951769999974,None,happy,0,Happy,389.1982943399997,None,None,389.1982943399997,None,,,,,,,,,,,,,,,,,,,,,,,,,,,,,,,,,,,,,,,,,,,,,,,,,,,,,8,001,male,26,350,450,2022_Aug_31_1112,Experiment,2021.1.4,359.93362824293325,
images\S3_F_S_01.png,images\S3_F_S_01_scrambled.png,3,sad,-10,female,3,,376,off,1,0.5,0.75,0.5,0.793,3,375,2,1,1,0,0,0,0,3,,,,,,0,41,41,41,,,,,,,,,,,,,,,,,,,,,,,,,,,,,,,,,,,,,,,,,,,,,,,,,,,,,,,,,389.2843342999995,389.78698319999967,389.78698319999967,390.53675639999983,390.53675639999983,391.0366256999996,391.0366256999996,391.83360079999966,391.83360079999966,None,num_4,0.3313323999991553,391.83360079999966,None,sad,0,Sad,392.18350129999953,None,None,392.18350129999953,None,,,,,,,,,,,,,,,,,,,,,,,,,,,,,,,,,,,,,,,,,,,,,,,,,,,,,8,001,male,26,350,450,2022_Aug_31_1112,Experiment,2021.1.4,359.93362824293325,
images\blank.jpg,images\blank.jpg,none,none,none,none,0,,638,on,2,0.5,0.75,0.5,0.824,0,637,1,1,1,3,3,48,192,240,,,,,,0,42,42,42,,,,,,,,,,,,,,,,,,,,,,,,,,,,,,,,,,,,,,,,,,,,,,,,,,,,,,,,,392.2670002999994,392.76942449999933,392.76942449999933,393.5219373,393.5219373,394.02460299999984,394.02460299999984,394.85212729999967,394.85212729999967,394.85212729999967,None,,394.85212729999967,None,miss,0,,397.8511790599993,None,None,397.8511790599993,None,,,,,,,,,,,,,,,,,,,,,,,,,,,,,,,,,,,,,,,,,,,,,,,,,,,,,8,001,male,26,350,450,2022_Aug_31_1112,Experiment,2021.1.4,359.93362824293325,
images\S1_F_S_01.png,images\S1_F_S_01_scrambled.png,1,sad,-10,female,3,,304,on,2,0.5,0.75,0.5,0.782,3,303,2,1,1,2,2,32,128,163,,,,,,0,43,43,43,,,,,,,,,,,,,,,,,,,,,,,,,,,,,,,,,,,,,,,,,,,,,,,,,,,,,,,,,397.96805029999996,398.47322989999975,398.47322989999975,399.2285517,399.2285517,399.7283865999998,399.7283865999998,400.5142614999995,400.5142614999995,None,num_6,0.27465829999982816,400.5142614999995,397.96805029999996,happy,0,Sad,400.8002843199996,None,None,400.8002843199996,None,,,,,,,,,,,,,,,,,,,,,,,,,,,,,,,,,,,,,,,,,,,,,,,,,,,,,8,001,male,26,350,450,2022_Aug_31_1112,Experiment,2021.1.4,359.93362824293325,
images\S4_M_H_02.png,images\S4_M_H_02_scrambled.png,4,happy,20,male,5,,260,off,1,0.5,0.75,0.5,0.914,3,259,1,1,1,0,0,0,0,5,,,,,,0,44,44,44,,,,,,,,,,,,,,,,,,,,,,,,,,,,,,,,,,,,,,,,,,,,,,,,,,,,,,,,,400.89466509999966,401.3972907999996,401.3972907999996,402.1470983999998,402.1470983999998,402.6497166999998,402.6497166999998,403.5660653999994,403.5660653999994,None,num_4,0.006664900000032503,403.5660653999994,None,sad,0,Happy,403.57996091999973,None,None,403.57996091999973,None,,,,,,,,,,,,,,,,,,,,,,,,,,,,,,,,,,,,,,,,,,,,,,,,,,,,,8,001,male,26,350,450,2022_Aug_31_1112,Experiment,2021.1.4,359.93362824293325,
images\blank.jpg,images\blank.jpg,none,none,none,none,0,,615,on,2,0.5,0.75,0.5,0.9,0,614,1,1,1,3,3,48,192,240,,,,,,0,45,45,45,,,,,,,,,,,,,,,,,,,,,,,,,,,,,,,,,,,,,,,,,,,,,,,,,,,,,,,,,403.6635190999996,404.1631047000001,404.1631047000001,404.9185693999998,404.9185693999998,405.42390219999925,405.42390219999925,406.32637840000007,406.32637840000007,406.32637840000007,None,,406.32637840000007,None,miss,0,,409.3282475599996,None,None,409.3282475599996,None,,,,,,,,,,,,,,,,,,,,,,,,,,,,,,,,,,,,,,,,,,,,,,,,,,,,,8,001,male,26,350,450,2022_Aug_31_1112,Experiment,2021.1.4,359.93362824293325,
images\S10_M_S_03.png,images\S10_M_S_03_scrambled.png,10,sad,-30,male,1,,120,on,2,0.5,0.75,0.5,0.829,3,119,2,1,1,2,2,32,128,161,,,,,,0,46,46,46,,,,,,,,,,,,,,,,,,,,,,,,,,,,,,,,,,,,,,,,,,,,,,,,,,,,,,,,,409.4950108999992,409.9974354999995,409.9974354999995,410.74721059999956,410.74721059999956,411.2498810999996,411.2498810999996,412.0857145,412.0857145,None,num_4,0.41518209999958344,412.0857145,409.4950108999992,sad,0,Sad,412.51626786000014,None,None,412.51626786000014,None,,,,,,,,,,,,,,,,,,,,,,,,,,,,,,,,,,,,,,,,,,,,,,,,,,,,,8,001,male,26,350,450,2022_Aug_31_1112,Experiment,2021.1.4,359.93362824293325,
images\S9_F_S_01.png,images\S9_F_S_01_scrambled.png,9,sad,-10,female,3,,472,on,2,0.5,0.75,0.5,0.949,3,471,3,1,1,2,2,32,128,163,,,,,,0,47,47,47,,,,,,,,,,,,,,,,,,,,,,,,,,,,,,,,,,,,,,,,,,,,,,,,,,,,,,,,,412.56887579999966,413.0687049999997,413.0687049999997,413.8212752999998,413.8212752999998,414.3240047999998,414.3240047999998,415.2820174999997,415.2820174999997,None,num_4,0.2667639999999665,415.2820174999997,None,sad,0,Sad,415.56520144000007,None,None,415.56520144000007,None,,,,,,,,,,,,,,,,,,,,,,,,,,,,,,,,,,,,,,,,,,,,,,,,,,,,,8,001,male,26,350,450,2022_Aug_31_1112,Experiment,2021.1.4,359.93362824293325,
images\S8_M_S_03.png,images\S8_M_S_03_scrambled.png,8,sad,-30,male,1,,408,off,1,0.5,0.75,0.5,0.89,3,407,1,1,1,0,0,0,0,1,,,,,,0,48,48,48,,,,,,,,,,,,,,,,,,,,,,,,,,,,,,,,,,,,,,,,,,,,,,,,,,,,,,,,,415.6734588999998,416.1760881,416.1760881,416.92585469999995,416.92585469999995,417.4312973999995,417.4312973999995,418.3254473999996,418.3254473999996,None,num_4,0.2714159000006475,418.3254473999996,None,sad,0,Sad,418.61715776,None,None,418.61715776,None,,,,,,,,,,,,,,,,,,,,,,,,,,,,,,,,,,,,,,,,,,,,,,,,,,,,,8,001,male,26,350,450,2022_Aug_31_1112,Experiment,2021.1.4,359.93362824293325,
images\S5_F_S_01.png,images\S5_F_S_01_scrambled.png,5,sad,-10,female,3,,568,on,2,0.5,0.75,0.5,0.801,3,567,1,1,1,2,2,32,128,163,,,,,,0,49,49,49,,,,,,,,,,,,,,,,,,,,,,,,,,,,,,,,,,,,,,,,,,,,,,,,,,,,,,,,,418.72807699999976,419.2308211999998,419.2308211999998,419.9860246999997,419.9860246999997,420.49146539999947,420.49146539999947,421.2995248999996,421.2995248999996,None,num_6,0.4172113000004174,421.2995248999996,None,happy,0,Sad,421.7244185200001,None,None,421.7244185200001,None,,,,,,,,,,,,,,,,,,,,,,,,,,,,,,,,,,,,,,,,,,,,,,,,,,,,,8,001,male,26,350,450,2022_Aug_31_1112,Experiment,2021.1.4,359.93362824293325,
images\S3_F_S_01.png,images\S3_F_S_01_scrambled.png,3,sad,-10,female,3,,436,on,2,0.5,0.75,0.5,0.845,3,435,2,1,2,2,2,32,128,163,,,,,,0,50,50,50,,,,,,,,,,,,,,,,,,,,,,,,,,,,,,,,,,,,,,,,,,,,,,,,,,,,,,,,,421.77714899999955,422.27699119999943,422.27699119999943,423.02676079999947,423.02676079999947,423.53219739999986,423.53219739999986,424.3791646999998,424.3791646999998,None,num_4,0.3857083999992028,424.3791646999998,None,sad,0,Sad,424.7790276399999,None,None,424.7790276399999,None,,,,,,,,,,,,,,,,,,,,,,,,,,,,,,,,,,,,,,,,,,,,,,,,,,,,,8,001,male,26,350,450,2022_Aug_31_1112,Experiment,2021.1.4,359.93362824293325,
images\S3_F_H_01.png,images\S3_F_H_01_scrambled.png,3,happy,10,female,4,,13,off,1,0.5,0.75,0.5,0.759,3,12,1,2,1,0,0,0,0,4,,,,,,0,51,51,51,,,,,,,,,,,,,,,,,,,,,,,,,,,,,,,,,,,,,,,,,,,,,,,,,,,,,,,,,424.8623123999996,425.3649863999999,425.3649863999999,426.1147384999995,426.1147384999995,426.61734179999985,426.61734179999985,427.3810094999999,427.3810094999999,None,num_6,0.36776779999945575,427.3810094999999,None,happy,0,Happy,427.7753948799996,None,None,427.7753948799996,None,,,,,,,,,,,,,,,,,,,,,,,,,,,,,,,,,,,,,,,,,,,,,,,,,,,,,8,001,male,26,350,450,2022_Aug_31_1112,Experiment,2021.1.4,359.93362824293325,
images\S10_M_S_02.png,images\S10_M_S_02_scrambled.png,10,sad,-20,male,2,,59,off,1,0.5,0.75,0.5,0.81,3,58,2,1,1,0,0,0,0,2,,,,,,0,52,52,52,,,,,,,,,,,,,,,,,,,,,,,,,,,,,,,,,,,,,,,,,,,,,,,,,,,,,,,,,427.8280666999999,428.33359109999947,428.33359109999947,429.0860436999992,429.0860436999992,429.59143499999936,429.59143499999936,430.4050625,430.4050625,None,num_6,0.3279906000007031,430.4050625,None,happy,0,Sad,430.74107752,None,None,430.74107752,None,,,,,,,,,,,,,,,,,,,,,,,,,,,,,,,,,,,,,,,,,,,,,,,,,,,,,8,001,male,26,350,450,2022_Aug_31_1112,Experiment,2021.1.4,359.93362824293325,
images\S5_F_S_02.png,images\S5_F_S_02_scrambled.png,5,sad,-20,female,2,,149,off,1,0.5,0.75,0.5,0.924,3,148,3,1,2,0,0,0,0,2,,,,,,0,53,53,53,,,,,,,,,,,,,,,,,,,,,,,,,,,,,,,,,,,,,,,,,,,,,,,,,,,,,,,,,430.7882761999999,431.29374909999933,431.29374909999933,432.04343960000006,432.04343960000006,432.54332410000006,432.54332410000006,433.47080689999984,433.47080689999984,None,num_6,0.20589709999967454,433.47080689999984,None,happy,0,Sad,433.6818546199996,None,None,433.6818546199996,None,,,,,,,,,,,,,,,,,,,,,,,,,,,,,,,,,,,,,,,,,,,,,,,,,,,,,8,001,male,26,350,450,2022_Aug_31_1112,Experiment,2021.1.4,359.93362824293325,
images\S2_M_H_03.png,images\S2_M_H_03_scrambled.png,2,happy,30,male,6,,489,off,1,0.5,0.75,0.5,0.789,3,488,4,1,1,0,0,0,0,6,,,,,,0,54,54,54,,,,,,,,,,,,,,,,,,,,,,,,,,,,,,,,,,,,,,,,,,,,,,,,,,,,,,,,,433.7345886999992,434.23720969999977,434.23720969999977,434.98698650000006,434.98698650000006,435.4868330999998,435.4868330999998,436.2810572999997,436.2810572999997,None,num_4,0.2756510999997772,436.2810572999997,None,sad,0,Happy,436.5615252199999,None,None,436.5615252199999,None,,,,,,,,,,,,,,,,,,,,,,,,,,,,,,,,,,,,,,,,,,,,,,,,,,,,,8,001,male,26,350,450,2022_Aug_31_1112,Experiment,2021.1.4,359.93362824293325,
images\S8_M_S_03.png,images\S8_M_S_03_scrambled.png,8,sad,-30,male,1,,588,on,2,0.5,0.75,0.5,0.851,3,587,1,1,1,2,2,32,128,161,,,,,,0,55,55,55,,,,,,,,,,,,,,,,,,,,,,,,,,,,,,,,,,,,,,,,,,,,,,,,,,,,,,,,,436.6142592999995,437.11690739999995,437.11690739999995,437.86949709999953,437.86949709999953,438.3748769999993,438.3748769999993,439.23018479999973,439.23018479999973,None,num_4,0.29459179999957996,439.23018479999973,None,sad,0,Sad,439.5356180399993,None,None,439.5356180399993,None,,,,,,,,,,,,,,,,,,,,,,,,,,,,,,,,,,,,,,,,,,,,,,,,,,,,,8,001,male,26,350,450,2022_Aug_31_1112,Experiment,2021.1.4,359.93362824293325,
images\S1_F_S_03.png,images\S1_F_S_03_scrambled.png,1,sad,-30,female,1,,546,on,2,0.5,0.75,0.5,0.825,3,545,2,1,2,2,2,32,128,161,,,,,,0,56,56,56,,,,,,,,,,,,,,,,,,,,,,,,,,,,,,,,,,,,,,,,,,,,,,,,,,,,,,,,,439.61889489999976,440.12431209999977,440.12431209999977,440.879637,440.879637,441.3822904999997,441.3822904999997,442.21264339999925,442.21264339999925,None,num_6,0.2961371000001236,442.21264339999925,None,happy,0,Sad,442.5153091199994,None,None,442.5153091199994,None,,,,,,,,,,,,,,,,,,,,,,,,,,,,,,,,,,,,,,,,,,,,,,,,,,,,,8,001,male,26,350,450,2022_Aug_31_1112,Experiment,2021.1.4,359.93362824293325,
images\S7_F_S_01.png,images\S7_F_S_01_scrambled.png,7,sad,-10,female,3,,220,on,2,0.5,0.75,0.5,0.927,3,219,3,1,1,2,2,32,128,163,,,,,,0,57,57,57,,,,,,,,,,,,,,,,,,,,,,,,,,,,,,,,,,,,,,,,,,,,,,,,,,,,,,,,,442.6291222,443.1318434999994,443.1318434999994,443.88146849999976,443.88146849999976,444.3841236999997,444.3841236999997,445.3143851999994,445.3143851999994,None,num_6,0.2823150000003807,445.3143851999994,None,happy,0,Sad,445.6031772199998,None,None,445.6031772199998,None,,,,,,,,,,,,,,,,,,,,,,,,,,,,,,,,,,,,,,,,,,,,,,,,,,,,,8,001,male,26,350,450,2022_Aug_31_1112,Experiment,2021.1.4,359.93362824293325,
images\S9_F_H_02.png,images\S9_F_H_02_scrambled.png,9,happy,20,female,5,,350,on,2,0.5,0.75,0.5,0.948,3,349,4,1,1,2,2,32,128,165,,,,,,0,58,58,58,,,,,,,,,,,,,,,,,,,,,,,,,,,,,,,,,,,,,,,,,,,,,,,,,,,,,,,,,445.65037499999926,446.15299779999987,446.15299779999987,446.9055436999997,446.9055436999997,447.4081662999997,447.4081662999997,448.36068949999935,448.36068949999935,None,num_6,0.3800993999993807,448.36068949999935,None,happy,0,Happy,448.76345087999977,None,None,448.76345087999977,None,,,,,,,,,,,,,,,,,,,,,,,,,,,,,,,,,,,,,,,,,,,,,,,,,,,,,8,001,male,26,350,450,2022_Aug_31_1112,Experiment,2021.1.4,359.93362824293325,
images\blank.jpg,images\blank.jpg,none,none,none,none,0,,610,on,2,0.5,0.75,0.5,0.752,0,609,5,1,1,3,3,48,192,240,,,,,,0,59,59,59,,,,,,,,,,,,,,,,,,,,,,,,,,,,,,,,,,,,,,,,,,,,,,,,,,,,,,,,,448.85539809999955,449.36038310000004,449.36038310000004,450.1101186999995,450.1101186999995,450.6155543999994,450.6155543999994,451.3681018999996,451.3681018999996,451.3681018999996,None,,451.3681018999996,None,miss,0,,454.3671713599994,None,None,454.3671713599994,None,,,,,,,,,,,,,,,,,,,,,,,,,,,,,,,,,,,,,,,,,,,,,,,,,,,,,8,001,male,26,350,450,2022_Aug_31_1112,Experiment,2021.1.4,359.93362824293325,
images\S3_F_H_02.png,images\S3_F_H_02_scrambled.png,3,happy,20,female,5,,254,off,1,0.5,0.75,0.5,0.772,3,253,1,1,1,0,0,0,0,5,,,,,,0,60,60,60,,,,,,,,,,,,,,,,,,,,,,,,,,,,,,,,,,,,,,,,,,,,,,,,,,,,,,,,,454.4840435999995,454.98649899999964,454.98649899999964,455.73893879999923,455.73893879999923,456.2416300999994,456.2416300999994,457.0191172999994,457.0191172999994,None,num_6,0.3056883999997808,457.0191172999994,454.4840435999995,happy,0,Happy,457.3441374599999,None,None,457.3441374599999,None,,,,,,,,,,,,,,,,,,,,,,,,,,,,,,,,,,,,,,,,,,,,,,,,,,,,,8,001,male,26,350,450,2022_Aug_31_1112,Experiment,2021.1.4,359.93362824293325,
images\S7_F_H_02.png,images\S7_F_H_02_scrambled.png,7,happy,20,female,5,,98,on,2,0.5,0.75,0.5,0.868,3,97,1,1,2,2,2,32,128,165,,,,,,0,61,61,61,,,,,,,,,,,,,,,,,,,,,,,,,,,,,,,,,,,,,,,,,,,,,,,,,,,,,,,,,457.39676959999997,457.9022065999998,457.9022065999998,458.65194470000006,458.65194470000006,459.15737549999994,459.15737549999994,460.03210899999976,460.03210899999976,None,num_6,0.9326972999997452,460.03210899999976,None,happy,0,Happy,460.9874152799999,None,None,460.9874152799999,None,,,,,,,,,,,,,,,,,,,,,,,,,,,,,,,,,,,,,,,,,,,,,,,,,,,,,8,001,male,26,350,450,2022_Aug_31_1112,Experiment,2021.1.4,359.93362824293325,
images\S2_M_S_01.png,images\S2_M_S_01_scrambled.png,2,sad,-10,male,3,,550,on,2,0.5,0.75,0.5,0.765,3,549,2,1,1,2,2,32,128,163,,,,,,0,62,62,62,,,,,,,,,,,,,,,,,,,,,,,,,,,,,,,,,,,,,,,,,,,,,,,,,,,,,,,,,461.09285399999953,461.59827789999963,461.59827789999963,462.35092879999956,462.35092879999956,462.85633269999926,462.85633269999926,463.62263579999944,463.62263579999944,None,num_6,0.6301245999993625,463.62263579999944,None,happy,0,Sad,464.2585614200001,None,None,464.2585614200001,None,,,,,,,,,,,,,,,,,,,,,,,,,,,,,,,,,,,,,,,,,,,,,,,,,,,,,8,001,male,26,350,450,2022_Aug_31_1112,Experiment,2021.1.4,359.93362824293325,
images\S7_F_S_01.png,images\S7_F_S_01_scrambled.png,7,sad,-10,female,3,,40,off,1,0.5,0.75,0.5,0.802,3,39,1,1,2,0,0,0,0,3,,,,,,0,63,63,63,,,,,,,,,,,,,,,,,,,,,,,,,,,,,,,,,,,,,,,,,,,,,,,,,,,,,,,,,464.30575789999966,464.8055979999999,464.8055979999999,465.5581586999997,465.5581586999997,466.0635954999998,466.0635954999998,466.86889599999995,466.86889599999995,None,num_6,0.6560264999998253,466.86889599999995,None,happy,0,Sad,467.53533881999954,None,None,467.53533881999954,None,,,,,,,,,,,,,,,,,,,,,,,,,,,,,,,,,,,,,,,,,,,,,,,,,,,,,8,001,male,26,350,450,2022_Aug_31_1112,Experiment,2021.1.4,359.93362824293325,
images\S10_M_H_01.png,images\S10_M_H_01_scrambled.png,10,happy,10,male,4,,475,on,2,0.5,0.75,0.5,0.796,3,474,1,1,1,2,2,32,128,164,,,,,,0,64,64,64,,,,,,,,,,,,,,,,,,,,,,,,,,,,,,,,,,,,,,,,,,,,,,,,,,,,,,,,,467.61863529999937,468.1212544,468.1212544,468.87382660000003,468.87382660000003,469.37646569999924,469.37646569999924,470.1761893999992,470.1761893999992,None,num_6,0.8208136000002924,470.1761893999992,None,happy,0,Happy,471.01205803999966,None,None,471.01205803999966,None,,,,,,,,,,,,,,,,,,,,,,,,,,,,,,,,,,,,,,,,,,,,,,,,,,,,,8,001,male,26,350,450,2022_Aug_31_1112,Experiment,2021.1.4,359.93362824293325,
images\S9_F_H_03.png,images\S9_F_H_03_scrambled.png,9,happy,30,female,6,,351,on,2,0.5,0.75,0.5,0.899,3,350,2,1,1,2,2,32,128,166,,,,,,0,65,65,65,,,,,,,,,,,,,,,,,,,,,,,,,,,,,,,,,,,,,,,,,,,,,,,,,,,,,,,,,471.0953448999999,471.6007370999996,471.6007370999996,472.3560893999993,472.3560893999993,472.8588166999998,472.8588166999998,473.76121819999935,473.76121819999935,None,num_6,0.3235587999997733,473.76121819999935,None,happy,0,Happy,474.09999124000007,None,None,474.09999124000007,None,,,,,,,,,,,,,,,,,,,,,,,,,,,,,,,,,,,,,,,,,,,,,,,,,,,,,8,001,male,26,350,450,2022_Aug_31_1112,Experiment,2021.1.4,359.93362824293325,
images\S7_F_S_02.png,images\S7_F_S_02_scrambled.png,7,sad,-20,female,2,,41,off,1,0.5,0.75,0.5,0.841,3,40,1,1,1,0,0,0,0,2,,,,,,0,66,66,66,,,,,,,,,,,,,,,,,,,,,,,,,,,,,,,,,,,,,,,,,,,,,,,,,,,,,,,,,474.14719009999953,474.64986299999964,474.64986299999964,475.4051376999996,475.4051376999996,475.91056149999986,475.91056149999986,476.7547446999997,476.7547446999997,None,num_4,0.2899729999999181,476.7547446999997,None,sad,0,Sad,477.05742183999956,None,None,477.05742183999956,None,,,,,,,,,,,,,,,,,,,,,,,,,,,,,,,,,,,,,,,,,,,,,,,,,,,,,8,001,male,26,350,450,2022_Aug_31_1112,Experiment,2021.1.4,359.93362824293325,
images\S7_F_S_03.png,images\S7_F_S_03_scrambled.png,7,sad,-30,female,1,,282,off,1,0.5,0.75,0.5,0.852,3,281,2,2,1,0,0,0,0,1,,,,,,0,67,67,67,,,,,,,,,,,,,,,,,,,,,,,,,,,,,,,,,,,,,,,,,,,,,,,,,,,,,,,,,477.1407024,477.6405562,477.6405562,478.3903016999993,478.3903016999993,478.8929417999998,478.8929417999998,479.74829599999975,479.74829599999975,None,num_4,0.42444869999962975,479.74829599999975,None,sad,0,Sad,480.18423973999944,None,None,480.18423973999944,None,,,,,,,,,,,,,,,,,,,,,,,,,,,,,,,,,,,,,,,,,,,,,,,,,,,,,8,001,male,26,350,450,2022_Aug_31_1112,Experiment,2021.1.4,359.93362824293325,
images\S5_F_S_02.png,images\S5_F_S_02_scrambled.png,5,sad,-20,female,2,,329,on,2,0.5,0.75,0.5,0.894,3,328,1,1,1,2,2,32,128,162,,,,,,0,68,68,68,,,,,,,,,,,,,,,,,,,,,,,,,,,,,,,,,,,,,,,,,,,,,,,,,,,,,,,,,480.2314274999999,480.73127849999946,480.73127849999946,481.4810454999997,481.4810454999997,481.986484,481.986484,482.8862257999999,482.8862257999999,None,num_6,0.5826200999999855,482.8862257999999,None,happy,0,Sad,483.47774371999947,None,None,483.47774371999947,None,,,,,,,,,,,,,,,,,,,,,,,,,,,,,,,,,,,,,,,,,,,,,,,,,,,,,8,001,male,26,350,450,2022_Aug_31_1112,Experiment,2021.1.4,359.93362824293325,
images\S6_M_S_03.png,images\S6_M_S_03_scrambled.png,6,sad,-30,male,1,,336,on,2,0.5,0.75,0.5,0.866,3,335,2,1,1,2,2,32,128,161,,,,,,0,69,69,69,,,,,,,,,,,,,,,,,,,,,,,,,,,,,,,,,,,,,,,,,,,,,,,,,,,,,,,,,483.5887460999993,484.0913897999999,484.0913897999999,484.84390449999955,484.84390449999955,485.34657849999985,485.34657849999985,486.21578129999943,486.21578129999943,None,num_4,0.31705890000012005,486.21578129999943,None,sad,0,Sad,486.5434230399995,None,None,486.5434230399995,None,,,,,,,,,,,,,,,,,,,,,,,,,,,,,,,,,,,,,,,,,,,,,,,,,,,,,8,001,male,26,350,450,2022_Aug_31_1112,Experiment,2021.1.4,359.93362824293325,
images\S5_F_H_03.png,images\S5_F_H_03_scrambled.png,5,happy,30,female,6,,267,off,1,0.5,0.75,0.5,0.908,3,266,1,1,1,0,0,0,0,6,,,,,,0,70,70,70,,,,,,,,,,,,,,,,,,,,,,,,,,,,,,,,,,,,,,,,,,,,,,,,,,,,,,,,,486.6266855999993,487.12931750000007,487.12931750000007,487.8819412999992,487.8819412999992,488.38737949999995,488.38737949999995,489.2981329999993,489.2981329999993,None,num_6,0.36260139999922103,489.2981329999993,None,happy,0,Happy,489.6757892999999,None,None,489.6757892999999,None,,,,,,,,,,,,,,,,,,,,,,,,,,,,,,,,,,,,,,,,,,,,,,,,,,,,,8,001,male,26,350,450,2022_Aug_31_1112,Experiment,2021.1.4,359.93362824293325,
images\S1_F_H_03.png,images\S1_F_H_03_scrambled.png,1,happy,30,female,6,,183,on,2,0.5,0.75,0.5,0.781,3,182,1,1,2,2,2,32,128,166,,,,,,0,71,71,71,,,,,,,,,,,,,,,,,,,,,,,,,,,,,,,,,,,,,,,,,,,,,,,,,,,,,,,,,489.7229551999999,490.22835309999937,490.22835309999937,490.9781331999993,490.9781331999993,491.48356929999954,491.48356929999954,492.2667499999998,492.2667499999998,None,num_6,0.3540831000000253,492.2667499999998,None,happy,0,Happy,492.6416359800001,None,None,492.6416359800001,None,,,,,,,,,,,,,,,,,,,,,,,,,,,,,,,,,,,,,,,,,,,,,,,,,,,,,8,001,male,26,350,450,2022_Aug_31_1112,Experiment,2021.1.4,359.93362824293325,
images\S8_M_H_01.png,images\S8_M_H_01_scrambled.png,8,happy,10,male,4,,223,on,2,0.5,0.75,0.5,0.864,3,222,2,1,1,2,2,32,128,164,,,,,,0,72,72,72,,,,,,,,,,,,,,,,,,,,,,,,,,,,,,,,,,,,,,,,,,,,,,,,,,,,,,,,,492.7497995999993,493.25253709999924,493.25253709999924,494.00219539999944,494.00219539999944,494.5076903999998,494.5076903999998,495.37692029999926,495.37692029999926,None,num_4,0.29183330000068963,495.37692029999926,None,sad,0,Happy,495.6739301199999,None,None,495.6739301199999,None,,,,,,,,,,,,,,,,,,,,,,,,,,,,,,,,,,,,,,,,,,,,,,,,,,,,,8,001,male,26,350,450,2022_Aug_31_1112,Experiment,2021.1.4,359.93362824293325,
images\S2_M_S_02.png,images\S2_M_S_02_scrambled.png,2,sad,-20,male,2,,131,off,1,0.5,0.75,0.5,0.932,3,130,1,1,1,0,0,0,0,2,,,,,,0,73,73,73,,,,,,,,,,,,,,,,,,,,,,,,,,,,,,,,,,,,,,,,,,,,,,,,,,,,,,,,,495.7822116999996,496.2848411999994,496.2848411999994,497.03750859999946,497.03750859999946,497.5400439999994,497.5400439999994,498.4786365,498.4786365,None,num_4,0.3341716999993878,498.4786365,None,sad,0,Sad,498.8257409400001,None,None,498.8257409400001,None,,,,,,,,,,,,,,,,,,,,,,,,,,,,,,,,,,,,,,,,,,,,,,,,,,,,,8,001,male,26,350,450,2022_Aug_31_1112,Experiment,2021.1.4,359.93362824293325,
images\S5_F_S_02.png,images\S5_F_S_02_scrambled.png,5,sad,-20,female,2,,209,on,2,0.5,0.75,0.5,0.779,3,208,1,1,2,2,2,32,128,162,,,,,,0,74,74,74,,,,,,,,,,,,,,,,,,,,,,,,,,,,,,,,,,,,,,,,,,,,,,,,,,,,,,,,,498.8729278999999,499.3727773999999,499.3727773999999,500.12541639999927,500.12541639999927,500.62795149999965,500.62795149999965,501.4110906999995,501.4110906999995,None,num_6,0.3456336999997802,501.4110906999995,None,happy,0,Sad,501.76650172000006,None,None,501.76650172000006,None,,,,,,,,,,,,,,,,,,,,,,,,,,,,,,,,,,,,,,,,,,,,,,,,,,,,,8,001,male,26,350,450,2022_Aug_31_1112,Experiment,2021.1.4,359.93362824293325,
images\S4_M_S_02.png,images\S4_M_S_02_scrambled.png,4,sad,-20,male,2,,83,on,2,0.5,0.75,0.5,0.842,3,82,2,1,3,2,2,32,128,162,,,,,,0,75,75,75,,,,,,,,,,,,,,,,,,,,,,,,,,,,,,,,,,,,,,,,,,,,,,,,,,,,,,,,,501.81645839999965,502.31630719999976,502.31630719999976,503.0660965999996,503.0660965999996,503.5715201999992,503.5715201999992,504.4128934999999,504.4128934999999,None,num_4,0.3119254999992336,504.4128934999999,None,sad,0,Sad,504.74345675999956,None,None,504.74345675999956,None,,,,,,,,,,,,,,,,,,,,,,,,,,,,,,,,,,,,,,,,,,,,,,,,,,,,,8,001,male,26,350,450,2022_Aug_31_1112,Experiment,2021.1.4,359.93362824293325,
images\S8_M_S_01.png,images\S8_M_S_01_scrambled.png,8,sad,-10,male,3,,406,off,1,0.5,0.75,0.5,0.848,3,405,1,1,1,0,0,0,0,3,,,,,,0,76,76,76,,,,,,,,,,,,,,,,,,,,,,,,,,,,,,,,,,,,,,,,,,,,,,,,,,,,,,,,,504.80159879999974,505.3070855999995,505.3070855999995,506.0596354999998,506.0596354999998,506.56503579999935,506.56503579999935,507.4147392999994,507.4147392999994,None,num_4,0.6381266000007599,507.4147392999994,None,sad,0,Sad,508.0785060199995,None,None,508.0785060199995,None,,,,,,,,,,,,,,,,,,,,,,,,,,,,,,,,,,,,,,,,,,,,,,,,,,,,,8,001,male,26,350,450,2022_Aug_31_1112,Experiment,2021.1.4,359.93362824293325,
images\S4_M_S_02.png,images\S4_M_S_02_scrambled.png,4,sad,-20,male,2,,143,off,1,0.5,0.75,0.5,0.898,3,142,2,1,1,0,0,0,0,2,,,,,,0,77,77,77,,,,,,,,,,,,,,,,,,,,,,,,,,,,,,,,,,,,,,,,,,,,,,,,,,,,,,,,,508.13684119999925,508.63937179999994,508.63937179999994,509.3919503999996,509.3919503999996,509.8945675999994,509.8945675999994,510.79706739999983,510.79706739999983,None,num_4,0.27986170000076527,510.79706739999983,None,sad,0,Sad,511.0914266399994,None,None,511.0914266399994,None,,,,,,,,,,,,,,,,,,,,,,,,,,,,,,,,,,,,,,,,,,,,,,,,,,,,,8,001,male,26,350,450,2022_Aug_31_1112,Experiment,2021.1.4,359.93362824293325,
images\S8_M_S_02.png,images\S8_M_S_02_scrambled.png,8,sad,-20,male,2,,167,off,1,0.5,0.75,0.5,0.855,3,166,3,1,2,0,0,0,0,2,,,,,,0,78,78,78,,,,,,,,,,,,,,,,,,,,,,,,,,,,,,,,,,,,,,,,,,,,,,,,,,,,,,,,,511.17747729999974,511.67732759999944,511.67732759999944,512.4299037000001,512.4299037000001,512.9352922999997,512.9352922999997,513.7934710999998,513.7934710999998,None,num_4,0.29130780000014056,513.7934710999998,None,sad,0,Sad,514.1072519799997,None,None,514.1072519799997,None,,,,,,,,,,,,,,,,,,,,,,,,,,,,,,,,,,,,,,,,,,,,,,,,,,,,,8,001,male,26,350,450,2022_Aug_31_1112,Experiment,2021.1.4,359.93362824293325,
images\S8_M_H_01.png,images\S8_M_H_01_scrambled.png,8,happy,10,male,4,,403,off,1,0.5,0.75,0.5,0.903,3,402,4,2,1,0,0,0,0,4,,,,,,0,79,79,79,,,,,,,,,,,,,,,,,,,,,,,,,,,,,,,,,,,,,,,,,,,,,,,,,,,,,,,,,514.1598948000001,514.6653239999996,514.6653239999996,515.4206377,515.4206377,515.9204603999997,515.9204603999997,516.8286039999994,516.8286039999994,None,num_6,0.36015800000041054,516.8286039999994,None,happy,0,Happy,517.2006628399994,None,None,517.2006628399994,None,,,,,,,,,,,,,,,,,,,,,,,,,,,,,,,,,,,,,,,,,,,,,,,,,,,,,8,001,male,26,350,450,2022_Aug_31_1112,Experiment,2021.1.4,359.93362824293325,
images\S4_M_H_03.png,images\S4_M_H_03_scrambled.png,4,happy,30,male,6,,141,off,1,0.5,0.75,0.5,0.905,3,140,5,1,1,0,0,0,0,6,,,,,,0,80,80,80,,,,,,,,,,,,,,,,,,,,,,,,,,,,,,,,,,,,,,,,,,,,,,,,,,,,,,,,,517.2839387999993,517.7893780999993,517.7893780999993,518.5419121999994,518.5419121999994,519.0445470999994,519.0445470999994,519.9526582999997,519.9526582999997,None,num_6,0.40438869999979943,519.9526582999997,None,happy,0,Happy,520.3831916199997,None,None,520.3831916199997,None,,,,,,,,,,,,,,,,,,,,,,,,,,,,,,,,,,,,,,,,,,,,,,,,,,,,,8,001,male,26,350,450,2022_Aug_31_1112,Experiment,2021.1.4,359.93362824293325,
images\S8_M_H_01.png,images\S8_M_H_01_scrambled.png,8,happy,10,male,4,,583,on,2,0.5,0.75,0.5,0.857,3,582,1,1,1,2,2,32,128,164,,,,,,0,81,81,81,,,,,,,,,,,,,,,,,,,,,,,,,,,,,,,,,,,,,,,,,,,,,,,,,,,,,,,,,520.4468548999994,520.9494453999996,520.9494453999996,521.7020530999998,521.7020530999998,522.2046893999996,522.2046893999996,523.0683581999992,523.0683581999992,None,num_6,0.2965352000001076,523.0683581999992,None,happy,0,Happy,523.3793161399998,None,None,523.3793161399998,None,,,,,,,,,,,,,,,,,,,,,,,,,,,,,,,,,,,,,,,,,,,,,,,,,,,,,8,001,male,26,350,450,2022_Aug_31_1112,Experiment,2021.1.4,359.93362824293325,
images\S3_F_S_03.png,images\S3_F_S_03_scrambled.png,3,sad,-30,female,1,,498,off,1,0.5,0.75,0.5,0.798,3,497,1,1,1,0,0,0,0,1,,,,,,0,82,82,82,,,,,,,,,,,,,,,,,,,,,,,,,,,,,,,,,,,,,,,,,,,,,,,,,,,,,,,,,523.4625957999997,523.9624655999996,523.9624655999996,524.7122321999996,524.7122321999996,525.2148498999995,525.2148498999995,526.0174487999993,526.0174487999993,None,num_4,0.3072917999998026,526.0174487999993,None,sad,0,Sad,526.3395354999998,None,None,526.3395354999998,None,,,,,,,,,,,,,,,,,,,,,,,,,,,,,,,,,,,,,,,,,,,,,,,,,,,,,8,001,male,26,350,450,2022_Aug_31_1112,Experiment,2021.1.4,359.93362824293325,
images\S3_F_H_03.png,images\S3_F_H_03_scrambled.png,3,happy,30,female,6,,135,off,1,0.5,0.75,0.5,0.764,3,134,2,2,1,0,0,0,0,6,,,,,,0,83,83,83,,,,,,,,,,,,,,,,,,,,,,,,,,,,,,,,,,,,,,,,,,,,,,,,,,,,,,,,,526.3867139999993,526.8865552999996,526.8865552999996,527.6418759999997,527.6418759999997,528.1417134999992,528.1417134999992,528.9081443999994,528.9081443999994,None,num_6,0.872683299999153,528.9081443999994,None,happy,0,Happy,529.7940197400002,None,None,529.7940197400002,None,,,,,,,,,,,,,,,,,,,,,,,,,,,,,,,,,,,,,,,,,,,,,,,,,,,,,8,001,male,26,350,450,2022_Aug_31_1112,Experiment,2021.1.4,359.93362824293325,
images\blank.jpg,images\blank.jpg,none,none,none,none,0,,630,on,2,0.5,0.75,0.5,0.891,0,629,1,1,1,3,3,48,192,240,,,,,,0,84,84,84,,,,,,,,,,,,,,,,,,,,,,,,,,,,,,,,,,,,,,,,,,,,,,,,,,,,,,,,,529.8775540999995,530.3827205999996,530.3827205999996,531.1352437999994,531.1352437999994,531.6378897999994,531.6378897999994,532.5320951999993,532.5320951999993,532.5320951999993,None,,532.5320951999993,None,miss,0,,535.5339542199995,None,None,535.5339542199995,None,,,,,,,,,,,,,,,,,,,,,,,,,,,,,,,,,,,,,,,,,,,,,,,,,,,,,8,001,male,26,350,450,2022_Aug_31_1112,Experiment,2021.1.4,359.93362824293325,
images\S4_M_S_01.png,images\S4_M_S_01_scrambled.png,4,sad,-10,male,3,,382,off,1,0.5,0.75,0.5,0.809,3,381,1,1,1,0,0,0,0,3,,,,,,0,85,85,85,,,,,,,,,,,,,,,,,,,,,,,,,,,,,,,,,,,,,,,,,,,,,,,,,,,,,,,,,535.6562961,536.1587368999999,536.1587368999999,536.9140520999999,536.9140520999999,537.4138650999994,537.4138650999994,538.2276103999993,538.2276103999993,None,num_4,0.28115129999969213,538.2276103999993,535.6562961,sad,0,Sad,538.5219173,None,None,538.5219173,None,,,,,,,,,,,,,,,,,,,,,,,,,,,,,,,,,,,,,,,,,,,,,,,,,,,,,8,001,male,26,350,450,2022_Aug_31_1112,Experiment,2021.1.4,359.93362824293325,
images\S4_M_S_03.png,images\S4_M_S_03_scrambled.png,4,sad,-30,male,1,,444,on,2,0.5,0.75,0.5,0.848,3,443,1,2,1,2,2,32,128,161,,,,,,0,86,86,86,,,,,,,,,,,,,,,,,,,,,,,,,,,,,,,,,,,,,,,,,,,,,,,,,,,,,,,,,538.6301626999993,539.132842,539.132842,539.8881527999993,539.8881527999993,540.3935455999999,540.3935455999999,541.2432843999995,541.2432843999995,None,num_4,0.2494550999999774,541.2432843999995,None,sad,0,Sad,541.5071014,None,None,541.5071014,None,,,,,,,,,,,,,,,,,,,,,,,,,,,,,,,,,,,,,,,,,,,,,,,,,,,,,8,001,male,26,350,450,2022_Aug_31_1112,Experiment,2021.1.4,359.93362824293325,
images\S4_M_H_03.png,images\S4_M_H_03_scrambled.png,4,happy,30,male,6,,501,off,1,0.5,0.75,0.5,0.948,3,500,1,3,1,0,0,0,0,6,,,,,,0,87,87,87,,,,,,,,,,,,,,,,,,,,,,,,,,,,,,,,,,,,,,,,,,,,,,,,,,,,,,,,,541.5542669999995,542.0597406999996,542.0597406999996,542.8150446999998,542.8150446999998,543.3176691999997,543.3176691999997,544.2701305,544.2701305,None,num_6,0.3266122999993968,544.2701305,None,happy,0,Happy,544.6200714799994,None,None,544.6200714799994,None,,,,,,,,,,,,,,,,,,,,,,,,,,,,,,,,,,,,,,,,,,,,,,,,,,,,,8,001,male,26,350,450,2022_Aug_31_1112,Experiment,2021.1.4,359.93362824293325,
images\blank.jpg,images\blank.jpg,none,none,none,none,0,,627,on,2,0.5,0.75,0.5,0.816,0,626,1,1,1,3,3,48,192,240,,,,,,0,88,88,88,,,,,,,,,,,,,,,,,,,,,,,,,,,,,,,,,,,,,,,,,,,,,,,,,,,,,,,,,544.7202275999998,545.2254082999998,545.2254082999998,545.9779432999994,545.9779432999994,546.480568,546.480568,547.2970231999998,547.2970231999998,547.2970231999998,None,,547.2970231999998,None,miss,0,,550.2960444600001,None,None,550.2960444600001,None,,,,,,,,,,,,,,,,,,,,,,,,,,,,,,,,,,,,,,,,,,,,,,,,,,,,,8,001,male,26,350,450,2022_Aug_31_1112,Experiment,2021.1.4,359.93362824293325,
images\S1_F_S_03.png,images\S1_F_S_03_scrambled.png,1,sad,-30,female,1,,306,on,2,0.5,0.75,0.5,0.785,3,305,2,1,1,2,2,32,128,161,,,,,,0,89,89,89,,,,,,,,,,,,,,,,,,,,,,,,,,,,,,,,,,,,,,,,,,,,,,,,,,,,,,,,,550.4101531999995,550.9152900999998,550.9152900999998,551.6678837,551.6678837,552.1676792999997,552.1676792999997,552.9563619,552.9563619,None,num_6,0.2883363000000827,552.9563619,550.4101531999995,happy,0,Sad,553.2562499199998,None,None,553.2562499199998,None,,,,,,,,,,,,,,,,,,,,,,,,,,,,,,,,,,,,,,,,,,,,,,,,,,,,,8,001,male,26,350,450,2022_Aug_31_1112,Experiment,2021.1.4,359.93362824293325,
images\S4_M_H_02.png,images\S4_M_H_02_scrambled.png,4,happy,20,male,5,,380,off,1,0.5,0.75,0.5,0.862,3,379,1,1,1,0,0,0,0,5,,,,,,0,90,90,90,,,,,,,,,,,,,,,,,,,,,,,,,,,,,,,,,,,,,,,,,,,,,,,,,,,,,,,,,553.3034619999999,553.8088736,553.8088736,554.5641845999999,554.5641845999999,555.0695821999998,555.0695821999998,555.9387647999993,555.9387647999993,None,num_6,0.3860063000001901,555.9387647999993,None,happy,0,Happy,556.3359369399994,None,None,556.3359369399994,None,,,,,,,,,,,,,,,,,,,,,,,,,,,,,,,,,,,,,,,,,,,,,,,,,,,,,8,001,male,26,350,450,2022_Aug_31_1112,Experiment,2021.1.4,359.93362824293325,
images\S6_M_H_02.png,images\S6_M_H_02_scrambled.png,6,happy,20,male,5,,572,on,2,0.5,0.75,0.5,0.794,3,571,1,1,2,2,2,32,128,165,,,,,,0,91,91,91,,,,,,,,,,,,,,,,,,,,,,,,,,,,,,,,,,,,,,,,,,,,,,,,,,,,,,,,,556.4191504,556.9217990999996,556.9217990999996,557.6743460999996,557.6743460999996,558.1769654,558.1769654,558.9768248999999,558.9768248999999,None,num_6,0.25192369999967923,558.9768248999999,None,happy,0,Happy,559.2433061399996,None,None,559.2433061399996,None,,,,,,,,,,,,,,,,,,,,,,,,,,,,,,,,,,,,,,,,,,,,,,,,,,,,,8,001,male,26,350,450,2022_Aug_31_1112,Experiment,2021.1.4,359.93362824293325,
images\S5_F_H_03.png,images\S5_F_H_03_scrambled.png,5,happy,30,female,6,,207,on,2,0.5,0.75,0.5,0.801,3,206,2,1,1,2,2,32,128,166,,,,,,0,92,92,92,,,,,,,,,,,,,,,,,,,,,,,,,,,,,,,,,,,,,,,,,,,,,,,,,,,,,,,,,559.2932603999998,559.7987064999998,559.7987064999998,560.5540243999994,560.5540243999994,561.0567369999999,561.0567369999999,561.8647169999995,561.8647169999995,None,num_6,0.33204860000023473,561.8647169999995,None,happy,0,Happy,562.2146306999998,None,None,562.2146306999998,None,,,,,,,,,,,,,,,,,,,,,,,,,,,,,,,,,,,,,,,,,,,,,,,,,,,,,8,001,male,26,350,450,2022_Aug_31_1112,Experiment,2021.1.4,359.93362824293325,
images\S9_F_H_02.png,images\S9_F_H_02_scrambled.png,9,happy,20,female,5,,410,off,1,0.5,0.75,0.5,0.753,3,409,1,1,1,0,0,0,0,5,,,,,,0,93,93,93,,,,,,,,,,,,,,,,,,,,,,,,,,,,,,,,,,,,,,,,,,,,,,,,,,,,,,,,,562.2645712999993,562.7699909999992,562.7699909999992,563.5253104999993,563.5253104999993,564.027959,564.027959,564.7832404000001,564.7832404000001,None,num_6,0.26982440000028873,564.7832404000001,None,happy,0,Happy,565.0722282199995,None,None,565.0722282199995,None,,,,,,,,,,,,,,,,,,,,,,,,,,,,,,,,,,,,,,,,,,,,,,,,,,,,,8,001,male,26,350,450,2022_Aug_31_1112,Experiment,2021.1.4,359.93362824293325,
images\S6_M_H_03.png,images\S6_M_H_03_scrambled.png,6,happy,30,male,6,,333,on,2,0.5,0.75,0.5,0.937,3,332,1,1,1,2,2,32,128,166,,,,,,0,94,94,94,,,,,,,,,,,,,,,,,,,,,,,,,,,,,,,,,,,,,,,,,,,,,,,,,,,,,,,,,565.1775757999994,565.6802024999997,565.6802024999997,566.4327642999997,566.4327642999997,566.9325780999998,566.9325780999998,567.8739509999996,567.8739509999996,None,num_6,0.266925099999753,567.8739509999996,None,happy,0,Happy,568.1628517799996,None,None,568.1628517799996,None,,,,,,,,,,,,,,,,,,,,,,,,,,,,,,,,,,,,,,,,,,,,,,,,,,,,,8,001,male,26,350,450,2022_Aug_31_1112,Experiment,2021.1.4,359.93362824293325,
images\S3_F_H_03.png,images\S3_F_H_03_scrambled.png,3,happy,30,female,6,,75,on,2,0.5,0.75,0.5,0.865,3,74,2,1,2,2,2,32,128,166,,,,,,0,95,95,95,,,,,,,,,,,,,,,,,,,,,,,,,,,,,,,,,,,,,,,,,,,,,,,,,,,,,,,,,568.2266276999999,568.7321521999993,568.7321521999993,569.4818344999994,569.4818344999994,569.9873355,569.9873355,570.8591944,570.8591944,None,num_6,0.24960339999961434,570.8591944,None,happy,0,Happy,571.1313757199996,None,None,571.1313757199996,None,,,,,,,,,,,,,,,,,,,,,,,,,,,,,,,,,,,,,,,,,,,,,,,,,,,,,8,001,male,26,350,450,2022_Aug_31_1112,Experiment,2021.1.4,359.93362824293325,
images\S2_M_S_02.png,images\S2_M_S_02_scrambled.png,2,sad,-20,male,2,,431,on,2,0.5,0.75,0.5,0.775,3,430,3,1,1,2,2,32,128,162,,,,,,0,96,96,96,,,,,,,,,,,,,,,,,,,,,,,,,,,,,,,,,,,,,,,,,,,,,,,,,,,,,,,,,571.1840507999996,571.6894786999992,571.6894786999992,572.4420332999998,572.4420332999998,572.9418470999999,572.9418470999999,573.7222914999993,573.7222914999993,None,num_4,0.20264090000000579,573.7222914999993,None,sad,0,Sad,573.9387960399998,None,None,573.9387960399998,None,,,,,,,,,,,,,,,,,,,,,,,,,,,,,,,,,,,,,,,,,,,,,,,,,,,,,8,001,male,26,350,450,2022_Aug_31_1112,Experiment,2021.1.4,359.93362824293325,
images\S9_F_S_01.png,images\S9_F_S_01_scrambled.png,9,sad,-10,female,3,,52,off,1,0.5,0.75,0.5,0.827,3,51,1,1,1,0,0,0,0,3,,,,,,0,97,97,97,,,,,,,,,,,,,,,,,,,,,,,,,,,,,,,,,,,,,,,,,,,,,,,,,,,,,,,,,573.9887476999993,574.4913772,574.4913772,575.2467425999994,575.2467425999994,575.7521231999999,575.7521231999999,576.5853054999998,576.5853054999998,None,num_4,0.4675513000001956,576.5853054999998,None,sad,0,Sad,577.0740341799998,None,None,577.0740341799998,None,,,,,,,,,,,,,,,,,,,,,,,,,,,,,,,,,,,,,,,,,,,,,,,,,,,,,8,001,male,26,350,450,2022_Aug_31_1112,Experiment,2021.1.4,359.93362824293325,
images\S8_M_H_02.png,images\S8_M_H_02_scrambled.png,8,happy,20,male,5,,584,on,2,0.5,0.75,0.5,0.803,3,583,1,1,1,2,2,32,128,165,,,,,,0,98,98,98,,,,,,,,,,,,,,,,,,,,,,,,,,,,,,,,,,,,,,,,,,,,,,,,,,,,,,,,,577.1822153999992,577.6849772999994,577.6849772999994,578.4346349999996,578.4346349999996,578.9372612999996,578.9372612999996,579.7454608999997,579.7454608999997,None,num_6,0.29137119999995775,579.7454608999997,None,happy,0,Happy,580.0480027399998,None,None,580.0480027399998,None,,,,,,,,,,,,,,,,,,,,,,,,,,,,,,,,,,,,,,,,,,,,,,,,,,,,,8,001,male,26,350,450,2022_Aug_31_1112,Experiment,2021.1.4,359.93362824293325,
images\S1_F_H_01.png,images\S1_F_H_01_scrambled.png,1,happy,10,female,4,,481,off,1,0.5,0.75,0.5,0.855,3,480,1,1,1,0,0,0,0,4,,,,,,0,99,99,99,,,,,,,,,,,,,,,,,,,,,,,,,,,,,,,,,,,,,,,,,,,,,,,,,,,,,,,,,580.0952036999997,580.5977776,580.5977776,581.3476058999995,581.3476058999995,581.8530301000001,581.8530301000001,582.7110613999994,582.7110613999994,None,num_6,0.25364929999977903,582.7110613999994,None,happy,0,Happy,582.9777085999999,None,None,582.9777085999999,None,,,,,,,,,,,,,,,,,,,,,,,,,,,,,,,,,,,,,,,,,,,,,,,,,,,,,8,001,male,26,350,450,2022_Aug_31_1112,Experiment,2021.1.4,359.93362824293325,
images\S4_M_H_01.png,images\S4_M_H_01_scrambled.png,4,happy,10,male,4,,79,on,2,0.5,0.75,0.5,0.943,3,78,1,1,2,2,2,32,128,164,,,,,,0,100,100,100,,,,,,,,,,,,,,,,,,,,,,,,,,,,,,,,,,,,,,,,,,,,,,,,,,,,,,,,,583.0859562999995,583.5913805999999,583.5913805999999,584.3440360999994,584.3440360999994,584.8465495,584.8465495,585.7962659999994,585.7962659999994,None,num_4,0.23246819999985746,585.7962659999994,None,sad,0,Happy,586.03506702,None,None,586.03506702,None,,,,,,,,,,,,,,,,,,,,,,,,,,,,,,,,,,,,,,,,,,,,,,,,,,,,,8,001,male,26,350,450,2022_Aug_31_1112,Experiment,2021.1.4,359.93362824293325,
images\S10_M_H_01.png,images\S10_M_H_01_scrambled.png,10,happy,10,male,4,,355,on,2,0.5,0.75,0.5,0.913,3,354,2,1,3,2,2,32,128,164,,,,,,0,101,101,101,,,,,,,,,,,,,,,,,,,,,,,,,,,,,,,,,,,,,,,,,,,,,,,,,,,,,,,,,586.0878094,586.5904332999999,586.5904332999999,587.3402120000001,587.3402120000001,587.8456514999998,587.8456514999998,588.7648436999998,588.7648436999998,None,num_6,0.4719976999995197,588.7648436999998,None,happy,0,Happy,589.2564433599994,None,None,589.2564433599994,None,,,,,,,,,,,,,,,,,,,,,,,,,,,,,,,,,,,,,,,,,,,,,,,,,,,,,8,001,male,26,350,450,2022_Aug_31_1112,Experiment,2021.1.4,359.93362824293325,
images\S8_M_S_02.png,images\S8_M_S_02_scrambled.png,8,sad,-20,male,2,,47,off,1,0.5,0.75,0.5,0.884,3,46,1,1,1,0,0,0,0,2,,,,,,0,102,102,102,,,,,,,,,,,,,,,,,,,,,,,,,,,,,,,,,,,,,,,,,,,,,,,,,,,,,,,,,589.3090408999997,589.8145507999998,589.8145507999998,590.5642374999998,590.5642374999998,591.0697393999999,591.0697393999999,591.9610465999995,591.9610465999995,None,num_4,0.5477203999998892,591.9610465999995,None,sad,0,Sad,592.5247675999994,None,None,592.5247675999994,None,,,,,,,,,,,,,,,,,,,,,,,,,,,,,,,,,,,,,,,,,,,,,,,,,,,,,8,001,male,26,350,450,2022_Aug_31_1112,Experiment,2021.1.4,359.93362824293325,
images\S4_M_H_03.png,images\S4_M_H_03_scrambled.png,4,happy,30,male,6,,81,on,2,0.5,0.75,0.5,0.813,3,80,1,1,1,2,2,32,128,166,,,,,,0,103,103,103,,,,,,,,,,,,,,,,,,,,,,,,,,,,,,,,,,,,,,,,,,,,,,,,,,,,,,,,,592.5719322999994,593.0747175999995,593.0747175999995,593.8243507999996,593.8243507999996,594.3298154999993,594.3298154999993,595.1461706999999,595.1461706999999,None,num_6,0.2587290999999823,595.1461706999999,None,happy,0,Happy,595.4212083599998,None,None,595.4212083599998,None,,,,,,,,,,,,,,,,,,,,,,,,,,,,,,,,,,,,,,,,,,,,,,,,,,,,,8,001,male,26,350,450,2022_Aug_31_1112,Experiment,2021.1.4,359.93362824293325,
images\S7_F_H_01.png,images\S7_F_H_01_scrambled.png,7,happy,10,female,4,,397,off,1,0.5,0.75,0.5,0.769,3,396,1,1,1,0,0,0,0,4,,,,,,0,104,104,104,,,,,,,,,,,,,,,,,,,,,,,,,,,,,,,,,,,,,,,,,,,,,,,,,,,,,,,,,595.5321335999997,596.0348144999998,596.0348144999998,596.7845498999995,596.7845498999995,597.2871515999996,597.2871515999996,598.0619336,598.0619336,None,num_6,0.2868781000006493,598.0619336,None,happy,0,Happy,598.3702362800001,None,None,598.3702362800001,None,,,,,,,,,,,,,,,,,,,,,,,,,,,,,,,,,,,,,,,,,,,,,,,,,,,,,8,001,male,26,350,450,2022_Aug_31_1112,Experiment,2021.1.4,359.93362824293325,
images\S6_M_H_01.png,images\S6_M_H_01_scrambled.png,6,happy,10,male,4,,571,on,2,0.5,0.75,0.5,0.849,3,570,1,1,2,2,2,32,128,164,,,,,,0,105,105,105,,,,,,,,,,,,,,,,,,,,,,,,,,,,,,,,,,,,,,,,,,,,,,,,,,,,,,,,,598.4258002999995,598.9310904999993,598.9310904999993,599.6864370999992,599.6864370999992,600.1891659999992,600.1891659999992,601.0444619,601.0444619,None,num_6,0.19224279999980354,601.0444619,None,happy,0,Happy,601.2526462000001,None,None,601.2526462000001,None,,,,,,,,,,,,,,,,,,,,,,,,,,,,,,,,,,,,,,,,,,,,,,,,,,,,,8,001,male,26,350,450,2022_Aug_31_1112,Experiment,2021.1.4,359.93362824293325,
images\S2_M_H_01.png,images\S2_M_H_01_scrambled.png,2,happy,10,male,4,,247,off,1,0.5,0.75,0.5,0.79,3,246,1,1,3,0,0,0,0,4,,,,,,0,106,106,106,,,,,,,,,,,,,,,,,,,,,,,,,,,,,,,,,,,,,,,,,,,,,,,,,,,,,,,,,601.3025871,601.8079834999999,601.8079834999999,602.5577871999994,602.5577871999994,603.0604223999999,603.0604223999999,603.8546659999993,603.8546659999993,None,num_4,0.278252899999643,603.8546659999993,None,sad,0,Happy,604.1433974199995,None,None,604.1433974199995,None,,,,,,,,,,,,,,,,,,,,,,,,,,,,,,,,,,,,,,,,,,,,,,,,,,,,,8,001,male,26,350,450,2022_Aug_31_1112,Experiment,2021.1.4,359.93362824293325,
images\S10_M_S_01.png,images\S10_M_S_01_scrambled.png,10,sad,-10,male,3,,58,off,1,0.5,0.75,0.5,0.854,3,57,2,1,1,0,0,0,0,3,,,,,,0,107,107,107,,,,,,,,,,,,,,,,,,,,,,,,,,,,,,,,,,,,,,,,,,,,,,,,,,,,,,,,,604.1905864,604.6960162999994,604.6960162999994,605.4457635999997,605.4457635999997,605.9485099999993,605.9485099999993,606.8064728999998,606.8064728999998,None,num_6,0.4383838999992804,606.8064728999998,None,happy,0,Sad,607.2563743799993,None,None,607.2563743799993,None,,,,,,,,,,,,,,,,,,,,,,,,,,,,,,,,,,,,,,,,,,,,,,,,,,,,,8,001,male,26,350,450,2022_Aug_31_1112,Experiment,2021.1.4,359.93362824293325,
images\S4_M_S_03.png,images\S4_M_S_03_scrambled.png,4,sad,-30,male,1,,84,on,2,0.5,0.75,0.5,0.9,3,83,1,1,1,2,2,32,128,161,,,,,,0,108,108,108,,,,,,,,,,,,,,,,,,,,,,,,,,,,,,,,,,,,,,,,,,,,,,,,,,,,,,,,,607.3146259999994,607.8172539999996,607.8172539999996,608.5698188999995,608.5698188999995,609.0752411999993,609.0752411999993,609.9804887999999,609.9804887999999,None,num_4,0.5123548999999912,609.9804887999999,None,sad,0,Sad,610.51933858,None,None,610.51933858,None,,,,,,,,,,,,,,,,,,,,,,,,,,,,,,,,,,,,,,,,,,,,,,,,,,,,,8,001,male,26,350,450,2022_Aug_31_1112,Experiment,2021.1.4,359.93362824293325,
images\S5_F_H_01.png,images\S5_F_H_01_scrambled.png,5,happy,10,female,4,,205,on,2,0.5,0.75,0.5,0.9,3,204,2,1,1,2,2,32,128,164,,,,,,0,109,109,109,,,,,,,,,,,,,,,,,,,,,,,,,,,,,,,,,,,,,,,,,,,,,,,,,,,,,,,,,610.6274930999998,611.1301881999998,611.1301881999998,611.8798959999995,611.8798959999995,612.3853515000001,612.3853515000001,613.2906138999997,613.2906138999997,None,num_6,0.5941838999997344,613.2906138999997,None,happy,0,Happy,613.8960489399996,None,None,613.8960489399996,None,,,,,,,,,,,,,,,,,,,,,,,,,,,,,,,,,,,,,,,,,,,,,,,,,,,,,8,001,male,26,350,450,2022_Aug_31_1112,Experiment,2021.1.4,359.93362824293325,
images\S10_M_H_02.png,images\S10_M_H_02_scrambled.png,10,happy,20,male,5,,476,on,2,0.5,0.75,0.5,0.935,3,475,3,1,1,2,2,32,128,165,,,,,,0,110,110,110,,,,,,,,,,,,,,,,,,,,,,,,,,,,,,,,,,,,,,,,,,,,,,,,,,,,,,,,,613.9792454999997,614.4818847999995,614.4818847999995,615.2316574999995,615.2316574999995,615.7342978999995,615.7342978999995,616.6729224000001,616.6729224000001,None,num_6,0.27594050000061543,616.6729224000001,None,happy,0,Happy,616.9644731400002,None,None,616.9644731400002,None,,,,,,,,,,,,,,,,,,,,,,,,,,,,,,,,,,,,,,,,,,,,,,,,,,,,,8,001,male,26,350,450,2022_Aug_31_1112,Experiment,2021.1.4,359.93362824293325,
images\S4_M_H_03.png,images\S4_M_H_03_scrambled.png,4,happy,30,male,6,,561,on,2,0.5,0.75,0.5,0.82,3,560,4,1,1,2,2,32,128,166,,,,,,0,111,111,111,,,,,,,,,,,,,,,,,,,,,,,,,,,,,,,,,,,,,,,,,,,,,,,,,,,,,,,,,617.0144393999999,617.5170421999992,617.5170421999992,618.2668358999999,618.2668358999999,618.7723589999996,618.7723589999996,619.5942234999993,619.5942234999993,None,num_6,0.3226538000008077,619.5942234999993,None,happy,0,Happy,619.9302307400002,None,None,619.9302307400002,None,,,,,,,,,,,,,,,,,,,,,,,,,,,,,,,,,,,,,,,,,,,,,,,,,,,,,8,001,male,26,350,450,2022_Aug_31_1112,Experiment,2021.1.4,359.93362824293325,
images\S4_M_S_01.png,images\S4_M_S_01_scrambled.png,4,sad,-10,male,3,,502,off,1,0.5,0.75,0.5,0.854,3,501,1,2,1,0,0,0,0,3,,,,,,0,112,112,112,,,,,,,,,,,,,,,,,,,,,,,,,,,,,,,,,,,,,,,,,,,,,,,,,,,,,,,,,619.9801885999996,620.4856108999993,620.4856108999993,621.2382577999997,621.2382577999997,621.7407539999995,621.7407539999995,622.5988803,622.5988803,None,num_4,0.3019794000001639,622.5988803,None,sad,0,Sad,622.92936858,None,None,622.92936858,None,,,,,,,,,,,,,,,,,,,,,,,,,,,,,,,,,,,,,,,,,,,,,,,,,,,,,8,001,male,26,350,450,2022_Aug_31_1112,Experiment,2021.1.4,359.93362824293325,
images\S1_F_H_02.png,images\S1_F_H_02_scrambled.png,1,happy,20,female,5,,422,on,2,0.5,0.75,0.5,0.879,3,421,1,1,1,2,2,32,128,165,,,,,,0,113,113,113,,,,,,,,,,,,,,,,,,,,,,,,,,,,,,,,,,,,,,,,,,,,,,,,,,,,,,,,,622.9820370999996,623.4846953999995,623.4846953999995,624.2343788999997,624.2343788999997,624.7398684,624.7398684,625.6228926999993,625.6228926999993,None,num_6,0.23778450000008888,625.6228926999993,None,happy,0,Happy,625.8784299999993,None,None,625.8784299999993,None,,,,,,,,,,,,,,,,,,,,,,,,,,,,,,,,,,,,,,,,,,,,,,,,,,,,,8,001,male,26,350,450,2022_Aug_31_1112,Experiment,2021.1.4,359.93362824293325,
images\S3_F_S_03.png,images\S3_F_S_03_scrambled.png,3,sad,-30,female,1,,558,on,2,0.5,0.75,0.5,0.775,3,557,2,1,1,2,2,32,128,161,,,,,,0,114,114,114,,,,,,,,,,,,,,,,,,,,,,,,,,,,,,,,,,,,,,,,,,,,,,,,,,,,,,,,,625.9338539,626.4393565,626.4393565,627.1946767,627.1946767,627.6945231,627.6945231,628.4720653999993,628.4720653999993,None,num_4,0.27685250000013184,628.4720653999993,None,sad,0,Sad,628.7693774799997,None,None,628.7693774799997,None,,,,,,,,,,,,,,,,,,,,,,,,,,,,,,,,,,,,,,,,,,,,,,,,,,,,,8,001,male,26,350,450,2022_Aug_31_1112,Experiment,2021.1.4,359.93362824293325,
images\S7_F_H_02.png,images\S7_F_H_02_scrambled.png,7,happy,20,female,5,,578,on,2,0.5,0.75,0.5,0.905,3,577,3,1,1,2,2,32,128,165,,,,,,0,115,115,115,,,,,,,,,,,,,,,,,,,,,,,,,,,,,,,,,,,,,,,,,,,,,,,,,,,,,,,,,628.8219116999999,629.3217755999995,629.3217755999995,630.0743365999997,630.0743365999997,630.579753,630.579753,631.4877621999995,631.4877621999995,None,num_6,0.40503650000027847,631.4877621999995,None,happy,0,Happy,631.9043289399996,None,None,631.9043289399996,None,,,,,,,,,,,,,,,,,,,,,,,,,,,,,,,,,,,,,,,,,,,,,,,,,,,,,8,001,male,26,350,450,2022_Aug_31_1112,Experiment,2021.1.4,359.93362824293325,
images\blank.jpg,images\blank.jpg,none,none,none,none,0,,607,on,2,0.5,0.75,0.5,0.925,0,606,4,1,1,3,3,48,192,240,,,,,,0,116,116,116,,,,,,,,,,,,,,,,,,,,,,,,,,,,,,,,,,,,,,,,,,,,,,,,,,,,,,,,,631.9906376999998,632.4930295999993,632.4930295999993,633.2457036999995,633.2457036999995,633.7454093999995,633.7454093999995,634.6701417999993,634.6701417999993,634.6701417999993,None,,634.6701417999993,None,miss,0,,637.6748239200001,None,None,637.6748239200001,None,,,,,,,,,,,,,,,,,,,,,,,,,,,,,,,,,,,,,,,,,,,,,,,,,,,,,8,001,male,26,350,450,2022_Aug_31_1112,Experiment,2021.1.4,359.93362824293325,
images\S2_M_H_02.png,images\S2_M_H_02_scrambled.png,2,happy,20,male,5,,488,off,1,0.5,0.75,0.5,0.94,3,487,1,1,1,0,0,0,0,5,,,,,,0,117,117,117,,,,,,,,,,,,,,,,,,,,,,,,,,,,,,,,,,,,,,,,,,,,,,,,,,,,,,,,,637.7944410999999,638.2968260999996,638.2968260999996,639.0494731999997,639.0494731999997,639.5519582999996,639.5519582999996,640.4961395999999,640.4961395999999,None,num_4,0.24458539999977802,640.4961395999999,637.7944410999999,sad,0,Happy,640.7488236200002,None,None,640.7488236200002,None,,,,,,,,,,,,,,,,,,,,,,,,,,,,,,,,,,,,,,,,,,,,,,,,,,,,,8,001,male,26,350,450,2022_Aug_31_1112,Experiment,2021.1.4,359.93362824293325,
images\S1_F_S_01.png,images\S1_F_S_01_scrambled.png,1,sad,-10,female,3,,484,off,1,0.5,0.75,0.5,0.846,3,483,2,1,1,0,0,0,0,3,,,,,,0,118,118,118,,,,,,,,,,,,,,,,,,,,,,,,,,,,,,,,,,,,,,,,,,,,,,,,,,,,,,,,,640.7960235999999,641.3014987999995,641.3014987999995,642.0511876,642.0511876,642.5566540999998,642.5566540999998,643.4091828999999,643.4091828999999,None,num_6,0.31550719999995636,643.4091828999999,None,happy,0,Sad,643.7340362199998,None,None,643.7340362199998,None,,,,,,,,,,,,,,,,,,,,,,,,,,,,,,,,,,,,,,,,,,,,,,,,,,,,,8,001,male,26,350,450,2022_Aug_31_1112,Experiment,2021.1.4,359.93362824293325,
images\S9_F_S_03.png,images\S9_F_S_03_scrambled.png,9,sad,-30,female,1,,414,off,1,0.5,0.75,0.5,0.81,3,413,3,1,1,0,0,0,0,1,,,,,,0,119,119,119,,,,,,,,,,,,,,,,,,,,,,,,,,,,,,,,,,,,,,,,,,,,,,,,,,,,,,,,,643.8256461999999,644.3254902999997,644.3254902999997,645.0780685,645.0780685,645.5806911999998,645.5806911999998,646.3915209999996,646.3915209999996,None,num_4,0.2533794000000853,646.3915209999996,None,sad,0,Sad,646.6720722799997,None,None,646.6720722799997,None,,,,,,,,,,,,,,,,,,,,,,,,,,,,,,,,,,,,,,,,,,,,,,,,,,,,,8,001,male,26,350,450,2022_Aug_31_1112,Experiment,2021.1.4,359.93362824293325,
images\S6_M_S_01.png,images\S6_M_S_01_scrambled.png,6,sad,-10,male,3,,574,on,2,0.5,0.75,0.5,0.943,3,573,1,1,1,2,2,32,128,163,,,,,,0,120,120,120,,,,,,,,,,,,,,,,,,,,,,,,,,,,,,,,,,,,,,,,,,,,,,,,,,,,,,,,,646.7358569999997,647.2385040999998,647.2385040999998,647.9910609999997,647.9910609999997,648.4965139999995,648.4965139999995,649.4433913999992,649.4433913999992,None,num_4,0.02535870000065188,649.4433913999992,None,sad,0,Sad,649.4906194800002,None,None,649.4906194800002,None,,,,,,,,,,,,,,,,,,,,,,,,,,,,,,,,,,,,,,,,,,,,,,,,,,,,,8,001,male,26,350,450,2022_Aug_31_1112,Experiment,2021.1.4,359.93362824293325,
images\S5_F_S_02.png,images\S5_F_S_02_scrambled.png,5,sad,-20,female,2,,449,on,2,0.5,0.75,0.5,0.785,3,448,2,1,1,2,2,32,128,162,,,,,,0,121,121,121,,,,,,,,,,,,,,,,,,,,,,,,,,,,,,,,,,,,,,,,,,,,,,,,,,,,,,,,,649.5433499999999,650.0460974999996,650.0460974999996,650.8014072999995,650.8014072999995,651.3067711999993,651.3067711999993,652.0981333999998,652.0981333999998,None,num_6,0.6427101999997831,652.0981333999998,None,happy,0,Sad,652.7451499200001,None,None,652.7451499200001,None,,,,,,,,,,,,,,,,,,,,,,,,,,,,,,,,,,,,,,,,,,,,,,,,,,,,,8,001,male,26,350,450,2022_Aug_31_1112,Experiment,2021.1.4,359.93362824293325,
images\S3_F_S_01.png,images\S3_F_S_01_scrambled.png,3,sad,-10,female,3,,556,on,2,0.5,0.75,0.5,0.909,3,555,3,1,1,2,2,32,128,163,,,,,,0,122,122,122,,,,,,,,,,,,,,,,,,,,,,,,,,,,,,,,,,,,,,,,,,,,,,,,,,,,,,,,,652.7923280999994,653.2949630999992,653.2949630999992,654.0447260000001,654.0447260000001,654.5474908999995,654.5474908999995,655.4582238999992,655.4582238999992,None,num_4,0.33056109999961336,655.4582238999992,None,sad,0,Sad,655.8053426000001,None,None,655.8053426000001,None,,,,,,,,,,,,,,,,,,,,,,,,,,,,,,,,,,,,,,,,,,,,,,,,,,,,,8,001,male,26,350,450,2022_Aug_31_1112,Experiment,2021.1.4,359.93362824293325,
images\S8_M_S_02.png,images\S8_M_S_02_scrambled.png,8,sad,-20,male,2,,527,off,1,0.5,0.75,0.5,0.836,3,526,1,1,1,0,0,0,0,2,,,,,,0,123,123,123,,,,,,,,,,,,,,,,,,,,,,,,,,,,,,,,,,,,,,,,,,,,,,,,,,,,,,,,,655.8525175999994,656.3579245000001,656.3579245000001,657.1076760999995,657.1076760999995,657.6131230999999,657.6131230999999,658.4517066999997,658.4517066999997,None,num_4,0.5450313999999707,658.4517066999997,None,sad,0,Sad,659.0155079199994,None,None,659.0155079199994,None,,,,,,,,,,,,,,,,,,,,,,,,,,,,,,,,,,,,,,,,,,,,,,,,,,,,,8,001,male,26,350,450,2022_Aug_31_1112,Experiment,2021.1.4,359.93362824293325,
images\S10_M_S_02.png,images\S10_M_S_02_scrambled.png,10,sad,-20,male,2,,419,off,1,0.5,0.75,0.5,0.885,3,418,2,1,2,0,0,0,0,2,,,,,,0,124,124,124,,,,,,,,,,,,,,,,,,,,,,,,,,,,,,,,,,,,,,,,,,,,,,,,,,,,,,,,,659.0709618999999,659.5764905999995,659.5764905999995,660.3289101,660.3289101,660.8316820999999,660.8316820999999,661.7231339999998,661.7231339999998,None,num_4,0.3136274999997113,661.7231339999998,None,sad,0,Sad,662.0562191199997,None,None,662.0562191199997,None,,,,,,,,,,,,,,,,,,,,,,,,,,,,,,,,,,,,,,,,,,,,,,,,,,,,,8,001,male,26,350,450,2022_Aug_31_1112,Experiment,2021.1.4,359.93362824293325,
images\S1_F_S_02.png,images\S1_F_S_02_scrambled.png,1,sad,-20,female,2,,485,off,1,0.5,0.75,0.5,0.819,3,484,3,1,3,0,0,0,0,2,,,,,,0,125,125,125,,,,,,,,,,,,,,,,,,,,,,,,,,,,,,,,,,,,,,,,,,,,,,,,,,,,,,,,,662.1089150999996,662.6115622999996,662.6115622999996,663.3668645999996,663.3668645999996,663.8723980999994,663.8723980999994,664.6942669,664.6942669,None,num_6,0.31052359999921464,664.6942669,None,happy,0,Sad,665.01083702,None,None,665.01083702,None,,,,,,,,,,,,,,,,,,,,,,,,,,,,,,,,,,,,,,,,,,,,,,,,,,,,,8,001,male,26,350,450,2022_Aug_31_1112,Experiment,2021.1.4,359.93362824293325,
images\S4_M_S_03.png,images\S4_M_S_03_scrambled.png,4,sad,-30,male,1,,24,off,1,0.5,0.75,0.5,0.872,3,23,4,1,1,0,0,0,0,1,,,,,,0,126,126,126,,,,,,,,,,,,,,,,,,,,,,,,,,,,,,,,,,,,,,,,,,,,,,,,,,,,,,,,,665.0635698999995,665.5661880999996,665.5661880999996,666.3215369999998,666.3215369999998,666.8242651,666.8242651,667.7016731999993,667.7016731999993,None,num_4,0.4470926000003601,667.7016731999993,None,sad,0,Sad,668.1626486399999,None,None,668.1626486399999,None,,,,,,,,,,,,,,,,,,,,,,,,,,,,,,,,,,,,,,,,,,,,,,,,,,,,,8,001,male,26,350,450,2022_Aug_31_1112,Experiment,2021.1.4,359.93362824293325,
images\S9_F_S_02.png,images\S9_F_S_02_scrambled.png,9,sad,-20,female,2,,593,on,2,0.5,0.75,0.5,0.773,3,592,1,1,1,2,2,32,128,162,,,,,,0,127,127,127,,,,,,,,,,,,,,,,,,,,,,,,,,,,,,,,,,,,,,,,,,,,,,,,,,,,,,,,,668.2126056999996,668.7124460999994,668.7124460999994,669.4650334999997,669.4650334999997,669.96774,669.96774,670.7451923999997,670.7451923999997,None,num_4,0.25163829999928566,670.7451923999997,None,sad,0,Sad,671.0117741399998,None,None,671.0117741399998,None,,,,,,,,,,,,,,,,,,,,,,,,,,,,,,,,,,,,,,,,,,,,,,,,,,,,,8,001,male,26,350,450,2022_Aug_31_1112,Experiment,2021.1.4,359.93362824293325,
images\S2_M_H_03.png,images\S2_M_H_03_scrambled.png,2,happy,30,male,6,,369,off,1,0.5,0.75,0.5,0.85,3,368,1,1,1,0,0,0,0,6,,,,,,0,128,128,128,,,,,,,,,,,,,,,,,,,,,,,,,,,,,,,,,,,,,,,,,,,,,,,,,,,,,,,,,671.0617362999992,671.5671427999996,671.5671427999996,672.3197492999998,672.3197492999998,672.8251321999996,672.8251321999996,673.6804094999998,673.6804094999998,None,num_6,0.30032500000015716,673.6804094999998,None,happy,0,Happy,674.00257272,None,None,674.00257272,None,,,,,,,,,,,,,,,,,,,,,,,,,,,,,,,,,,,,,,,,,,,,,,,,,,,,,8,001,male,26,350,450,2022_Aug_31_1112,Experiment,2021.1.4,359.93362824293325,
images\S7_F_S_01.png,images\S7_F_S_01_scrambled.png,7,sad,-10,female,3,,160,off,1,0.5,0.75,0.5,0.81,3,159,2,1,1,0,0,0,0,3,,,,,,0,129,129,129,,,,,,,,,,,,,,,,,,,,,,,,,,,,,,,,,,,,,,,,,,,,,,,,,,,,,,,,,674.0580352999996,674.5578757999992,674.5578757999992,675.3077002999999,675.3077002999999,675.8074984999994,675.8074984999994,676.6211630999996,676.6211630999996,None,num_4,0.2795609999993758,676.6211630999996,None,sad,0,Sad,676.9155094400002,None,None,676.9155094400002,None,,,,,,,,,,,,,,,,,,,,,,,,,,,,,,,,,,,,,,,,,,,,,,,,,,,,,8,001,male,26,350,450,2022_Aug_31_1112,Experiment,2021.1.4,359.93362824293325,
images\S2_M_H_03.png,images\S2_M_H_03_scrambled.png,2,happy,30,male,6,,9,off,1,0.5,0.75,0.5,0.834,3,8,3,1,1,0,0,0,0,6,,,,,,0,130,130,130,,,,,,,,,,,,,,,,,,,,,,,,,,,,,,,,,,,,,,,,,,,,,,,,,,,,,,,,,676.9627022999994,677.4653277999996,677.4653277999996,678.2180109999999,678.2180109999999,678.7233849999993,678.7233849999993,679.5591617999999,679.5591617999999,None,num_6,0.30172309999943536,679.5591617999999,None,happy,0,Happy,679.8812368999997,None,space,679.8812368999997,None,26.003457400000116,,,,,,,,,,,,,,,,,,,,,,,,,,,,,,,,,,,,,,,,,,,,,,,,,,,,8,001,male,26,350,450,2022_Aug_31_1112,Experiment,2021.1.4,359.93362824293325,
images\S3_F_S_01.png,images\S3_F_S_01_scrambled.png,3,sad,-10,female,3,,76,on,2,0.5,0.75,0.5,0.912,3,75,1,1,1,2,2,32,128,163,,,,,,0,131,131,131,,,,,,,,,,,,,,,,,,,,,,,,,,,,,,,,,,,,,,,,,,,,,,,,,,,,,,,,,705.9398542999998,706.4425551999993,706.4425551999993,707.1951069999996,707.1951069999996,707.6949553999993,707.6949553999993,708.6113103999996,708.6113103999996,None,num_4,0.26555520000056276,708.6113103999996,None,sad,0,Sad,708.9029756199998,None,None,708.9029756199998,None,,,,,,,,,,,,,,,,,,,,,,,,,,,,,,,,,,,,,,,,,,,,,,,,,,,,,8,001,male,26,350,450,2022_Aug_31_1112,Experiment,2021.1.4,359.93362824293325,
images\S6_M_S_03.png,images\S6_M_S_03_scrambled.png,6,sad,-30,male,1,,516,off,1,0.5,0.75,0.5,0.784,3,515,1,1,1,0,0,0,0,1,,,,,,0,132,132,132,,,,,,,,,,,,,,,,,,,,,,,,,,,,,,,,,,,,,,,,,,,,,,,,,,,,,,,,,708.9584203999993,709.4609872999999,709.4609872999999,710.2108218999992,710.2108218999992,710.7162799999996,710.7162799999996,711.5020895999996,711.5020895999996,None,num_4,0.27862269999968703,711.5020895999996,None,sad,0,Sad,711.7964785999998,None,None,711.7964785999998,None,,,,,,,,,,,,,,,,,,,,,,,,,,,,,,,,,,,,,,,,,,,,,,,,,,,,,8,001,male,26,350,450,2022_Aug_31_1112,Experiment,2021.1.4,359.93362824293325,
images\S7_F_S_02.png,images\S7_F_S_02_scrambled.png,7,sad,-20,female,2,,101,on,2,0.5,0.75,0.5,0.775,3,100,1,1,1,2,2,32,128,162,,,,,,0,133,133,133,,,,,,,,,,,,,,,,,,,,,,,,,,,,,,,,,,,,,,,,,,,,,,,,,,,,,,,,,711.8436546999992,712.3463334999997,712.3463334999997,713.1016401999996,713.1016401999996,713.6070375999998,713.6070375999998,714.3846802999997,714.3846802999997,None,num_4,0.3240415000000212,714.3846802999997,None,sad,0,Sad,714.72334554,None,None,714.72334554,None,,,,,,,,,,,,,,,,,,,,,,,,,,,,,,,,,,,,,,,,,,,,,,,,,,,,,8,001,male,26,350,450,2022_Aug_31_1112,Experiment,2021.1.4,359.93362824293325,
images\blank.jpg,images\blank.jpg,none,none,none,none,0,,647,on,2,0.5,0.75,0.5,0.796,0,646,2,1,1,3,3,48,192,240,,,,,,0,134,134,134,,,,,,,,,,,,,,,,,,,,,,,,,,,,,,,,,,,,,,,,,,,,,,,,,,,,,,,,,714.8068513999997,715.3120893999994,715.3120893999994,716.0646419999994,716.0646419999994,716.5672414999999,716.5672414999999,717.3670130999999,717.3670130999999,717.3670130999999,None,,717.3670130999999,None,miss,0,,720.3660583600001,None,None,720.3660583600001,None,,,,,,,,,,,,,,,,,,,,,,,,,,,,,,,,,,,,,,,,,,,,,,,,,,,,,8,001,male,26,350,450,2022_Aug_31_1112,Experiment,2021.1.4,359.93362824293325,
images\S9_F_H_03.png,images\S9_F_H_03_scrambled.png,9,happy,30,female,6,,591,on,2,0.5,0.75,0.5,0.814,3,590,3,1,1,2,2,32,128,166,,,,,,0,135,135,135,,,,,,,,,,,,,,,,,,,,,,,,,,,,,,,,,,,,,,,,,,,,,,,,,,,,,,,,,720.4831279999999,720.9881221999995,720.9881221999995,721.7378527000001,721.7378527000001,722.2432942999994,722.2432942999994,723.0625535999998,723.0625535999998,None,num_6,0.414318799999819,723.0625535999998,720.4831279999999,happy,0,Happy,723.4928848399994,None,None,723.4928848399994,None,,,,,,,,,,,,,,,,,,,,,,,,,,,,,,,,,,,,,,,,,,,,,,,,,,,,,8,001,male,26,350,450,2022_Aug_31_1112,Experiment,2021.1.4,359.93362824293325,
images\S6_M_S_03.png,images\S6_M_S_03_scrambled.png,6,sad,-30,male,1,,156,off,1,0.5,0.75,0.5,0.924,3,155,1,1,1,0,0,0,0,1,,,,,,0,136,136,136,,,,,,,,,,,,,,,,,,,,,,,,,,,,,,,,,,,,,,,,,,,,,,,,,,,,,,,,,723.5428469999997,724.0483853999995,724.0483853999995,724.8008320999998,724.8008320999998,725.3034465999999,725.3034465999999,726.2309316999999,726.2309316999999,None,num_4,0.2698840000002747,726.2309316999999,None,sad,0,Sad,726.5225707199997,None,None,726.5225707199997,None,,,,,,,,,,,,,,,,,,,,,,,,,,,,,,,,,,,,,,,,,,,,,,,,,,,,,8,001,male,26,350,450,2022_Aug_31_1112,Experiment,2021.1.4,359.93362824293325,
images\S3_F_H_02.png,images\S3_F_H_02_scrambled.png,3,happy,20,female,5,,434,on,2,0.5,0.75,0.5,0.897,3,433,1,1,1,2,2,32,128,165,,,,,,0,137,137,137,,,,,,,,,,,,,,,,,,,,,,,,,,,,,,,,,,,,,,,,,,,,,,,,,,,,,,,,,726.5780104999994,727.0806769999999,727.0806769999999,727.8331861999995,727.8331861999995,728.3358123999997,728.3358123999997,729.2355766000001,729.2355766000001,None,num_6,0.24929310000061378,729.2355766000001,None,happy,0,Happy,729.4993886999996,None,None,729.4993886999996,None,,,,,,,,,,,,,,,,,,,,,,,,,,,,,,,,,,,,,,,,,,,,,,,,,,,,,8,001,male,26,350,450,2022_Aug_31_1112,Experiment,2021.1.4,359.93362824293325,
images\S2_M_H_02.png,images\S2_M_H_02_scrambled.png,2,happy,20,male,5,,368,off,1,0.5,0.75,0.5,0.775,3,367,1,1,2,0,0,0,0,5,,,,,,0,138,138,138,,,,,,,,,,,,,,,,,,,,,,,,,,,,,,,,,,,,,,,,,,,,,,,,,,,,,,,,,729.5465549999999,730.051966,730.051966,730.8045787000001,730.8045787000001,731.3099586999997,731.3099586999997,732.0902593000001,732.0902593000001,None,num_6,0.39458600000034494,732.0902593000001,None,happy,0,Happy,732.4984493399996,None,None,732.4984493399996,None,,,,,,,,,,,,,,,,,,,,,,,,,,,,,,,,,,,,,,,,,,,,,,,,,,,,,8,001,male,26,350,450,2022_Aug_31_1112,Experiment,2021.1.4,359.93362824293325,
