image_face,image_scram,avatar,emo,emotion,sex,trigeeg,dac,trial_no,NMES,stimtime,baseline,iti,face,scr_face,resp_time,index,count_NMES,count_avatar,count_emotion,dac1,dac2,dac1_output,dac2_output,trigs_out,nmes,practice_trials.thisRepN,practice_trials.thisTrialN,practice_trials.thisN,practice_trials.thisIndex,real_trials.thisRepN,real_trials.thisTrialN,real_trials.thisN,real_trials.thisIndex,trials.thisRepN,trials.thisTrialN,trials.thisN,trials.thisIndex,position,Welcome.started,Welcome.stopped,Welcome_resp.keys,Welcome_resp.rt,text_2.started,text_2.stopped,form_2.index,form_2.itemText,form_2.type,form_2.response,form_2.rt,key_resp_4.keys,key_resp_4.rt,key_resp_4.started,key_resp_4.stopped,instructions.started,instructions.stopped,end_instr.keys,end_instr.rt,instructions_2.started,instructions_2.stopped,end_instr_2.keys,end_instr_2.rt,end_instr_2.started,end_instr_2.stopped,instruct_keypress.started,instruct_keypress.stopped,end_instruct_keypress.keys,end_instruct_keypress.rt,start_practice.started,start_practice.stopped,start_practice_resp.keys,start_practice_resp.rt,prac_baseline.started,prac_baseline.stopped,prac_iti.started,prac_iti.stopped,prac_stimulus.started,prac_stimulus.stopped,prac_scram_stim.started,prac_scram_stim.stopped,prac_stimulus_resp.started,prac_stimulus_resp.stopped,prac_resp.keys,prac_resp.rt,prac_resp.started,prac_resp.stopped,transition_to_real.started,transition_to_real.stopped,end_transition_to_real.keys,end_transition_to_real.rt,fixation_cross.started,fixation_cross.stopped,tr_iti.started,tr_iti.stopped,stimulus.started,stimulus.stopped,scram_stim.started,scram_stim.stopped,response_txt.started,response_txt.stopped,response.keys,response.rt,response.started,response.stopped,participant_Resp,grouping,corAnswer,break_msg.started,break_msg.stopped,end_break.keys,end_break.started,end_break.stopped,end_break.rt,text.started,text.stopped,key_resp_3.keys,key_resp_3.rt,key_resp_3.started,key_resp_3.stopped,fix_cross_comf.started,fix_cross_comf.stopped,stimulation_comf.started,stimulation_comf.stopped,rate_instr.started,rate_instr.stopped,comfort_rating.response,comfort_rating.rt,comfort_rating.started,comfort_rating.stopped,resp_form.keys,resp_form.rt,resp_form.started,resp_form.stopped,survey_instructions.started,survey_instructions.stopped,key_resp_2.keys,key_resp_2.rt,key_resp_2.started,key_resp_2.stopped,form.index,form.itemText,form.type,form.response,form.rt,key_resp.keys,key_resp.rt,key_resp.started,key_resp.stopped,text_3.started,text_3.stopped,rate_smile.response,rate_smile.rt,rate_smile.started,rate_smile.stopped,key_resp_5.keys,key_resp_5.rt,key_resp_5.started,key_resp_5.stopped,end_msg.started,end_msg.stopped,end_resp.keys,end_resp.rt,end_resp.started,end_resp.stopped,participant,session,gender,age,LEFT,RIGHT,date,expName,psychopyVersion,frameRate,
,,,,,,,,,,,,,,,,,,,,,,,,,,,,,,,,,,,,,,H-S,39.24277790000269,None,num_add,21.007436700001563,,,,,,,,,,,,,,,,,,,,,,,,,,,,,,,,,,,,,,,,,,,,,,,,,,,,,,,,,,,,,,,,,,,,,,,,,,,,,,,,,,,,,,,,,,,,,,,,,,,,,,,,,,,,,,,,,,,,,,,,,,9,001,female,31,450,500,2022_Aug_31_1531,Experiment,2021.1.4,359.58805592077596,
,,,,,,,,,,,,,,,,,,,,,,,,,,,,,,,,,,,,,,,,,,,60.262056600000506,62.29754740000135,1,"This scale consistes of a number of words that describe different feelings and emotion. Read each item and then list the number from the scale below each word. Indicate (by clicking) to what extend you feel this way RIGHT NOW, that is, AT THE PRESENT MOMENT.",description,,,,,,,,,,,,,,,,,,,,,,,,,,,,,,,,,,,,,,,,,,,,,,,,,,,,,,,,,,,,,,,,,,,,,,,,,,,,,,,,,,,,,,,,,,,,,,,,,,,,,,,,,,,,,,,,,,,,,9,001,female,31,450,500,2022_Aug_31_1531,Experiment,2021.1.4,359.58805592077596,
,,,,,,,,,,,,,,,,,,,,,,,,,,,,,,,,,,,,,,,,,,,,,2,Interested,rating,3.0,21.15711320000264,,,,,,,,,,,,,,,,,,,,,,,,,,,,,,,,,,,,,,,,,,,,,,,,,,,,,,,,,,,,,,,,,,,,,,,,,,,,,,,,,,,,,,,,,,,,,,,,,,,,,,,,,,,,,,,,,,,9,001,female,31,450,500,2022_Aug_31_1531,Experiment,2021.1.4,359.58805592077596,
,,,,,,,,,,,,,,,,,,,,,,,,,,,,,,,,,,,,,,,,,,,,,3,Distressed,rating,2.0,26.94995750000089,,,,,,,,,,,,,,,,,,,,,,,,,,,,,,,,,,,,,,,,,,,,,,,,,,,,,,,,,,,,,,,,,,,,,,,,,,,,,,,,,,,,,,,,,,,,,,,,,,,,,,,,,,,,,,,,,,,9,001,female,31,450,500,2022_Aug_31_1531,Experiment,2021.1.4,359.58805592077596,
,,,,,,,,,,,,,,,,,,,,,,,,,,,,,,,,,,,,,,,,,,,,,4,Excited,rating,3.0,31.08293540000159,,,,,,,,,,,,,,,,,,,,,,,,,,,,,,,,,,,,,,,,,,,,,,,,,,,,,,,,,,,,,,,,,,,,,,,,,,,,,,,,,,,,,,,,,,,,,,,,,,,,,,,,,,,,,,,,,,,9,001,female,31,450,500,2022_Aug_31_1531,Experiment,2021.1.4,359.58805592077596,
,,,,,,,,,,,,,,,,,,,,,,,,,,,,,,,,,,,,,,,,,,,,,5,Upset,rating,1.0,38.00242419999995,,,,,,,,,,,,,,,,,,,,,,,,,,,,,,,,,,,,,,,,,,,,,,,,,,,,,,,,,,,,,,,,,,,,,,,,,,,,,,,,,,,,,,,,,,,,,,,,,,,,,,,,,,,,,,,,,,,9,001,female,31,450,500,2022_Aug_31_1531,Experiment,2021.1.4,359.58805592077596,
,,,,,,,,,,,,,,,,,,,,,,,,,,,,,,,,,,,,,,,,,,,,,6,Strong,rating,3.0,56.64816879999853,,,,,,,,,,,,,,,,,,,,,,,,,,,,,,,,,,,,,,,,,,,,,,,,,,,,,,,,,,,,,,,,,,,,,,,,,,,,,,,,,,,,,,,,,,,,,,,,,,,,,,,,,,,,,,,,,,,9,001,female,31,450,500,2022_Aug_31_1531,Experiment,2021.1.4,359.58805592077596,
,,,,,,,,,,,,,,,,,,,,,,,,,,,,,,,,,,,,,,,,,,,,,7,Guilty,rating,1.0,26.306826,,,,,,,,,,,,,,,,,,,,,,,,,,,,,,,,,,,,,,,,,,,,,,,,,,,,,,,,,,,,,,,,,,,,,,,,,,,,,,,,,,,,,,,,,,,,,,,,,,,,,,,,,,,,,,,,,,,9,001,female,31,450,500,2022_Aug_31_1531,Experiment,2021.1.4,359.58805592077596,
,,,,,,,,,,,,,,,,,,,,,,,,,,,,,,,,,,,,,,,,,,,,,8,Scared,rating,2.0,28.874492299997655,,,,,,,,,,,,,,,,,,,,,,,,,,,,,,,,,,,,,,,,,,,,,,,,,,,,,,,,,,,,,,,,,,,,,,,,,,,,,,,,,,,,,,,,,,,,,,,,,,,,,,,,,,,,,,,,,,,9,001,female,31,450,500,2022_Aug_31_1531,Experiment,2021.1.4,359.58805592077596,
,,,,,,,,,,,,,,,,,,,,,,,,,,,,,,,,,,,,,,,,,,,,,9,Hostile,rating,2.0,33.335305900000094,,,,,,,,,,,,,,,,,,,,,,,,,,,,,,,,,,,,,,,,,,,,,,,,,,,,,,,,,,,,,,,,,,,,,,,,,,,,,,,,,,,,,,,,,,,,,,,,,,,,,,,,,,,,,,,,,,,9,001,female,31,450,500,2022_Aug_31_1531,Experiment,2021.1.4,359.58805592077596,
,,,,,,,,,,,,,,,,,,,,,,,,,,,,,,,,,,,,,,,,,,,,,10,Enthusiastic,rating,3.0,21.309369399998104,,,,,,,,,,,,,,,,,,,,,,,,,,,,,,,,,,,,,,,,,,,,,,,,,,,,,,,,,,,,,,,,,,,,,,,,,,,,,,,,,,,,,,,,,,,,,,,,,,,,,,,,,,,,,,,,,,,9,001,female,31,450,500,2022_Aug_31_1531,Experiment,2021.1.4,359.58805592077596,
,,,,,,,,,,,,,,,,,,,,,,,,,,,,,,,,,,,,,,,,,,,,,11,Proud,rating,2.0,9.834665899998072,,,,,,,,,,,,,,,,,,,,,,,,,,,,,,,,,,,,,,,,,,,,,,,,,,,,,,,,,,,,,,,,,,,,,,,,,,,,,,,,,,,,,,,,,,,,,,,,,,,,,,,,,,,,,,,,,,,9,001,female,31,450,500,2022_Aug_31_1531,Experiment,2021.1.4,359.58805592077596,
,,,,,,,,,,,,,,,,,,,,,,,,,,,,,,,,,,,,,,,,,,,,,12,Irritable,rating,2.0,11.45301290000134,,,,,,,,,,,,,,,,,,,,,,,,,,,,,,,,,,,,,,,,,,,,,,,,,,,,,,,,,,,,,,,,,,,,,,,,,,,,,,,,,,,,,,,,,,,,,,,,,,,,,,,,,,,,,,,,,,,9,001,female,31,450,500,2022_Aug_31_1531,Experiment,2021.1.4,359.58805592077596,
,,,,,,,,,,,,,,,,,,,,,,,,,,,,,,,,,,,,,,,,,,,,,13,Alert,rating,1.0,12.513876099998015,,,,,,,,,,,,,,,,,,,,,,,,,,,,,,,,,,,,,,,,,,,,,,,,,,,,,,,,,,,,,,,,,,,,,,,,,,,,,,,,,,,,,,,,,,,,,,,,,,,,,,,,,,,,,,,,,,,9,001,female,31,450,500,2022_Aug_31_1531,Experiment,2021.1.4,359.58805592077596,
,,,,,,,,,,,,,,,,,,,,,,,,,,,,,,,,,,,,,,,,,,,,,14,Ashamed,rating,1.0,12.104939799999556,,,,,,,,,,,,,,,,,,,,,,,,,,,,,,,,,,,,,,,,,,,,,,,,,,,,,,,,,,,,,,,,,,,,,,,,,,,,,,,,,,,,,,,,,,,,,,,,,,,,,,,,,,,,,,,,,,,9,001,female,31,450,500,2022_Aug_31_1531,Experiment,2021.1.4,359.58805592077596,
,,,,,,,,,,,,,,,,,,,,,,,,,,,,,,,,,,,,,,,,,,,,,15,Inspired,rating,3.0,7.249707300001319,,,,,,,,,,,,,,,,,,,,,,,,,,,,,,,,,,,,,,,,,,,,,,,,,,,,,,,,,,,,,,,,,,,,,,,,,,,,,,,,,,,,,,,,,,,,,,,,,,,,,,,,,,,,,,,,,,,9,001,female,31,450,500,2022_Aug_31_1531,Experiment,2021.1.4,359.58805592077596,
,,,,,,,,,,,,,,,,,,,,,,,,,,,,,,,,,,,,,,,,,,,,,16,Nervous,rating,2.0,7.317742800001724,,,,,,,,,,,,,,,,,,,,,,,,,,,,,,,,,,,,,,,,,,,,,,,,,,,,,,,,,,,,,,,,,,,,,,,,,,,,,,,,,,,,,,,,,,,,,,,,,,,,,,,,,,,,,,,,,,,9,001,female,31,450,500,2022_Aug_31_1531,Experiment,2021.1.4,359.58805592077596,
,,,,,,,,,,,,,,,,,,,,,,,,,,,,,,,,,,,,,,,,,,,,,17,Determined,rating,4.0,9.939620000001014,,,,,,,,,,,,,,,,,,,,,,,,,,,,,,,,,,,,,,,,,,,,,,,,,,,,,,,,,,,,,,,,,,,,,,,,,,,,,,,,,,,,,,,,,,,,,,,,,,,,,,,,,,,,,,,,,,,9,001,female,31,450,500,2022_Aug_31_1531,Experiment,2021.1.4,359.58805592077596,
,,,,,,,,,,,,,,,,,,,,,,,,,,,,,,,,,,,,,,,,,,,,,18,Attentive,rating,3.0,9.746580800001539,,,,,,,,,,,,,,,,,,,,,,,,,,,,,,,,,,,,,,,,,,,,,,,,,,,,,,,,,,,,,,,,,,,,,,,,,,,,,,,,,,,,,,,,,,,,,,,,,,,,,,,,,,,,,,,,,,,9,001,female,31,450,500,2022_Aug_31_1531,Experiment,2021.1.4,359.58805592077596,
,,,,,,,,,,,,,,,,,,,,,,,,,,,,,,,,,,,,,,,,,,,,,19,Jittery,rating,2.0,10.733311800002411,,,,,,,,,,,,,,,,,,,,,,,,,,,,,,,,,,,,,,,,,,,,,,,,,,,,,,,,,,,,,,,,,,,,,,,,,,,,,,,,,,,,,,,,,,,,,,,,,,,,,,,,,,,,,,,,,,,9,001,female,31,450,500,2022_Aug_31_1531,Experiment,2021.1.4,359.58805592077596,
,,,,,,,,,,,,,,,,,,,,,,,,,,,,,,,,,,,,,,,,,,,,,20,Active,rating,3.0,7.746929300003103,,,,,,,,,,,,,,,,,,,,,,,,,,,,,,,,,,,,,,,,,,,,,,,,,,,,,,,,,,,,,,,,,,,,,,,,,,,,,,,,,,,,,,,,,,,,,,,,,,,,,,,,,,,,,,,,,,,9,001,female,31,450,500,2022_Aug_31_1531,Experiment,2021.1.4,359.58805592077596,
,,,,,,,,,,,,,,,,,,,,,,,,,,,,,,,,,,,,,,,,,,,,,21,Afraid,rating,2.0,7.5409423999990395,,,,,,,,,,,,,,,,,,,,,,,,,,,,,,,,,,,,,,,,,,,,,,,,,,,,,,,,,,,,,,,,,,,,,,,,,,,,,,,,,,,,,,,,,,,,,,,,,,,,,,,,,,,,,,,,,,,9,001,female,31,450,500,2022_Aug_31_1531,Experiment,2021.1.4,359.58805592077596,
,,,,,,,,,,,,,,,,,,,,,,,,,,,,,,,,,,,,,,,,,,,,,22,Press the + button to submit your answers,description,,,,,,,,,,,,,,,,,,,,,,,,,,,,,,,,,,,,,,,,,,,,,,,,,,,,,,,,,,,,,,,,,,,,,,,,,,,,,,,,,,,,,,,,,,,,,,,,,,,,,,,,,,,,,,,,,,,,,9,001,female,31,450,500,2022_Aug_31_1531,Experiment,2021.1.4,359.58805592077596,
,,,,,,,,,,,,,,,,,,,,,,,,,,,,,,,,,,,,,,,,,,,,,,,,,,num_add,112.00018319999799,70.29786149999927,None,,,,,,,,,,,,,,,,,,,,,,,,,,,,,,,,,,,,,,,,,,,,,,,,,,,,,,,,,,,,,,,,,,,,,,,,,,,,,,,,,,,,,,,,,,,,,,,,,,,,,,,,,,,,,,,9,001,female,31,450,500,2022_Aug_31_1531,Experiment,2021.1.4,359.58805592077596,
,,,,,,,,,,,,,,,,,,,,,,,,,,,,,,,,,,,,,,,,,,,,,,,,,,,,,,182.31358360000013,None,num_add,76.19245320000118,,,,,,,,,,,,,,,,,,,,,,,,,,,,,,,,,,,,,,,,,,,,,,,,,,,,,,,,,,,,,,,,,,,,,,,,,,,,,,,,,,,,,,,,,,,,,,,,,,,,,,,,,,,9,001,female,31,450,500,2022_Aug_31_1531,Experiment,2021.1.4,359.58805592077596,
,,,,,,,,,,,,,,,,,,,,,,,,,,,,,,,,,,,,,,,,,,,,,,,,,,,,,,,,,,258.5178894000019,None,num_add,16.540189499999542,258.5178894000019,None,,,,,,,,,,,,,,,,,,,,,,,,,,,,,,,,,,,,,,,,,,,,,,,,,,,,,,,,,,,,,,,,,,,,,,,,,,,,,,,,,,,,,,,,,,,,,,,,,,,,,9,001,female,31,450,500,2022_Aug_31_1531,Experiment,2021.1.4,359.58805592077596,
,,,,,,,,,,,,,,,,,,,,,,,,,,,,,,,,,,,,,,,,,,,,,,,,,,,,,,,,,,,,,,,,275.07946710000033,None,num_add,11.97860060000312,,,,,,,,,,,,,,,,,,,,,,,,,,,,,,,,,,,,,,,,,,,,,,,,,,,,,,,,,,,,,,,,,,,,,,,,,,,,,,,,,,,,,,,,,,,,,,,,,9,001,female,31,450,500,2022_Aug_31_1531,Experiment,2021.1.4,359.58805592077596,
,,,,,,,,,,,,,,,,,,,,,,,,,,,,,,,,,,,,,,,,,,,,,,,,,,,,,,,,,,,,,,,,,,,,287.0702405000011,None,space,105.67566090000037,,,,,,,,,,,,,,,,,,,,,,,,,,,,,,,,,,,,,,,,,,,,,,,,,,,,,,,,,,,,,,,,,,,,,,,,,,,,,,,,,,,,,,,,,,,,,9,001,female,31,450,500,2022_Aug_31_1531,Experiment,2021.1.4,359.58805592077596,
images\S21_F_H_02.png,images\S21_F_H_02_scrambled.png,21,Happy,-0.2,F,0,0,practice,off,1,0.5,0.75,0.5,0.91,3,,,,,,,,,,,0,0,0,1,,,,,,,,,,,,,,,,,,,,,,,,,,,,,,,,,,,,,,,,,,,392.8738728999997,393.3765177000023,393.3765177000023,394.1318351000009,394.1318351000009,394.63446420000037,394.63446420000037,395.5518695000028,395.5518695000028,None,num_6,1.2822684999991907,395.5518695000028,None,,,,,,,,,,,,,,,,,,,,,,,,,,,,,,,,,,,,,,,,,,,,,,,,,,,,,,,,,,,,,,,,,,,,,,,,,,,,,,,9,001,female,31,450,500,2022_Aug_31_1531,Experiment,2021.1.4,359.58805592077596,
images\S22_M_H_02.png,images\S22_M_H_02_scrambled.png,22,Happy,-0.2,M,0,0,practice,off,1,0.5,0.75,0.5,0.883,3,,,,,,,,,,,0,1,1,2,,,,,,,,,,,,,,,,,,,,,,,,,,,,,,,,,,,,,,,,,,,396.89208900000085,397.3947389999994,397.3947389999994,398.15005250000104,398.15005250000104,398.6526905000028,398.6526905000028,399.53848730000027,399.53848730000027,None,num_6,0.38352909999957774,399.53848730000027,None,,,,,,,,,,,,,,,,,,,,,,,,,,,,,,,,,,,,,,,,,,,,,,,,,,,,,,,,,,,,,,,,,,,,,,,,,,,,,,,9,001,female,31,450,500,2022_Aug_31_1531,Experiment,2021.1.4,359.58805592077596,
images\S22_M_S_03.png,images\S22_M_S_03_scrambled.png,22,Sad,0.3,M,0,0,practice,on,2,0.5,0.75,0.5,0.794,3,,,,,,,,,,,0,2,2,7,,,,,,,,,,,,,,,,,,,,,,,,,,,,,,,,,,,,,,,,,,,399.9800251000015,400.48544559999937,400.48544559999937,401.24074760000076,401.24074760000076,401.7435049000014,401.7435049000014,402.5403714000022,402.5403714000022,None,num_6,0.8618218000010529,402.5403714000022,None,,,,,,,,,,,,,,,,,,,,,,,,,,,,,,,,,,,,,,,,,,,,,,,,,,,,,,,,,,,,,,,,,,,,,,,,,,,,,,,9,001,female,31,450,500,2022_Aug_31_1531,Experiment,2021.1.4,359.58805592077596,
images\S22_M_S_02.png,images\S22_M_S_02_scrambled.png,22,Sad,0.2,M,0,0,practice,on,2,0.5,0.75,0.5,0.783,3,,,,,,,,,,,0,3,3,6,,,,,,,,,,,,,,,,,,,,,,,,,,,,,,,,,,,,,,,,,,,403.4567308000005,403.96218800000133,403.96218800000133,404.71749400000044,404.71749400000044,405.2200862999998,405.2200862999998,406.00608750000174,406.00608750000174,None,num_6,0.6040205999997852,406.00608750000174,None,,,,,,,,,,,,,,,,,,,,,,,,,,,,,,,,,,,,,,,,,,,,,,,,,,,,,,,,,,,,,,,,,,,,,,,,,,,,,,,9,001,female,31,450,500,2022_Aug_31_1531,Experiment,2021.1.4,359.58805592077596,
images\S22_M_S_01.png,images\S22_M_S_01_scrambled.png,22,Sad,0.1,M,0,0,practice,on,2,0.5,0.75,0.5,0.867,3,,,,,,,,,,,0,4,4,5,,,,,,,,,,,,,,,,,,,,,,,,,,,,,,,,,,,,,,,,,,,406.66130180000255,407.16115020000143,407.16115020000143,407.9164829000001,407.9164829000001,408.4191616999997,408.4191616999997,409.2884027,409.2884027,None,num_6,0.2655869000009261,409.2884027,None,,,,,,,,,,,,,,,,,,,,,,,,,,,,,,,,,,,,,,,,,,,,,,,,,,,,,,,,,,,,,,,,,,,,,,,,,,,,,,,9,001,female,31,450,500,2022_Aug_31_1531,Experiment,2021.1.4,359.58805592077596,
images\S21_F_H_01.png,images\S21_F_H_01_scrambled.png,21,Happy,-0.1,F,0,0,practice,off,1,0.5,0.75,0.5,0.853,3,,,,,,,,,,,0,5,5,0,,,,,,,,,,,,,,,,,,,,,,,,,,,,,,,,,,,,,,,,,,,409.6103930999998,410.11024650000036,410.11024650000036,410.8655949999993,410.8655949999993,411.3683326999999,411.3683326999999,412.2235746000006,412.2235746000006,None,num_4,1.0504449000000022,412.2235746000006,None,,,,,,,,,,,,,,,,,,,,,,,,,,,,,,,,,,,,,,,,,,,,,,,,,,,,,,,,,,,,,,,,,,,,,,,,,,,,,,,9,001,female,31,450,500,2022_Aug_31_1531,Experiment,2021.1.4,359.58805592077596,
images\S22_M_S_02.png,images\S22_M_S_02_scrambled.png,22,Sad,0.2,M,0,0,practice,off,1,0.5,0.75,0.5,0.751,3,,,,,,,,,,,0,6,6,3,,,,,,,,,,,,,,,,,,,,,,,,,,,,,,,,,,,,,,,,,,,413.331478600001,413.83415590000004,413.83415590000004,414.5894818000015,414.5894818000015,415.09208990000116,415.09208990000116,415.8501735000027,415.8501735000027,None,num_6,0.6878585999984352,415.8501735000027,None,,,,,,,,,,,,,,,,,,,,,,,,,,,,,,,,,,,,,,,,,,,,,,,,,,,,,,,,,,,,,,,,,,,,,,,,,,,,,,,9,001,female,31,450,500,2022_Aug_31_1531,Experiment,2021.1.4,359.58805592077596,
images\S22_M_S_03.png,images\S22_M_S_03_scrambled.png,22,Sad,0.3,M,0,0,practice,on,2,0.5,0.75,0.5,0.87,3,,,,,,,,,,,0,7,7,4,,,,,,,,,,,,,,,,,,,,,,,,,,,,,,,,,,,,,,,,,,,416.5915868000011,417.0970063999994,417.0970063999994,417.8467555000025,417.8467555000025,418.34942180000144,418.34942180000144,419.22133020000183,419.22133020000183,None,num_6,0.2049412000014854,419.22133020000183,None,,,,,,,,,,,,,,,,,,,,,,,,,,,,,,,,,,,,,,,,,,,,,,,,,,,,,,,,,,,,,,,,,,,,,,,,,,,,,,,9,001,female,31,450,500,2022_Aug_31_1531,Experiment,2021.1.4,359.58805592077596,
,,,,,,,,,,,,,,,,,,,,,,,,,,,,,,,,,,,,,,,,,,,,,,,,,,,,,,,,,,,,,,,,,,,,,,,,,,,,,,,,,,,,,,419.47681530000045,None,space,54.31709989999945,,,,,,,,,,,,,,,,,,,,,,,,,,,,,,,,,,,,,,,,,,,,,,,,,,,,,,,,,,,,,,,,,,,,,,,,,,,9,001,female,31,450,500,2022_Aug_31_1531,Experiment,2021.1.4,359.58805592077596,
images\S2_M_H_03.png,images\S2_M_H_03_scrambled.png,2,happy,30,male,6,,69,on,2,0.5,0.75,0.5,0.846,3,68,1,1,1,2,2,32,128,166,,,,,,0,0,0,0,,,,,,,,,,,,,,,,,,,,,,,,,,,,,,,,,,,,,,,,,,,,,,,,,,,,,,,,,474.34324109999943,474.84593490000043,474.84593490000043,475.5984693999999,475.5984693999999,476.10110050000003,476.10110050000003,476.95087390000117,476.95087390000117,None,num_4,0.851172000002407,476.95087390000117,None,happy,1,Happy,477.8284316800011,None,None,477.8284316800011,None,,,,,,,,,,,,,,,,,,,,,,,,,,,,,,,,,,,,,,,,,,,,,,,,,,,,,9,001,female,31,450,500,2022_Aug_31_1531,Experiment,2021.1.4,359.58805592077596,
images\S5_F_S_03.png,images\S5_F_S_03_scrambled.png,5,sad,-30,female,1,,330,on,2,0.5,0.75,0.5,0.788,3,329,2,1,1,2,2,32,128,161,,,,,,0,1,1,1,,,,,,,,,,,,,,,,,,,,,,,,,,,,,,,,,,,,,,,,,,,,,,,,,,,,,,,,,477.87832569999955,478.38098309999987,478.38098309999987,479.13072699999975,479.13072699999975,479.6361558000026,479.6361558000026,480.4303832000005,480.4303832000005,None,num_6,0.4358674999966752,480.4303832000005,None,sad,1,Sad,480.8829948999992,None,None,480.8829948999992,None,,,,,,,,,,,,,,,,,,,,,,,,,,,,,,,,,,,,,,,,,,,,,,,,,,,,,9,001,female,31,450,500,2022_Aug_31_1531,Experiment,2021.1.4,359.58805592077596,
images\S5_F_S_02.png,images\S5_F_S_02_scrambled.png,5,sad,-20,female,2,,149,off,1,0.5,0.75,0.5,0.924,3,148,1,2,1,0,0,0,0,2,,,,,,0,2,2,2,,,,,,,,,,,,,,,,,,,,,,,,,,,,,,,,,,,,,,,,,,,,,,,,,,,,,,,,,480.9301766999997,481.4328153999995,481.4328153999995,482.18545540000196,482.18545540000196,482.68518609999956,482.68518609999956,483.61270760000116,483.61270760000116,None,num_4,0.6215059000023757,483.61270760000116,None,happy,1,Sad,484.24306194000167,None,None,484.24306194000167,None,,,,,,,,,,,,,,,,,,,,,,,,,,,,,,,,,,,,,,,,,,,,,,,,,,,,,9,001,female,31,450,500,2022_Aug_31_1531,Experiment,2021.1.4,359.58805592077596,
images\S4_M_H_02.png,images\S4_M_H_02_scrambled.png,4,happy,20,male,5,,440,on,2,0.5,0.75,0.5,0.851,3,439,1,1,1,2,2,32,128,165,,,,,,0,3,3,3,,,,,,,,,,,,,,,,,,,,,,,,,,,,,,,,,,,,,,,,,,,,,,,,,,,,,,,,,484.29302980000284,484.79569000000265,484.79569000000265,485.5510037999993,485.5510037999993,486.05363790000047,486.05363790000047,486.90611250000075,486.90611250000075,None,num_6,0.456028000000515,486.90611250000075,None,sad,1,Happy,487.36993185999967,None,None,487.36993185999967,None,,,,,,,,,,,,,,,,,,,,,,,,,,,,,,,,,,,,,,,,,,,,,,,,,,,,,9,001,female,31,450,500,2022_Aug_31_1531,Experiment,2021.1.4,359.58805592077596,
images\S9_F_S_02.png,images\S9_F_S_02_scrambled.png,9,sad,-20,female,2,,173,off,1,0.5,0.75,0.5,0.948,3,172,1,1,1,0,0,0,0,2,,,,,,0,4,4,4,,,,,,,,,,,,,,,,,,,,,,,,,,,,,,,,,,,,,,,,,,,,,,,,,,,,,,,,,487.4309609000011,487.9363900999997,487.9363900999997,488.68612550000034,488.68612550000034,489.18886980000025,489.18886980000025,490.1440978000028,490.1440978000028,None,num_4,0.44997850000072503,490.1440978000028,None,happy,1,Sad,490.60221284000147,None,None,490.60221284000147,None,,,,,,,,,,,,,,,,,,,,,,,,,,,,,,,,,,,,,,,,,,,,,,,,,,,,,9,001,female,31,450,500,2022_Aug_31_1531,Experiment,2021.1.4,359.58805592077596,
images\S6_M_H_03.png,images\S6_M_H_03_scrambled.png,6,happy,30,male,6,,213,on,2,0.5,0.75,0.5,0.896,3,212,1,1,1,2,2,32,128,166,,,,,,0,5,5,5,,,,,,,,,,,,,,,,,,,,,,,,,,,,,,,,,,,,,,,,,,,,,,,,,,,,,,,,,490.65219369999977,491.15203060000204,491.15203060000204,491.901801,491.901801,492.40442059999987,492.40442059999987,493.30420779999986,493.30420779999986,None,num_4,0.4338214000017615,493.30420779999986,None,happy,1,Happy,493.7512874000022,None,None,493.7512874000022,None,,,,,,,,,,,,,,,,,,,,,,,,,,,,,,,,,,,,,,,,,,,,,,,,,,,,,9,001,female,31,450,500,2022_Aug_31_1531,Experiment,2021.1.4,359.58805592077596,
images\S9_F_S_01.png,images\S9_F_S_01_scrambled.png,9,sad,-10,female,3,,352,on,2,0.5,0.75,0.5,0.83,3,351,2,1,1,2,2,32,128,163,,,,,,0,6,6,6,,,,,,,,,,,,,,,,,,,,,,,,,,,,,,,,,,,,,,,,,,,,,,,,,,,,,,,,,493.80122100000153,494.3039310999993,494.3039310999993,495.05640459999995,495.05640459999995,495.5562194000013,495.5562194000013,496.3893558000018,496.3893558000018,None,num_6,0.3167576000014378,496.3893558000018,None,sad,1,Sad,496.7254693200019,None,None,496.7254693200019,None,,,,,,,,,,,,,,,,,,,,,,,,,,,,,,,,,,,,,,,,,,,,,,,,,,,,,9,001,female,31,450,500,2022_Aug_31_1531,Experiment,2021.1.4,359.58805592077596,
images\S3_F_H_02.png,images\S3_F_H_02_scrambled.png,3,happy,20,female,5,,74,on,2,0.5,0.75,0.5,0.754,3,73,3,1,1,2,2,32,128,165,,,,,,0,7,7,7,,,,,,,,,,,,,,,,,,,,,,,,,,,,,,,,,,,,,,,,,,,,,,,,,,,,,,,,,496.7808565000014,497.28350560000035,497.28350560000035,498.03328150000016,498.03328150000016,498.53880460000073,498.53880460000073,499.2995770000016,499.2995770000016,None,num_6,0.24672090000240132,499.2995770000016,None,sad,1,Happy,499.55504306000006,None,None,499.55504306000006,None,,,,,,,,,,,,,,,,,,,,,,,,,,,,,,,,,,,,,,,,,,,,,,,,,,,,,9,001,female,31,450,500,2022_Aug_31_1531,Experiment,2021.1.4,359.58805592077596,
images\S4_M_S_01.png,images\S4_M_S_01_scrambled.png,4,sad,-10,male,3,,22,off,1,0.5,0.75,0.5,0.79,3,21,1,1,1,0,0,0,0,3,,,,,,0,8,8,8,,,,,,,,,,,,,,,,,,,,,,,,,,,,,,,,,,,,,,,,,,,,,,,,,,,,,,,,,499.6216542000002,500.12429410000186,500.12429410000186,500.8740566000015,500.8740566000015,501.37951109999995,501.37951109999995,502.1737716000025,502.1737716000025,None,num_6,0.5004071000003023,502.1737716000025,None,sad,1,Sad,502.6846289800007,None,None,502.6846289800007,None,,,,,,,,,,,,,,,,,,,,,,,,,,,,,,,,,,,,,,,,,,,,,,,,,,,,,9,001,female,31,450,500,2022_Aug_31_1531,Experiment,2021.1.4,359.58805592077596,
images\S10_M_S_01.png,images\S10_M_S_01_scrambled.png,10,sad,-10,male,3,,58,off,1,0.5,0.75,0.5,0.854,3,57,2,1,2,0,0,0,0,3,,,,,,0,9,9,9,,,,,,,,,,,,,,,,,,,,,,,,,,,,,,,,,,,,,,,,,,,,,,,,,,,,,,,,,502.7345946000023,503.23727209999925,503.23727209999925,503.98981360000107,503.98981360000107,504.49244140000155,504.49244140000155,505.350465800002,505.350465800002,None,num_4,0.42765899999722023,505.350465800002,None,happy,1,Sad,505.7920745600008,None,None,505.7920745600008,None,,,,,,,,,,,,,,,,,,,,,,,,,,,,,,,,,,,,,,,,,,,,,,,,,,,,,9,001,female,31,450,500,2022_Aug_31_1531,Experiment,2021.1.4,359.58805592077596,
images\S10_M_S_01.png,images\S10_M_S_01_scrambled.png,10,sad,-10,male,3,,598,on,2,0.5,0.75,0.5,0.933,3,597,1,2,3,2,2,32,128,163,,,,,,0,10,10,10,,,,,,,,,,,,,,,,,,,,,,,,,,,,,,,,,,,,,,,,,,,,,,,,,,,,,,,,,505.85305860000153,506.35848050000277,506.35848050000277,507.1110214,507.1110214,507.6165629999996,507.6165629999996,508.5523147999993,508.5523147999993,None,num_4,0.70580190000328,508.5523147999993,None,happy,1,Sad,509.2687019400015,None,None,509.2687019400015,None,,,,,,,,,,,,,,,,,,,,,,,,,,,,,,,,,,,,,,,,,,,,,,,,,,,,,9,001,female,31,450,500,2022_Aug_31_1531,Experiment,2021.1.4,359.58805592077596,
images\S3_F_H_02.png,images\S3_F_H_02_scrambled.png,3,happy,20,female,5,,254,off,1,0.5,0.75,0.5,0.772,3,253,1,1,1,0,0,0,0,5,,,,,,0,11,11,11,,,,,,,,,,,,,,,,,,,,,,,,,,,,,,,,,,,,,,,,,,,,,,,,,,,,,,,,,509.31869860000006,509.81854770000064,509.81854770000064,510.5683147000018,510.5683147000018,511.0709336,511.0709336,511.8485849000026,511.8485849000026,None,num_6,0.36947409999993397,511.8485849000026,None,sad,1,Happy,512.2317459600002,None,None,512.2317459600002,None,,,,,,,,,,,,,,,,,,,,,,,,,,,,,,,,,,,,,,,,,,,,,,,,,,,,,9,001,female,31,450,500,2022_Aug_31_1531,Experiment,2021.1.4,359.58805592077596,
images\S2_M_S_03.png,images\S2_M_S_03_scrambled.png,2,sad,-30,male,1,,492,off,1,0.5,0.75,0.5,0.886,3,491,2,1,1,0,0,0,0,1,,,,,,0,12,12,12,,,,,,,,,,,,,,,,,,,,,,,,,,,,,,,,,,,,,,,,,,,,,,,,,,,,,,,,,512.289985200001,512.7954248999995,512.7954248999995,513.5480549999993,513.5480549999993,514.0505895000024,514.0505895000024,514.9391789000001,514.9391789000001,None,num_6,0.40697670000008657,514.9391789000001,None,sad,1,Sad,515.3640830000004,None,None,515.3640830000004,None,,,,,,,,,,,,,,,,,,,,,,,,,,,,,,,,,,,,,,,,,,,,,,,,,,,,,9,001,female,31,450,500,2022_Aug_31_1531,Experiment,2021.1.4,359.58805592077596,
images\S5_F_S_02.png,images\S5_F_S_02_scrambled.png,5,sad,-20,female,2,,269,off,1,0.5,0.75,0.5,0.768,3,268,3,1,1,0,0,0,0,2,,,,,,0,13,13,13,,,,,,,,,,,,,,,,,,,,,,,,,,,,,,,,,,,,,,,,,,,,,,,,,,,,,,,,,515.4112611000019,515.9138955000017,515.9138955000017,516.6636758000022,516.6636758000022,517.1691181999995,517.1691181999995,517.9439117000002,517.9439117000002,None,num_4,0.5060944000033487,517.9439117000002,None,happy,1,Sad,518.4575675400024,None,None,518.4575675400024,None,,,,,,,,,,,,,,,,,,,,,,,,,,,,,,,,,,,,,,,,,,,,,,,,,,,,,9,001,female,31,450,500,2022_Aug_31_1531,Experiment,2021.1.4,359.58805592077596,
images\S5_F_H_02.png,images\S5_F_H_02_scrambled.png,5,happy,20,female,5,,266,off,1,0.5,0.75,0.5,0.828,3,265,4,2,1,0,0,0,0,5,,,,,,0,14,14,14,,,,,,,,,,,,,,,,,,,,,,,,,,,,,,,,,,,,,,,,,,,,,,,,,,,,,,,,,518.5103490000001,519.0157230000004,519.0157230000004,519.7682700000005,519.7682700000005,520.2737440000019,520.2737440000019,521.1011875000004,521.1011875000004,None,num_4,0.356889400001819,521.1011875000004,None,happy,1,Happy,521.478908419999,None,None,521.478908419999,None,,,,,,,,,,,,,,,,,,,,,,,,,,,,,,,,,,,,,,,,,,,,,,,,,,,,,9,001,female,31,450,500,2022_Aug_31_1531,Experiment,2021.1.4,359.58805592077596,
images\S4_M_S_03.png,images\S4_M_S_03_scrambled.png,4,sad,-30,male,1,,444,on,2,0.5,0.75,0.5,0.848,3,443,1,1,1,2,2,32,128,161,,,,,,0,15,15,15,,,,,,,,,,,,,,,,,,,,,,,,,,,,,,,,,,,,,,,,,,,,,,,,,,,,,,,,,521.5288220000002,522.031463700001,522.031463700001,522.7840792000025,522.7840792000025,523.2894489999999,523.2894489999999,524.1391991000019,524.1391991000019,None,num_6,0.5908146999972814,524.1391991000019,None,sad,1,Sad,524.7417630800002,None,None,524.7417630800002,None,,,,,,,,,,,,,,,,,,,,,,,,,,,,,,,,,,,,,,,,,,,,,,,,,,,,,9,001,female,31,450,500,2022_Aug_31_1531,Experiment,2021.1.4,359.58805592077596,
images\S7_F_H_03.png,images\S7_F_H_03_scrambled.png,7,happy,30,female,6,,519,off,1,0.5,0.75,0.5,0.856,3,518,1,1,1,0,0,0,0,6,,,,,,0,16,16,16,,,,,,,,,,,,,,,,,,,,,,,,,,,,,,,,,,,,,,,,,,,,,,,,,,,,,,,,,524.7917147000007,525.2943352000002,525.2943352000002,526.0440971000025,526.0440971000025,526.5495437999998,526.5495437999998,527.4103781000013,527.4103781000013,None,num_4,0.4877524000003177,527.4103781000013,None,happy,1,Happy,527.9129896799997,None,None,527.9129896799997,None,,,,,,,,,,,,,,,,,,,,,,,,,,,,,,,,,,,,,,,,,,,,,,,,,,,,,9,001,female,31,450,500,2022_Aug_31_1531,Experiment,2021.1.4,359.58805592077596,
images\S10_M_H_03.png,images\S10_M_H_03_scrambled.png,10,happy,30,male,6,,357,on,2,0.5,0.75,0.5,0.835,3,356,1,1,2,2,2,32,128,166,,,,,,0,17,17,17,,,,,,,,,,,,,,,,,,,,,,,,,,,,,,,,,,,,,,,,,,,,,,,,,,,,,,,,,527.9601825999998,528.4629013000012,528.4629013000012,529.2125966999993,529.2125966999993,529.7181092999999,529.7181092999999,530.5566503000009,530.5566503000009,None,num_4,0.613349899998866,530.5566503000009,None,happy,1,Happy,531.1842268,None,None,531.1842268,None,,,,,,,,,,,,,,,,,,,,,,,,,,,,,,,,,,,,,,,,,,,,,,,,,,,,,9,001,female,31,450,500,2022_Aug_31_1531,Experiment,2021.1.4,359.58805592077596,
images\S4_M_S_01.png,images\S4_M_S_01_scrambled.png,4,sad,-10,male,3,,382,off,1,0.5,0.75,0.5,0.809,3,381,1,1,1,0,0,0,0,3,,,,,,0,18,18,18,,,,,,,,,,,,,,,,,,,,,,,,,,,,,,,,,,,,,,,,,,,,,,,,,,,,,,,,,531.2313928000003,531.7312471000005,531.7312471000005,532.4810113999993,532.4810113999993,532.9864460999997,532.9864460999997,533.8001207000016,533.8001207000016,None,num_6,0.2900201999982528,533.8001207000016,None,sad,1,Sad,534.0999902799987,None,None,534.0999902799987,None,,,,,,,,,,,,,,,,,,,,,,,,,,,,,,,,,,,,,,,,,,,,,,,,,,,,,9,001,female,31,450,500,2022_Aug_31_1531,Experiment,2021.1.4,359.58805592077596,
images\S3_F_S_03.png,images\S3_F_S_03_scrambled.png,3,sad,-30,female,1,,198,on,2,0.5,0.75,0.5,0.932,3,197,1,1,1,2,2,32,128,161,,,,,,0,19,19,19,,,,,,,,,,,,,,,,,,,,,,,,,,,,,,,,,,,,,,,,,,,,,,,,,,,,,,,,,534.1471674000022,534.6526298000026,534.6526298000026,535.4079368000021,535.4079368000021,535.9133246000019,535.9133246000019,536.8519788000012,536.8519788000012,None,num_6,0.5501827999978559,536.8519788000012,None,sad,1,Sad,537.4184247000012,None,None,537.4184247000012,None,,,,,,,,,,,,,,,,,,,,,,,,,,,,,,,,,,,,,,,,,,,,,,,,,,,,,9,001,female,31,450,500,2022_Aug_31_1531,Experiment,2021.1.4,359.58805592077596,
images\S6_M_S_02.png,images\S6_M_S_02_scrambled.png,6,sad,-20,male,2,,575,on,2,0.5,0.75,0.5,0.907,3,574,2,1,1,2,2,32,128,162,,,,,,0,20,20,20,,,,,,,,,,,,,,,,,,,,,,,,,,,,,,,,,,,,,,,,,,,,,,,,,,,,,,,,,537.4683114,537.9710047000008,537.9710047000008,538.7263287000023,538.7263287000023,539.2289879000018,539.2289879000018,540.1369967000028,540.1369967000028,None,num_6,0.49716429999898537,540.1369967000028,None,sad,1,Sad,540.6619418600006,None,None,540.6619418600006,None,,,,,,,,,,,,,,,,,,,,,,,,,,,,,,,,,,,,,,,,,,,,,,,,,,,,,9,001,female,31,450,500,2022_Aug_31_1531,Experiment,2021.1.4,359.58805592077596,
images\S10_M_S_01.png,images\S10_M_S_01_scrambled.png,10,sad,-10,male,3,,238,on,2,0.5,0.75,0.5,0.811,3,237,3,1,1,2,2,32,128,163,,,,,,0,21,21,21,,,,,,,,,,,,,,,,,,,,,,,,,,,,,,,,,,,,,,,,,,,,,,,,,,,,,,,,,540.7145941000017,541.2200196000013,541.2200196000013,541.9726699000021,541.9726699000021,542.4780410000021,542.4780410000021,543.2943906,543.2943906,None,num_4,0.48377950000212877,543.2943906,None,happy,1,Sad,543.7887016399995,None,None,543.7887016399995,None,,,,,,,,,,,,,,,,,,,,,,,,,,,,,,,,,,,,,,,,,,,,,,,,,,,,,9,001,female,31,450,500,2022_Aug_31_1531,Experiment,2021.1.4,359.58805592077596,
images\S8_M_S_03.png,images\S8_M_S_03_scrambled.png,8,sad,-30,male,1,,48,off,1,0.5,0.75,0.5,0.753,3,47,1,1,1,0,0,0,0,1,,,,,,0,22,22,22,,,,,,,,,,,,,,,,,,,,,,,,,,,,,,,,,,,,,,,,,,,,,,,,,,,,,,,,,543.8414193999997,544.3440458000005,544.3440458000005,545.0993941000015,545.0993941000015,545.6021252999999,545.6021252999999,546.3573133000027,546.3573133000027,None,num_6,0.38067769999906886,546.3573133000027,None,sad,1,Sad,546.7572317000013,None,None,546.7572317000013,None,,,,,,,,,,,,,,,,,,,,,,,,,,,,,,,,,,,,,,,,,,,,,,,,,,,,,9,001,female,31,450,500,2022_Aug_31_1531,Experiment,2021.1.4,359.58805592077596,
images\S5_F_S_01.png,images\S5_F_S_01_scrambled.png,5,sad,-10,female,3,,148,off,1,0.5,0.75,0.5,0.823,3,147,2,1,1,0,0,0,0,3,,,,,,0,23,23,23,,,,,,,,,,,,,,,,,,,,,,,,,,,,,,,,,,,,,,,,,,,,,,,,,,,,,,,,,546.8044155000025,547.3098217000006,547.3098217000006,548.0624717000028,548.0624717000028,548.5622299000024,548.5622299000024,549.3926425000027,549.3926425000027,None,num_6,0.4175150000010035,549.3926425000027,None,sad,1,Sad,549.8369295600008,None,None,549.8369295600008,None,,,,,,,,,,,,,,,,,,,,,,,,,,,,,,,,,,,,,,,,,,,,,,,,,,,,,9,001,female,31,450,500,2022_Aug_31_1531,Experiment,2021.1.4,359.58805592077596,
images\S10_M_H_03.png,images\S10_M_H_03_scrambled.png,10,happy,30,male,6,,417,off,1,0.5,0.75,0.5,0.88,3,416,3,1,1,0,0,0,0,6,,,,,,0,24,24,24,,,,,,,,,,,,,,,,,,,,,,,,,,,,,,,,,,,,,,,,,,,,,,,,,,,,,,,,,549.8895645000011,550.3922665000027,550.3922665000027,551.1447551000019,551.1447551000019,551.6474916000006,551.6474916000006,552.5332517999996,552.5332517999996,None,num_4,0.3570393999980297,552.5332517999996,None,happy,1,Happy,552.9025550799989,None,None,552.9025550799989,None,,,,,,,,,,,,,,,,,,,,,,,,,,,,,,,,,,,,,,,,,,,,,,,,,,,,,9,001,female,31,450,500,2022_Aug_31_1531,Experiment,2021.1.4,359.58805592077596,
images\S7_F_S_03.png,images\S7_F_S_03_scrambled.png,7,sad,-30,female,1,,342,on,2,0.5,0.75,0.5,0.867,3,341,1,1,1,2,2,32,128,161,,,,,,0,25,25,25,,,,,,,,,,,,,,,,,,,,,,,,,,,,,,,,,,,,,,,,,,,,,,,,,,,,,,,,,552.9525090999996,553.4551668000022,553.4551668000022,554.2077282999999,554.2077282999999,554.7075657999994,554.7075657999994,555.5795429999998,555.5795429999998,None,num_6,0.5425958000014361,555.5795429999998,None,sad,1,Sad,556.1376801000006,None,None,556.1376801000006,None,,,,,,,,,,,,,,,,,,,,,,,,,,,,,,,,,,,,,,,,,,,,,,,,,,,,,9,001,female,31,450,500,2022_Aug_31_1531,Experiment,2021.1.4,359.58805592077596,
images\S6_M_S_01.png,images\S6_M_S_01_scrambled.png,6,sad,-10,male,3,,94,on,2,0.5,0.75,0.5,0.947,3,93,2,1,1,2,2,32,128,163,,,,,,0,26,26,26,,,,,,,,,,,,,,,,,,,,,,,,,,,,,,,,,,,,,,,,,,,,,,,,,,,,,,,,,556.1876300000004,556.6931503000014,556.6931503000014,557.4455984000015,557.4455984000015,557.9509900000012,557.9509900000012,558.900700000002,558.900700000002,None,num_6,0.38948359999994864,558.900700000002,None,sad,1,Sad,559.3005889799998,None,None,559.3005889799998,None,,,,,,,,,,,,,,,,,,,,,,,,,,,,,,,,,,,,,,,,,,,,,,,,,,,,,9,001,female,31,450,500,2022_Aug_31_1531,Experiment,2021.1.4,359.58805592077596,
images\S2_M_H_03.png,images\S2_M_H_03_scrambled.png,2,happy,30,male,6,,129,off,1,0.5,0.75,0.5,0.934,3,128,1,1,1,0,0,0,0,6,,,,,,0,27,27,27,,,,,,,,,,,,,,,,,,,,,,,,,,,,,,,,,,,,,,,,,,,,,,,,,,,,,,,,,559.3477648000007,559.8504223000018,559.8504223000018,560.6001767000016,560.6001767000016,561.1055876000028,561.1055876000028,562.0413928000016,562.0413928000016,None,num_4,0.3771212999999989,562.0413928000016,None,happy,1,Happy,562.4442700599997,None,None,562.4442700599997,None,,,,,,,,,,,,,,,,,,,,,,,,,,,,,,,,,,,,,,,,,,,,,,,,,,,,,9,001,female,31,450,500,2022_Aug_31_1531,Experiment,2021.1.4,359.58805592077596,
images\S1_F_S_03.png,images\S1_F_S_03_scrambled.png,1,sad,-30,female,1,,306,on,2,0.5,0.75,0.5,0.785,3,305,1,1,1,2,2,32,128,161,,,,,,0,28,28,28,,,,,,,,,,,,,,,,,,,,,,,,,,,,,,,,,,,,,,,,,,,,,,,,,,,,,,,,,562.5079073000015,563.0077582000013,563.0077582000013,563.7574945000015,563.7574945000015,564.2574157000017,564.2574157000017,565.0460454000022,565.0460454000022,None,num_6,0.3561434000002919,565.0460454000022,None,sad,1,Sad,565.4293261600018,None,None,565.4293261600018,None,,,,,,,,,,,,,,,,,,,,,,,,,,,,,,,,,,,,,,,,,,,,,,,,,,,,,9,001,female,31,450,500,2022_Aug_31_1531,Experiment,2021.1.4,359.58805592077596,
images\S9_F_S_01.png,images\S9_F_S_01_scrambled.png,9,sad,-10,female,3,,232,on,2,0.5,0.75,0.5,0.849,3,231,2,1,1,2,2,32,128,163,,,,,,0,29,29,29,,,,,,,,,,,,,,,,,,,,,,,,,,,,,,,,,,,,,,,,,,,,,,,,,,,,,,,,,565.4931034000001,565.995738900001,565.995738900001,566.7484070999999,566.7484070999999,567.2537721000008,567.2537721000008,568.1061960000006,568.1061960000006,None,num_6,0.3439685000012105,568.1061960000006,None,sad,1,Sad,568.4644330799994,None,None,568.4644330799994,None,,,,,,,,,,,,,,,,,,,,,,,,,,,,,,,,,,,,,,,,,,,,,,,,,,,,,9,001,female,31,450,500,2022_Aug_31_1531,Experiment,2021.1.4,359.58805592077596,
images\S6_M_H_03.png,images\S6_M_H_03_scrambled.png,6,happy,30,male,6,,573,on,2,0.5,0.75,0.5,0.868,3,572,3,1,1,2,2,32,128,166,,,,,,0,30,30,30,,,,,,,,,,,,,,,,,,,,,,,,,,,,,,,,,,,,,,,,,,,,,,,,,,,,,,,,,568.5116331999998,569.0142930000002,569.0142930000002,569.7640186000026,569.7640186000026,570.2694627000019,570.2694627000019,571.141368200002,571.141368200002,None,num_4,0.29277149999688845,571.141368200002,None,happy,1,Happy,571.4524631000022,None,None,571.4524631000022,None,,,,,,,,,,,,,,,,,,,,,,,,,,,,,,,,,,,,,,,,,,,,,,,,,,,,,9,001,female,31,450,500,2022_Aug_31_1531,Experiment,2021.1.4,359.58805592077596,
images\S4_M_S_03.png,images\S4_M_S_03_scrambled.png,4,sad,-30,male,1,,324,on,2,0.5,0.75,0.5,0.865,3,323,4,1,1,2,2,32,128,161,,,,,,0,31,31,31,,,,,,,,,,,,,,,,,,,,,,,,,,,,,,,,,,,,,,,,,,,,,,,,,,,,,,,,,571.5023746000006,572.0022180000014,572.0022180000014,572.7519855000028,572.7519855000028,573.2518301000018,573.2518301000018,574.1210334999996,574.1210334999996,None,num_6,0.5613226999994367,574.1210334999996,None,sad,1,Sad,574.695857580001,None,None,574.695857580001,None,,,,,,,,,,,,,,,,,,,,,,,,,,,,,,,,,,,,,,,,,,,,,,,,,,,,,9,001,female,31,450,500,2022_Aug_31_1531,Experiment,2021.1.4,359.58805592077596,
images\S6_M_S_02.png,images\S6_M_S_02_scrambled.png,6,sad,-20,male,2,,35,off,1,0.5,0.75,0.5,0.914,3,34,1,1,1,0,0,0,0,2,,,,,,0,32,32,32,,,,,,,,,,,,,,,,,,,,,,,,,,,,,,,,,,,,,,,,,,,,,,,,,,,,,,,,,574.7430539000015,575.2456708000027,575.2456708000027,575.9982419000007,575.9982419000007,576.498058600002,576.498058600002,577.4172820999993,577.4172820999993,None,num_6,0.36882880000121077,577.4172820999993,None,sad,1,Sad,577.8116579600013,None,None,577.8116579600013,None,,,,,,,,,,,,,,,,,,,,,,,,,,,,,,,,,,,,,,,,,,,,,,,,,,,,,9,001,female,31,450,500,2022_Aug_31_1531,Experiment,2021.1.4,359.58805592077596,
images\S6_M_S_01.png,images\S6_M_S_01_scrambled.png,6,sad,-10,male,3,,154,off,1,0.5,0.75,0.5,0.85,3,153,2,2,1,0,0,0,0,3,,,,,,0,33,33,33,,,,,,,,,,,,,,,,,,,,,,,,,,,,,,,,,,,,,,,,,,,,,,,,,,,,,,,,,577.8643161,578.3697204000018,578.3697204000018,579.1223245000001,579.1223245000001,579.6248855000013,579.6248855000013,580.4774539000027,580.4774539000027,None,num_6,0.4207873999985168,580.4774539000027,None,sad,1,Sad,580.9133949800008,None,None,580.9133949800008,None,,,,,,,,,,,,,,,,,,,,,,,,,,,,,,,,,,,,,,,,,,,,,,,,,,,,,9,001,female,31,450,500,2022_Aug_31_1531,Experiment,2021.1.4,359.58805592077596,
images\S3_F_S_03.png,images\S3_F_S_03_scrambled.png,3,sad,-30,female,1,,78,on,2,0.5,0.75,0.5,0.878,3,77,1,1,1,2,2,32,128,161,,,,,,0,34,34,34,,,,,,,,,,,,,,,,,,,,,,,,,,,,,,,,,,,,,,,,,,,,,,,,,,,,,,,,,580.9633629000018,581.4661066000008,581.4661066000008,582.2185264,582.2185264,582.7183834000025,582.7183834000025,583.6015676999996,583.6015676999996,None,num_6,0.3604763000003004,583.6015676999996,None,sad,1,Sad,583.9791440000008,None,None,583.9791440000008,None,,,,,,,,,,,,,,,,,,,,,,,,,,,,,,,,,,,,,,,,,,,,,,,,,,,,,9,001,female,31,450,500,2022_Aug_31_1531,Experiment,2021.1.4,359.58805592077596,
images\S2_M_H_02.png,images\S2_M_H_02_scrambled.png,2,happy,20,male,5,,128,off,1,0.5,0.75,0.5,0.928,3,127,1,1,1,0,0,0,0,5,,,,,,0,35,35,35,,,,,,,,,,,,,,,,,,,,,,,,,,,,,,,,,,,,,,,,,,,,,,,,,,,,,,,,,584.0263018000005,584.5261879000027,584.5261879000027,585.2787228000016,585.2787228000016,585.7813231,585.7813231,586.7117261999992,586.7117261999992,None,num_4,0.31445239999811747,586.7117261999992,None,happy,1,Happy,587.0365184800022,None,None,587.0365184800022,None,,,,,,,,,,,,,,,,,,,,,,,,,,,,,,,,,,,,,,,,,,,,,,,,,,,,,9,001,female,31,450,500,2022_Aug_31_1531,Experiment,2021.1.4,359.58805592077596,
images\S5_F_S_03.png,images\S5_F_S_03_scrambled.png,5,sad,-30,female,1,,570,on,2,0.5,0.75,0.5,0.8,3,569,1,1,1,2,2,32,128,161,,,,,,0,36,36,36,,,,,,,,,,,,,,,,,,,,,,,,,,,,,,,,,,,,,,,,,,,,,,,,,,,,,,,,,587.0836971999997,587.586320800001,587.586320800001,588.3417765000013,588.3417765000013,588.8471128000019,588.8471128000019,589.6524123000017,589.6524123000017,None,num_6,0.5417352999975265,589.6524123000017,None,sad,1,Sad,590.2049889799993,None,None,590.2049889799993,None,,,,,,,,,,,,,,,,,,,,,,,,,,,,,,,,,,,,,,,,,,,,,,,,,,,,,9,001,female,31,450,500,2022_Aug_31_1531,Experiment,2021.1.4,359.58805592077596,
images\S8_M_S_01.png,images\S8_M_S_01_scrambled.png,8,sad,-10,male,3,,226,on,2,0.5,0.75,0.5,0.941,3,225,2,1,1,2,2,32,128,163,,,,,,0,37,37,37,,,,,,,,,,,,,,,,,,,,,,,,,,,,,,,,,,,,,,,,,,,,,,,,,,,,,,,,,590.2521785000026,590.7577103000003,590.7577103000003,591.5073446999995,591.5073446999995,592.009992700001,592.009992700001,592.954181000001,592.954181000001,None,num_6,0.43176949999906356,592.954181000001,None,sad,1,Sad,593.4012349000004,None,None,593.4012349000004,None,,,,,,,,,,,,,,,,,,,,,,,,,,,,,,,,,,,,,,,,,,,,,,,,,,,,,9,001,female,31,450,500,2022_Aug_31_1531,Experiment,2021.1.4,359.58805592077596,
images\S6_M_H_01.png,images\S6_M_H_01_scrambled.png,6,happy,10,male,4,,31,off,1,0.5,0.75,0.5,0.773,3,30,1,1,1,0,0,0,0,4,,,,,,0,38,38,38,,,,,,,,,,,,,,,,,,,,,,,,,,,,,,,,,,,,,,,,,,,,,,,,,,,,,,,,,593.4484115000014,593.9510516000009,593.9510516000009,594.7063748,594.7063748,595.2090793000025,595.2090793000025,595.9838425000016,595.9838425000016,None,num_6,0.5461873999993259,595.9838425000016,None,sad,1,Happy,596.5363808400011,None,None,596.5363808400011,None,,,,,,,,,,,,,,,,,,,,,,,,,,,,,,,,,,,,,,,,,,,,,,,,,,,,,9,001,female,31,450,500,2022_Aug_31_1531,Experiment,2021.1.4,359.58805592077596,
images\S8_M_S_03.png,images\S8_M_S_03_scrambled.png,8,sad,-30,male,1,,588,on,2,0.5,0.75,0.5,0.851,3,587,1,1,1,2,2,32,128,161,,,,,,0,39,39,39,,,,,,,,,,,,,,,,,,,,,,,,,,,,,,,,,,,,,,,,,,,,,,,,,,,,,,,,,596.5891111000019,597.0945587000024,597.0945587000024,597.8498781000017,597.8498781000017,598.3552707000017,598.3552707000017,599.2105652000027,599.2105652000027,None,num_6,0.4075879999982135,599.2105652000027,None,sad,1,Sad,599.6383309399985,None,None,599.6383309399985,None,,,,,,,,,,,,,,,,,,,,,,,,,,,,,,,,,,,,,,,,,,,,,,,,,,,,,9,001,female,31,450,500,2022_Aug_31_1531,Experiment,2021.1.4,359.58805592077596,
images\S8_M_H_02.png,images\S8_M_H_02_scrambled.png,8,happy,20,male,5,,224,on,2,0.5,0.75,0.5,0.765,3,223,2,2,1,2,2,32,128,165,,,,,,0,40,40,40,,,,,,,,,,,,,,,,,,,,,,,,,,,,,,,,,,,,,,,,,,,,,,,,,,,,,,,,,599.6881579000001,600.1936511999993,600.1936511999993,600.9489861000002,600.9489861000002,601.4543475999999,601.4543475999999,602.2234968000012,602.2234968000012,None,num_4,0.4426081999990856,602.2234968000012,None,happy,1,Happy,602.6817938200008,None,None,602.6817938200008,None,,,,,,,,,,,,,,,,,,,,,,,,,,,,,,,,,,,,,,,,,,,,,,,,,,,,,9,001,female,31,450,500,2022_Aug_31_1531,Experiment,2021.1.4,359.58805592077596,
images\S8_M_S_01.png,images\S8_M_S_01_scrambled.png,8,sad,-10,male,3,,346,on,2,0.5,0.75,0.5,0.773,3,345,3,3,1,2,2,32,128,163,,,,,,0,41,41,41,,,,,,,,,,,,,,,,,,,,,,,,,,,,,,,,,,,,,,,,,,,,,,,,,,,,,,,,,602.7344534000003,603.2398962000007,603.2398962000007,603.9896269000019,603.9896269000019,604.4922861000014,604.4922861000014,605.2670202000008,605.2670202000008,None,num_6,0.3591192999992927,605.2670202000008,None,sad,1,Sad,605.6391396800019,None,None,605.6391396800019,None,,,,,,,,,,,,,,,,,,,,,,,,,,,,,,,,,,,,,,,,,,,,,,,,,,,,,9,001,female,31,450,500,2022_Aug_31_1531,Experiment,2021.1.4,359.58805592077596,
images\S1_F_H_01.png,images\S1_F_H_01_scrambled.png,1,happy,10,female,4,,301,on,2,0.5,0.75,0.5,0.925,3,300,4,1,1,2,2,32,128,164,,,,,,0,42,42,42,,,,,,,,,,,,,,,,,,,,,,,,,,,,,,,,,,,,,,,,,,,,,,,,,,,,,,,,,605.6863360000025,606.1917463999998,606.1917463999998,606.9470660000006,606.9470660000006,607.4497864000004,607.4497864000004,608.380064500001,608.380064500001,None,num_4,0.4140649000000849,608.380064500001,None,happy,1,Happy,608.8076126799998,None,None,608.8076126799998,None,,,,,,,,,,,,,,,,,,,,,,,,,,,,,,,,,,,,,,,,,,,,,,,,,,,,,9,001,female,31,450,500,2022_Aug_31_1531,Experiment,2021.1.4,359.58805592077596,
images\S10_M_H_01.png,images\S10_M_H_01_scrambled.png,10,happy,10,male,4,,295,off,1,0.5,0.75,0.5,0.856,3,294,1,1,2,0,0,0,0,4,,,,,,0,43,43,43,,,,,,,,,,,,,,,,,,,,,,,,,,,,,,,,,,,,,,,,,,,,,,,,,,,,,,,,,608.8548013,609.3546535999994,609.3546535999994,610.1044175000025,610.1044175000025,610.6098625000013,610.6098625000013,611.4706918000011,611.4706918000011,None,num_4,0.37141719999999623,611.4706918000011,None,happy,1,Happy,611.8678780600006,None,None,611.8678780600006,None,,,,,,,,,,,,,,,,,,,,,,,,,,,,,,,,,,,,,,,,,,,,,,,,,,,,,9,001,female,31,450,500,2022_Aug_31_1531,Experiment,2021.1.4,359.58805592077596,
images\S6_M_S_03.png,images\S6_M_S_03_scrambled.png,6,sad,-30,male,1,,156,off,1,0.5,0.75,0.5,0.924,3,155,2,1,1,0,0,0,0,1,,,,,,0,44,44,44,,,,,,,,,,,,,,,,,,,,,,,,,,,,,,,,,,,,,,,,,,,,,,,,,,,,,,,,,611.9205251999992,612.4231441000011,612.4231441000011,613.1729153000015,613.1729153000015,613.6755611000008,613.6755611000008,614.6031785000014,614.6031785000014,None,num_6,0.262942599998496,614.6031785000014,None,sad,1,Sad,614.8947293600016,None,None,614.8947293600016,None,,,,,,,,,,,,,,,,,,,,,,,,,,,,,,,,,,,,,,,,,,,,,,,,,,,,,9,001,female,31,450,500,2022_Aug_31_1531,Experiment,2021.1.4,359.58805592077596,
images\S10_M_H_01.png,images\S10_M_H_01_scrambled.png,10,happy,10,male,4,,355,on,2,0.5,0.75,0.5,0.913,3,354,1,1,1,2,2,32,128,164,,,,,,0,45,45,45,,,,,,,,,,,,,,,,,,,,,,,,,,,,,,,,,,,,,,,,,,,,,,,,,,,,,,,,,614.9584802000027,615.461113100002,615.461113100002,616.2108946000008,616.2108946000008,616.7136333000017,616.7136333000017,617.6298841000025,617.6298841000025,None,num_4,0.4602980999989086,617.6298841000025,None,happy,1,Happy,618.1187357600014,None,None,618.1187357600014,None,,,,,,,,,,,,,,,,,,,,,,,,,,,,,,,,,,,,,,,,,,,,,,,,,,,,,9,001,female,31,450,500,2022_Aug_31_1531,Experiment,2021.1.4,359.58805592077596,
images\S7_F_S_01.png,images\S7_F_S_01_scrambled.png,7,sad,-10,female,3,,100,on,2,0.5,0.75,0.5,0.86,3,99,2,1,1,2,2,32,128,163,,,,,,0,46,46,46,,,,,,,,,,,,,,,,,,,,,,,,,,,,,,,,,,,,,,,,,,,,,,,,,,,,,,,,,618.1713851999993,618.6740857000004,618.6740857000004,619.4293877000018,619.4293877000018,619.9320057000004,619.9320057000004,620.7956064999998,620.7956064999998,None,num_6,0.4464912000003096,620.7956064999998,None,sad,1,Sad,621.256569979999,None,None,621.256569979999,None,,,,,,,,,,,,,,,,,,,,,,,,,,,,,,,,,,,,,,,,,,,,,,,,,,,,,9,001,female,31,450,500,2022_Aug_31_1531,Experiment,2021.1.4,359.58805592077596,
images\S3_F_H_03.png,images\S3_F_H_03_scrambled.png,3,happy,30,female,6,,195,on,2,0.5,0.75,0.5,0.802,3,194,3,1,1,2,2,32,128,166,,,,,,0,47,47,47,,,,,,,,,,,,,,,,,,,,,,,,,,,,,,,,,,,,,,,,,,,,,,,,,,,,,,,,,621.3066827000002,621.8091691000009,621.8091691000009,622.5644912999996,622.5644912999996,623.0671609000019,623.0671609000019,623.8724757000018,623.8724757000018,None,num_4,0.553574400000798,623.8724757000018,None,happy,1,Happy,624.438924180001,None,None,624.438924180001,None,,,,,,,,,,,,,,,,,,,,,,,,,,,,,,,,,,,,,,,,,,,,,,,,,,,,,9,001,female,31,450,500,2022_Aug_31_1531,Experiment,2021.1.4,359.58805592077596,
images\S3_F_S_02.png,images\S3_F_S_02_scrambled.png,3,sad,-20,female,2,,377,off,1,0.5,0.75,0.5,0.916,3,376,1,2,1,0,0,0,0,2,,,,,,0,48,48,48,,,,,,,,,,,,,,,,,,,,,,,,,,,,,,,,,,,,,,,,,,,,,,,,,,,,,,,,,624.4861192000026,624.9859539999998,624.9859539999998,625.7413188999999,625.7413188999999,626.2440405000016,626.2440405000016,627.1658895,627.1658895,None,num_4,0.636145000000397,627.1658895,None,happy,1,Sad,627.8101091399999,None,None,627.8101091399999,None,,,,,,,,,,,,,,,,,,,,,,,,,,,,,,,,,,,,,,,,,,,,,,,,,,,,,9,001,female,31,450,500,2022_Aug_31_1531,Experiment,2021.1.4,359.58805592077596,
images\blank.jpg,images\blank.jpg,none,none,none,none,0,,633,on,2,0.5,0.75,0.5,0.918,0,632,1,1,1,3,3,48,192,240,,,,,,0,49,49,49,,,,,,,,,,,,,,,,,,,,,,,,,,,,,,,,,,,,,,,,,,,,,,,,,,,,,,,,,627.8936143999999,628.3960263000008,628.3960263000008,629.1485785000004,629.1485785000004,629.6540098000005,629.6540098000005,630.5787275000002,630.5787275000002,630.5787275000002,None,,630.5787275000002,None,miss,1,,633.5834019400004,None,None,633.5834019400004,None,,,,,,,,,,,,,,,,,,,,,,,,,,,,,,,,,,,,,,,,,,,,,,,,,,,,,9,001,female,31,450,500,2022_Aug_31_1531,Experiment,2021.1.4,359.58805592077596,
images\S3_F_S_01.png,images\S3_F_S_01_scrambled.png,3,sad,-10,female,3,,376,off,1,0.5,0.75,0.5,0.793,3,375,1,1,1,0,0,0,0,3,,,,,,0,50,50,50,,,,,,,,,,,,,,,,,,,,,,,,,,,,,,,,,,,,,,,,,,,,,,,,,,,,,,,,,633.7057105999993,634.2053615000004,634.2053615000004,634.9551237000014,634.9551237000014,635.460565100002,635.460565100002,636.2603034999993,636.2603034999993,None,num_6,0.6939794000027177,636.2603034999993,633.7057105999993,sad,1,Sad,636.9684101800004,None,None,636.9684101800004,None,,,,,,,,,,,,,,,,,,,,,,,,,,,,,,,,,,,,,,,,,,,,,,,,,,,,,9,001,female,31,450,500,2022_Aug_31_1531,Experiment,2021.1.4,359.58805592077596,
images\S8_M_S_03.png,images\S8_M_S_03_scrambled.png,8,sad,-30,male,1,,528,off,1,0.5,0.75,0.5,0.804,3,527,2,1,1,0,0,0,0,1,,,,,,0,51,51,51,,,,,,,,,,,,,,,,,,,,,,,,,,,,,,,,,,,,,,,,,,,,,,,,,,,,,,,,,637.0155937000018,637.5182549000019,637.5182549000019,638.2707947000017,638.2707947000017,638.7706171999998,638.7706171999998,639.5843362000014,639.5843362000014,None,num_6,0.3937327000021469,639.5843362000014,None,sad,1,Sad,640.0009096599991,None,None,640.0009096599991,None,,,,,,,,,,,,,,,,,,,,,,,,,,,,,,,,,,,,,,,,,,,,,,,,,,,,,9,001,female,31,450,500,2022_Aug_31_1531,Experiment,2021.1.4,359.58805592077596,
images\S6_M_H_03.png,images\S6_M_H_03_scrambled.png,6,happy,30,male,6,,153,off,1,0.5,0.75,0.5,0.894,3,152,3,1,1,0,0,0,0,6,,,,,,0,52,52,52,,,,,,,,,,,,,,,,,,,,,,,,,,,,,,,,,,,,,,,,,,,,,,,,,,,,,,,,,640.0535546000028,640.5589763000025,640.5589763000025,641.3116389999996,641.3116389999996,641.8141254000002,641.8141254000002,642.7138760000016,642.7138760000016,None,num_4,0.27216820000103326,642.7138760000016,None,happy,1,Happy,642.9998841999986,None,None,642.9998841999986,None,,,,,,,,,,,,,,,,,,,,,,,,,,,,,,,,,,,,,,,,,,,,,,,,,,,,,9,001,female,31,450,500,2022_Aug_31_1531,Experiment,2021.1.4,359.58805592077596,
images\blank.jpg,images\blank.jpg,none,none,none,none,0,,628,on,2,0.5,0.75,0.5,0.911,0,627,1,1,1,3,3,48,192,240,,,,,,0,53,53,53,,,,,,,,,,,,,,,,,,,,,,,,,,,,,,,,,,,,,,,,,,,,,,,,,,,,,,,,,643.0834275000016,643.5886021000006,643.5886021000006,644.3383496000024,644.3383496000024,644.8410948000019,644.8410948000019,645.7546879000001,645.7546879000001,645.7546879000001,None,,645.7546879000001,None,miss,1,,648.75933364,None,None,648.75933364,None,,,,,,,,,,,,,,,,,,,,,,,,,,,,,,,,,,,,,,,,,,,,,,,,,,,,,9,001,female,31,450,500,2022_Aug_31_1531,Experiment,2021.1.4,359.58805592077596,
images\S9_F_H_03.png,images\S9_F_H_03_scrambled.png,9,happy,30,female,6,,351,on,2,0.5,0.75,0.5,0.899,3,350,2,1,1,2,2,32,128,166,,,,,,0,54,54,54,,,,,,,,,,,,,,,,,,,,,,,,,,,,,,,,,,,,,,,,,,,,,,,,,,,,,,,,,648.8872346999997,649.3923687999995,649.3923687999995,650.1476927000003,650.1476927000003,650.6503045000027,650.6503045000027,651.5556232000017,651.5556232000017,None,num_4,0.30245140000261017,651.5556232000017,648.8872346999997,happy,1,Happy,651.8749640999995,None,None,651.8749640999995,None,,,,,,,,,,,,,,,,,,,,,,,,,,,,,,,,,,,,,,,,,,,,,,,,,,,,,9,001,female,31,450,500,2022_Aug_31_1531,Experiment,2021.1.4,359.58805592077596,
images\S4_M_H_01.png,images\S4_M_H_01_scrambled.png,4,happy,10,male,4,,499,off,1,0.5,0.75,0.5,0.8,3,498,1,1,1,0,0,0,0,4,,,,,,0,55,55,55,,,,,,,,,,,,,,,,,,,,,,,,,,,,,,,,,,,,,,,,,,,,,,,,,,,,,,,,,651.9221281999999,652.4249065000004,652.4249065000004,653.1773033999998,653.1773033999998,653.6771757999995,653.6771757999995,654.4798312000021,654.4798312000021,None,num_6,0.29833009999856586,654.4798312000021,None,sad,1,Happy,654.7851489399995,None,None,654.7851489399995,None,,,,,,,,,,,,,,,,,,,,,,,,,,,,,,,,,,,,,,,,,,,,,,,,,,,,,9,001,female,31,450,500,2022_Aug_31_1531,Experiment,2021.1.4,359.58805592077596,
images\S6_M_S_02.png,images\S6_M_S_02_scrambled.png,6,sad,-20,male,2,,275,off,1,0.5,0.75,0.5,0.814,3,274,2,1,1,0,0,0,0,2,,,,,,0,56,56,56,,,,,,,,,,,,,,,,,,,,,,,,,,,,,,,,,,,,,,,,,,,,,,,,,,,,,,,,,654.8295741000002,655.3294236000002,655.3294236000002,656.0819991999997,656.0819991999997,656.5846434000014,656.5846434000014,657.3982515000025,657.3982515000025,None,num_6,0.3638208000011218,657.3982515000025,None,sad,1,Sad,657.7759014000003,None,None,657.7759014000003,None,,,,,,,,,,,,,,,,,,,,,,,,,,,,,,,,,,,,,,,,,,,,,,,,,,,,,9,001,female,31,450,500,2022_Aug_31_1531,Experiment,2021.1.4,359.58805592077596,
images\S5_F_S_03.png,images\S5_F_S_03_scrambled.png,5,sad,-30,female,1,,270,off,1,0.5,0.75,0.5,0.796,3,269,3,1,1,0,0,0,0,1,,,,,,0,57,57,57,,,,,,,,,,,,,,,,,,,,,,,,,,,,,,,,,,,,,,,,,,,,,,,,,,,,,,,,,657.8231008000002,658.3257443000002,658.3257443000002,659.0811117000012,659.0811117000012,659.580886300002,659.580886300002,660.380772200002,660.380772200002,None,num_6,0.30119360000026063,660.380772200002,None,sad,1,Sad,660.7000374000017,None,None,660.7000374000017,None,,,,,,,,,,,,,,,,,,,,,,,,,,,,,,,,,,,,,,,,,,,,,,,,,,,,,9,001,female,31,450,500,2022_Aug_31_1531,Experiment,2021.1.4,359.58805592077596,
images\S1_F_H_03.png,images\S1_F_H_03_scrambled.png,1,happy,30,female,6,,123,off,1,0.5,0.75,0.5,0.78,3,122,4,1,1,0,0,0,0,6,,,,,,0,58,58,58,,,,,,,,,,,,,,,,,,,,,,,,,,,,,,,,,,,,,,,,,,,,,,,,,,,,,,,,,660.7554741000022,661.2554082999995,661.2554082999995,662.0051805000003,662.0051805000003,662.5049940000026,662.5049940000026,663.2880863999999,663.2880863999999,None,num_4,0.28210410000247066,663.2880863999999,None,happy,1,Happy,663.596413059999,None,None,663.596413059999,None,,,,,,,,,,,,,,,,,,,,,,,,,,,,,,,,,,,,,,,,,,,,,,,,,,,,,9,001,female,31,450,500,2022_Aug_31_1531,Experiment,2021.1.4,359.58805592077596,
images\S6_M_S_01.png,images\S6_M_S_01_scrambled.png,6,sad,-10,male,3,,34,off,1,0.5,0.75,0.5,0.812,3,33,5,1,1,0,0,0,0,3,,,,,,0,59,59,59,,,,,,,,,,,,,,,,,,,,,,,,,,,,,,,,,,,,,,,,,,,,,,,,,,,,,,,,,663.6490931000008,664.1517539000015,664.1517539000015,664.904303700001,664.904303700001,665.4069281000011,665.4069281000011,666.2261367000028,666.2261367000028,None,num_6,0.4080826999997953,666.2261367000028,None,sad,1,Sad,666.6481867800022,None,None,666.6481867800022,None,,,,,,,,,,,,,,,,,,,,,,,,,,,,,,,,,,,,,,,,,,,,,,,,,,,,,9,001,female,31,450,500,2022_Aug_31_1531,Experiment,2021.1.4,359.58805592077596,
images\S8_M_H_02.png,images\S8_M_H_02_scrambled.png,8,happy,20,male,5,,344,on,2,0.5,0.75,0.5,0.793,3,343,1,1,1,2,2,32,128,165,,,,,,0,60,60,60,,,,,,,,,,,,,,,,,,,,,,,,,,,,,,,,,,,,,,,,,,,,,,,,,,,,,,,,,666.6981626000015,667.2009001000006,667.2009001000006,667.9561587000026,667.9561587000026,668.4615631000015,668.4615631000015,669.2613158000022,669.2613158000022,None,num_4,0.4208151999991969,669.2613158000022,None,happy,1,Happy,669.7056902600001,None,None,669.7056902600001,None,,,,,,,,,,,,,,,,,,,,,,,,,,,,,,,,,,,,,,,,,,,,,,,,,,,,,9,001,female,31,450,500,2022_Aug_31_1531,Experiment,2021.1.4,359.58805592077596,
images\S1_F_H_02.png,images\S1_F_H_02_scrambled.png,1,happy,20,female,5,,182,on,2,0.5,0.75,0.5,0.929,3,181,2,1,2,2,2,32,128,165,,,,,,0,61,61,61,,,,,,,,,,,,,,,,,,,,,,,,,,,,,,,,,,,,,,,,,,,,,,,,,,,,,,,,,669.7583247000002,670.2581917999996,670.2581917999996,671.0108583000001,671.0108583000001,671.5161948000023,671.5161948000023,672.4519800000016,672.4519800000016,None,num_4,0.4540930000002845,672.4519800000016,None,happy,1,Happy,672.9212634800016,None,None,672.9212634800016,None,,,,,,,,,,,,,,,,,,,,,,,,,,,,,,,,,,,,,,,,,,,,,,,,,,,,,9,001,female,31,450,500,2022_Aug_31_1531,Experiment,2021.1.4,359.58805592077596,
images\S5_F_S_03.png,images\S5_F_S_03_scrambled.png,5,sad,-30,female,1,,390,off,1,0.5,0.75,0.5,0.927,3,389,1,1,1,0,0,0,0,1,,,,,,0,62,62,62,,,,,,,,,,,,,,,,,,,,,,,,,,,,,,,,,,,,,,,,,,,,,,,,,,,,,,,,,672.9684555999993,673.4682891000011,673.4682891000011,674.2180746000013,674.2180746000013,674.7207445000022,674.7207445000022,675.6509891999995,675.6509891999995,None,num_6,0.3431711999983236,675.6509891999995,None,sad,1,Sad,676.0203814600012,None,None,676.0203814600012,None,,,,,,,,,,,,,,,,,,,,,,,,,,,,,,,,,,,,,,,,,,,,,,,,,,,,,9,001,female,31,450,500,2022_Aug_31_1531,Experiment,2021.1.4,359.58805592077596,
images\S2_M_H_01.png,images\S2_M_H_01_scrambled.png,2,happy,10,male,4,,487,off,1,0.5,0.75,0.5,0.926,3,486,2,1,1,0,0,0,0,4,,,,,,0,63,63,63,,,,,,,,,,,,,,,,,,,,,,,,,,,,,,,,,,,,,,,,,,,,,,,,,,,,,,,,,676.0841591999997,676.5840076000022,676.5840076000022,677.3337807000025,677.3337807000025,677.8364309000026,677.8364309000026,678.7695521000023,678.7695521000023,None,num_6,0.5126478000020143,678.7695521000023,None,sad,1,Happy,679.2916002399993,None,None,679.2916002399993,None,,,,,,,,,,,,,,,,,,,,,,,,,,,,,,,,,,,,,,,,,,,,,,,,,,,,,9,001,female,31,450,500,2022_Aug_31_1531,Experiment,2021.1.4,359.58805592077596,
images\S1_F_S_03.png,images\S1_F_S_03_scrambled.png,1,sad,-30,female,1,,66,on,2,0.5,0.75,0.5,0.802,3,65,1,1,1,2,2,32,128,161,,,,,,0,64,64,64,,,,,,,,,,,,,,,,,,,,,,,,,,,,,,,,,,,,,,,,,,,,,,,,,,,,,,,,,679.3470503000026,679.8496946000014,679.8496946000014,680.5994707000027,680.5994707000027,681.104967700001,681.104967700001,681.9101604000025,681.9101604000025,None,num_6,0.39582850000078906,681.9101604000025,None,sad,1,Sad,682.321168800001,None,None,682.321168800001,None,,,,,,,,,,,,,,,,,,,,,,,,,,,,,,,,,,,,,,,,,,,,,,,,,,,,,9,001,female,31,450,500,2022_Aug_31_1531,Experiment,2021.1.4,359.58805592077596,
images\S10_M_S_03.png,images\S10_M_S_03_scrambled.png,10,sad,-30,male,1,,540,off,1,0.5,0.75,0.5,0.867,3,539,1,1,2,0,0,0,0,1,,,,,,0,65,65,65,,,,,,,,,,,,,,,,,,,,,,,,,,,,,,,,,,,,,,,,,,,,,,,,,,,,,,,,,682.3683395000007,682.8682002999994,682.8682002999994,683.6207413000011,683.6207413000011,684.1234041999996,684.1234041999996,684.9897796000005,684.9897796000005,None,num_6,0.5082804000012402,684.9897796000005,None,sad,1,Sad,685.520247660001,None,None,685.520247660001,None,,,,,,,,,,,,,,,,,,,,,,,,,,,,,,,,,,,,,,,,,,,,,,,,,,,,,9,001,female,31,450,500,2022_Aug_31_1531,Experiment,2021.1.4,359.58805592077596,
images\blank.jpg,images\blank.jpg,none,none,none,none,0,,635,on,2,0.5,0.75,0.5,0.766,0,634,1,1,1,3,3,48,192,240,,,,,,0,66,66,66,,,,,,,,,,,,,,,,,,,,,,,,,,,,,,,,,,,,,,,,,,,,,,,,,,,,,,,,,685.6092164000002,686.1116664000001,686.1116664000001,686.8669647999996,686.8669647999996,687.3696799000027,687.3696799000027,688.1360645000022,688.1360645000022,688.1360645000022,None,,688.1360645000022,None,miss,1,,691.1351218200004,None,None,691.1351218200004,None,,,,,,,,,,,,,,,,,,,,,,,,,,,,,,,,,,,,,,,,,,,,,,,,,,,,,9,001,female,31,450,500,2022_Aug_31_1531,Experiment,2021.1.4,359.58805592077596,
images\S8_M_S_03.png,images\S8_M_S_03_scrambled.png,8,sad,-30,male,1,,288,off,1,0.5,0.75,0.5,0.884,3,287,1,1,1,0,0,0,0,1,,,,,,0,67,67,67,,,,,,,,,,,,,,,,,,,,,,,,,,,,,,,,,,,,,,,,,,,,,,,,,,,,,,,,,691.2491062000008,691.7517191000006,691.7517191000006,692.5041285000007,692.5041285000007,693.0039744000023,693.0039744000023,693.8927127000024,693.8927127000024,None,num_6,0.477446200002305,693.8927127000024,691.2491062000008,sad,1,Sad,694.3925532599991,None,None,694.3925532599991,None,,,,,,,,,,,,,,,,,,,,,,,,,,,,,,,,,,,,,,,,,,,,,,,,,,,,,9,001,female,31,450,500,2022_Aug_31_1531,Experiment,2021.1.4,359.58805592077596,
images\blank.jpg,images\blank.jpg,none,none,none,none,0,,632,on,2,0.5,0.75,0.5,0.781,0,631,1,1,1,3,3,48,192,240,,,,,,0,68,68,68,,,,,,,,,,,,,,,,,,,,,,,,,,,,,,,,,,,,,,,,,,,,,,,,,,,,,,,,,694.4815357000007,694.9839229999998,694.9839229999998,695.7392428999992,695.7392428999992,696.2420106999998,696.2420106999998,697.0278338000026,697.0278338000026,697.0278338000026,None,,697.0278338000026,None,miss,1,,700.0268401200017,None,None,700.0268401200017,None,,,,,,,,,,,,,,,,,,,,,,,,,,,,,,,,,,,,,,,,,,,,,,,,,,,,,9,001,female,31,450,500,2022_Aug_31_1531,Experiment,2021.1.4,359.58805592077596,
images\S4_M_S_01.png,images\S4_M_S_01_scrambled.png,4,sad,-10,male,3,,142,off,1,0.5,0.75,0.5,0.885,3,141,1,1,1,0,0,0,0,3,,,,,,0,69,69,69,,,,,,,,,,,,,,,,,,,,,,,,,,,,,,,,,,,,,,,,,,,,,,,,,,,,,,,,,700.1409475,700.6433538000019,700.6433538000019,701.3986614000023,701.3986614000023,701.9012084999995,701.9012084999995,702.7927163000022,702.7927163000022,None,num_6,0.6653877999997349,702.7927163000022,700.1409475,sad,1,Sad,703.4730004799995,None,None,703.4730004799995,None,,,,,,,,,,,,,,,,,,,,,,,,,,,,,,,,,,,,,,,,,,,,,,,,,,,,,9,001,female,31,450,500,2022_Aug_31_1531,Experiment,2021.1.4,359.58805592077596,
images\S4_M_H_01.png,images\S4_M_H_01_scrambled.png,4,happy,10,male,4,,79,on,2,0.5,0.75,0.5,0.943,3,78,1,2,1,2,2,32,128,164,,,,,,0,70,70,70,,,,,,,,,,,,,,,,,,,,,,,,,,,,,,,,,,,,,,,,,,,,,,,,,,,,,,,,,703.5229710999993,704.0283750000017,704.0283750000017,704.7781314999993,704.7781314999993,705.280851800002,705.280851800002,706.2277112000011,706.2277112000011,None,num_6,0.6463503999984823,706.2277112000011,None,sad,1,Happy,706.8830689399997,None,None,706.8830689399997,None,,,,,,,,,,,,,,,,,,,,,,,,,,,,,,,,,,,,,,,,,,,,,,,,,,,,,9,001,female,31,450,500,2022_Aug_31_1531,Experiment,2021.1.4,359.58805592077596,
images\S7_F_H_03.png,images\S7_F_H_03_scrambled.png,7,happy,30,female,6,,579,on,2,0.5,0.75,0.5,0.814,3,578,2,1,1,2,2,32,128,166,,,,,,0,71,71,71,,,,,,,,,,,,,,,,,,,,,,,,,,,,,,,,,,,,,,,,,,,,,,,,,,,,,,,,,706.9302543000013,707.4356348000001,707.4356348000001,708.1882277000004,708.1882277000004,708.6880524000007,708.6880524000007,709.5044820000003,709.5044820000003,None,num_4,0.45755629999985103,709.5044820000003,None,happy,1,Happy,709.9737891799988,None,None,709.9737891799988,None,,,,,,,,,,,,,,,,,,,,,,,,,,,,,,,,,,,,,,,,,,,,,,,,,,,,,9,001,female,31,450,500,2022_Aug_31_1531,Experiment,2021.1.4,359.58805592077596,
images\S6_M_H_01.png,images\S6_M_H_01_scrambled.png,6,happy,10,male,4,,271,off,1,0.5,0.75,0.5,0.947,3,270,1,1,1,0,0,0,0,4,,,,,,0,72,72,72,,,,,,,,,,,,,,,,,,,,,,,,,,,,,,,,,,,,,,,,,,,,,,,,,,,,,,,,,710.0209629000019,710.5236059000017,710.5236059000017,711.2733737000017,711.2733737000017,711.7732309000021,711.7732309000021,712.7201370000002,712.7201370000002,None,num_6,0.34586729999864474,712.7201370000002,None,sad,1,Happy,713.0756063400017,None,None,713.0756063400017,None,,,,,,,,,,,,,,,,,,,,,,,,,,,,,,,,,,,,,,,,,,,,,,,,,,,,,9,001,female,31,450,500,2022_Aug_31_1531,Experiment,2021.1.4,359.58805592077596,
images\S4_M_H_03.png,images\S4_M_H_03_scrambled.png,4,happy,30,male,6,,561,on,2,0.5,0.75,0.5,0.82,3,560,1,1,1,2,2,32,128,166,,,,,,0,73,73,73,,,,,,,,,,,,,,,,,,,,,,,,,,,,,,,,,,,,,,,,,,,,,,,,,,,,,,,,,713.1255662000003,713.6282090000022,713.6282090000022,714.3808269000001,714.3808269000001,714.8861778000028,714.8861778000028,715.7109759000014,715.7109759000014,None,num_4,0.5870739999991201,715.7109759000014,None,happy,1,Happy,716.3135180999998,None,None,716.3135180999998,None,,,,,,,,,,,,,,,,,,,,,,,,,,,,,,,,,,,,,,,,,,,,,,,,,,,,,9,001,female,31,450,500,2022_Aug_31_1531,Experiment,2021.1.4,359.58805592077596,
images\blank.jpg,images\blank.jpg,none,none,none,none,0,,649,on,2,0.5,0.75,0.5,0.814,0,648,2,1,1,3,3,48,192,240,,,,,,0,74,74,74,,,,,,,,,,,,,,,,,,,,,,,,,,,,,,,,,,,,,,,,,,,,,,,,,,,,,,,,,716.3970117000026,716.9022361000025,716.9022361000025,717.6519556000021,717.6519556000021,718.1517992000008,718.1517992000008,718.9654744,718.9654744,718.9654744,None,,718.9654744,None,miss,1,,721.9701559399996,None,None,721.9701559399996,None,,,,,,,,,,,,,,,,,,,,,,,,,,,,,,,,,,,,,,,,,,,,,,,,,,,,,9,001,female,31,450,500,2022_Aug_31_1531,Experiment,2021.1.4,359.58805592077596,
images\S7_F_H_02.png,images\S7_F_H_02_scrambled.png,7,happy,20,female,5,,398,off,1,0.5,0.75,0.5,0.826,3,397,1,1,1,0,0,0,0,5,,,,,,0,75,75,75,,,,,,,,,,,,,,,,,,,,,,,,,,,,,,,,,,,,,,,,,,,,,,,,,,,,,,,,,722.0925010000028,722.5976948999996,722.5976948999996,723.3530081000026,723.3530081000026,723.8557473000001,723.8557473000001,724.6860038000013,724.6860038000013,None,num_4,0.31603570000152104,724.6860038000013,722.0925010000028,happy,1,Happy,725.0164014000002,None,None,725.0164014000002,None,,,,,,,,,,,,,,,,,,,,,,,,,,,,,,,,,,,,,,,,,,,,,,,,,,,,,9,001,female,31,450,500,2022_Aug_31_1531,Experiment,2021.1.4,359.58805592077596,
images\S4_M_S_01.png,images\S4_M_S_01_scrambled.png,4,sad,-10,male,3,,202,on,2,0.5,0.75,0.5,0.907,3,201,1,1,1,2,2,32,128,163,,,,,,0,76,76,76,,,,,,,,,,,,,,,,,,,,,,,,,,,,,,,,,,,,,,,,,,,,,,,,,,,,,,,,,725.0635799000011,725.5662128000004,725.5662128000004,726.3215334000015,726.3215334000015,726.8242052000023,726.8242052000023,727.7378938000002,727.7378938000002,None,num_6,0.3121430999999575,727.7378938000002,None,sad,1,Sad,728.0654627000004,None,None,728.0654627000004,None,,,,,,,,,,,,,,,,,,,,,,,,,,,,,,,,,,,,,,,,,,,,,,,,,,,,,9,001,female,31,450,500,2022_Aug_31_1531,Experiment,2021.1.4,359.58805592077596,
images\S7_F_H_03.png,images\S7_F_H_03_scrambled.png,7,happy,30,female,6,,39,off,1,0.5,0.75,0.5,0.798,3,38,1,1,1,0,0,0,0,6,,,,,,0,77,77,77,,,,,,,,,,,,,,,,,,,,,,,,,,,,,,,,,,,,,,,,,,,,,,,,,,,,,,,,,728.1126422000016,728.6152618000015,728.6152618000015,729.3706292999996,729.3706292999996,729.8760274000015,729.8760274000015,730.675744600001,730.675744600001,None,num_4,0.33429830000022775,730.675744600001,None,happy,1,Happy,731.0367917799987,None,None,731.0367917799987,None,,,,,,,,,,,,,,,,,,,,,,,,,,,,,,,,,,,,,,,,,,,,,,,,,,,,,9,001,female,31,450,500,2022_Aug_31_1531,Experiment,2021.1.4,359.58805592077596,
images\S10_M_H_02.png,images\S10_M_H_02_scrambled.png,10,happy,20,male,5,,296,off,1,0.5,0.75,0.5,0.758,3,295,2,1,1,0,0,0,0,5,,,,,,0,78,78,78,,,,,,,,,,,,,,,,,,,,,,,,,,,,,,,,,,,,,,,,,,,,,,,,,,,,,,,,,731.0894966000014,731.5949946000001,731.5949946000001,732.3502838000022,732.3502838000022,732.8528594000018,732.8528594000018,733.6165371999996,733.6165371999996,None,num_4,0.2734866000027978,733.6165371999996,None,happy,1,Happy,733.9164708800009,None,None,733.9164708800009,None,,,,,,,,,,,,,,,,,,,,,,,,,,,,,,,,,,,,,,,,,,,,,,,,,,,,,9,001,female,31,450,500,2022_Aug_31_1531,Experiment,2021.1.4,359.58805592077596,
images\S10_M_H_02.png,images\S10_M_H_02_scrambled.png,10,happy,20,male,5,,116,on,2,0.5,0.75,0.5,0.778,3,115,1,2,2,2,2,32,128,165,,,,,,0,79,79,79,,,,,,,,,,,,,,,,,,,,,,,,,,,,,,,,,,,,,,,,,,,,,,,,,,,,,,,,,733.9719478000006,734.4773668000016,734.4773668000016,735.2299975999995,735.2299975999995,735.7325345000027,735.7325345000027,736.5156472000017,736.5156472000017,None,num_4,0.4864190000007511,736.5156472000017,None,happy,1,Happy,737.0239063600005,None,None,737.0239063600005,None,,,,,,,,,,,,,,,,,,,,,,,,,,,,,,,,,,,,,,,,,,,,,,,,,,,,,9,001,female,31,450,500,2022_Aug_31_1531,Experiment,2021.1.4,359.58805592077596,
images\blank.jpg,images\blank.jpg,none,none,none,none,0,,627,on,2,0.5,0.75,0.5,0.816,0,626,2,1,1,3,3,48,192,240,,,,,,0,80,80,80,,,,,,,,,,,,,,,,,,,,,,,,,,,,,,,,,,,,,,,,,,,,,,,,,,,,,,,,,737.1129288000011,737.6152761000012,737.6152761000012,738.3706660999997,738.3706660999997,738.8732376000007,738.8732376000007,739.6952550000024,739.6952550000024,739.6952550000024,None,,739.6952550000024,None,miss,1,,742.6998820400017,None,None,742.6998820400017,None,,,,,,,,,,,,,,,,,,,,,,,,,,,,,,,,,,,,,,,,,,,,,,,,,,,,,9,001,female,31,450,500,2022_Aug_31_1531,Experiment,2021.1.4,359.58805592077596,
images\S10_M_H_03.png,images\S10_M_H_03_scrambled.png,10,happy,30,male,6,,537,off,1,0.5,0.75,0.5,0.852,3,536,1,1,1,0,0,0,0,6,,,,,,0,81,81,81,,,,,,,,,,,,,,,,,,,,,,,,,,,,,,,,,,,,,,,,,,,,,,,,,,,,,,,,,742.8194791000024,743.3190814000009,743.3190814000009,744.0688432000024,744.0688432000024,744.5715239000019,744.5715239000019,745.4295764000017,745.4295764000017,None,num_4,0.37248579999868525,745.4295764000017,742.8194791000024,happy,1,Happy,745.8267541599984,None,None,745.8267541599984,None,,,,,,,,,,,,,,,,,,,,,,,,,,,,,,,,,,,,,,,,,,,,,,,,,,,,,9,001,female,31,450,500,2022_Aug_31_1531,Experiment,2021.1.4,359.58805592077596,
images\S8_M_S_01.png,images\S8_M_S_01_scrambled.png,8,sad,-10,male,3,,286,off,1,0.5,0.75,0.5,0.851,3,285,2,1,1,0,0,0,0,3,,,,,,0,82,82,82,,,,,,,,,,,,,,,,,,,,,,,,,,,,,,,,,,,,,,,,,,,,,,,,,,,,,,,,,745.8794038000015,746.3821739000014,746.3821739000014,747.1317688000017,747.1317688000017,747.634423200001,747.634423200001,748.4897225999994,748.4897225999994,None,num_6,0.36048000000300817,748.4897225999994,None,sad,1,Sad,748.8702335999988,None,None,748.8702335999988,None,,,,,,,,,,,,,,,,,,,,,,,,,,,,,,,,,,,,,,,,,,,,,,,,,,,,,9,001,female,31,450,500,2022_Aug_31_1531,Experiment,2021.1.4,359.58805592077596,
images\S2_M_H_02.png,images\S2_M_H_02_scrambled.png,2,happy,20,male,5,,68,on,2,0.5,0.75,0.5,0.816,3,67,1,1,1,2,2,32,128,165,,,,,,0,83,83,83,,,,,,,,,,,,,,,,,,,,,,,,,,,,,,,,,,,,,,,,,,,,,,,,,,,,,,,,,748.922913800001,749.4255556999997,749.4255556999997,750.1781418999999,750.1781418999999,750.6835352000016,750.6835352000016,751.5028206000025,751.5028206000025,None,num_6,0.7233787000004668,751.5028206000025,None,sad,1,Happy,752.2358035400007,None,None,752.2358035400007,None,,,,,,,,,,,,,,,,,,,,,,,,,,,,,,,,,,,,,,,,,,,,,,,,,,,,,9,001,female,31,450,500,2022_Aug_31_1531,Experiment,2021.1.4,359.58805592077596,
images\blank.jpg,images\blank.jpg,none,none,none,none,0,,620,on,2,0.5,0.75,0.5,0.873,0,619,2,1,1,3,3,48,192,240,,,,,,0,84,84,84,,,,,,,,,,,,,,,,,,,,,,,,,,,,,,,,,,,,,,,,,,,,,,,,,,,,,,,,,752.3221279000027,752.8273159000018,752.8273159000018,753.5770484999994,753.5770484999994,754.0824890000004,754.0824890000004,754.9571720000022,754.9571720000022,754.9571720000022,None,,754.9571720000022,None,miss,1,,757.9590915199994,None,None,757.9590915199994,None,,,,,,,,,,,,,,,,,,,,,,,,,,,,,,,,,,,,,,,,,,,,,,,,,,,,,9,001,female,31,450,500,2022_Aug_31_1531,Experiment,2021.1.4,359.58805592077596,
images\S5_F_H_02.png,images\S5_F_H_02_scrambled.png,5,happy,20,female,5,,146,off,1,0.5,0.75,0.5,0.84,3,145,1,1,1,0,0,0,0,5,,,,,,0,85,85,85,,,,,,,,,,,,,,,,,,,,,,,,,,,,,,,,,,,,,,,,,,,,,,,,,,,,,,,,,758.084218,758.5866639000014,758.5866639000014,759.3363944000012,759.3363944000012,759.8418329000015,759.8418329000015,760.6832066000024,760.6832066000024,None,num_4,0.302958000000217,760.6832066000024,758.084218,happy,1,Happy,761.0109988600001,None,None,761.0109988600001,None,,,,,,,,,,,,,,,,,,,,,,,,,,,,,,,,,,,,,,,,,,,,,,,,,,,,,9,001,female,31,450,500,2022_Aug_31_1531,Experiment,2021.1.4,359.58805592077596,
images\S5_F_H_01.png,images\S5_F_H_01_scrambled.png,5,happy,10,female,4,,385,off,1,0.5,0.75,0.5,0.851,3,384,2,2,1,0,0,0,0,4,,,,,,0,86,86,86,,,,,,,,,,,,,,,,,,,,,,,,,,,,,,,,,,,,,,,,,,,,,,,,,,,,,,,,,761.0665276,761.5690538000017,761.5690538000017,762.3216149,762.3216149,762.8214235000014,762.8214235000014,763.676723200002,763.676723200002,None,num_4,0.2934306999995897,763.676723200002,None,happy,1,Happy,763.9849854800005,None,None,763.9849854800005,None,,,,,,,,,,,,,,,,,,,,,,,,,,,,,,,,,,,,,,,,,,,,,,,,,,,,,9,001,female,31,450,500,2022_Aug_31_1531,Experiment,2021.1.4,359.58805592077596,
images\S10_M_H_02.png,images\S10_M_H_02_scrambled.png,10,happy,20,male,5,,536,off,1,0.5,0.75,0.5,0.893,3,535,3,1,1,0,0,0,0,5,,,,,,0,87,87,87,,,,,,,,,,,,,,,,,,,,,,,,,,,,,,,,,,,,,,,,,,,,,,,,,,,,,,,,,764.032173800002,764.5348035000025,764.5348035000025,765.2873838000014,765.2873838000014,765.7899629000021,765.7899629000021,766.6869968999999,766.6869968999999,None,num_4,0.22718149999855086,766.6869968999999,None,happy,1,Happy,766.9425395400008,None,None,766.9425395400008,None,,,,,,,,,,,,,,,,,,,,,,,,,,,,,,,,,,,,,,,,,,,,,,,,,,,,,9,001,female,31,450,500,2022_Aug_31_1531,Experiment,2021.1.4,359.58805592077596,
images\S4_M_S_01.png,images\S4_M_S_01_scrambled.png,4,sad,-10,male,3,,262,off,1,0.5,0.75,0.5,0.908,3,261,4,1,1,0,0,0,0,3,,,,,,0,88,88,88,,,,,,,,,,,,,,,,,,,,,,,,,,,,,,,,,,,,,,,,,,,,,,,,,,,,,,,,,767.0062521,767.5060948999999,767.5060948999999,768.2614854999993,768.2614854999993,768.7669170000008,768.7669170000008,769.6776879000026,769.6776879000026,None,num_6,0.26048619999710354,769.6776879000026,None,sad,1,Sad,769.9610334599987,None,None,769.9610334599987,None,,,,,,,,,,,,,,,,,,,,,,,,,,,,,,,,,,,,,,,,,,,,,,,,,,,,,9,001,female,31,450,500,2022_Aug_31_1531,Experiment,2021.1.4,359.58805592077596,
images\S7_F_S_03.png,images\S7_F_S_03_scrambled.png,7,sad,-30,female,1,,402,off,1,0.5,0.75,0.5,0.918,3,401,5,1,1,0,0,0,0,1,,,,,,0,89,89,89,,,,,,,,,,,,,,,,,,,,,,,,,,,,,,,,,,,,,,,,,,,,,,,,,,,,,,,,,770.0136638000004,770.5164187000009,770.5164187000009,771.2688589999998,771.2688589999998,771.7715934000007,771.7715934000007,772.6934290000027,772.6934290000027,None,num_6,0.4525601000023016,772.6934290000027,None,sad,1,Sad,773.1571452800009,None,None,773.1571452800009,None,,,,,,,,,,,,,,,,,,,,,,,,,,,,,,,,,,,,,,,,,,,,,,,,,,,,,9,001,female,31,450,500,2022_Aug_31_1531,Experiment,2021.1.4,359.58805592077596,
images\S1_F_H_02.png,images\S1_F_H_02_scrambled.png,1,happy,20,female,5,,482,off,1,0.5,0.75,0.5,0.886,3,481,6,1,1,0,0,0,0,5,,,,,,0,90,90,90,,,,,,,,,,,,,,,,,,,,,,,,,,,,,,,,,,,,,,,,,,,,,,,,,,,,,,,,,773.2043601000005,773.7097967000009,773.7097967000009,774.462346100001,774.462346100001,774.9649346000006,774.9649346000006,775.8536182000025,775.8536182000025,None,num_4,0.32437209999989136,775.8536182000025,None,happy,1,Happy,776.1923618000001,None,None,776.1923618000001,None,,,,,,,,,,,,,,,,,,,,,,,,,,,,,,,,,,,,,,,,,,,,,,,,,,,,,9,001,female,31,450,500,2022_Aug_31_1531,Experiment,2021.1.4,359.58805592077596,
images\S8_M_S_02.png,images\S8_M_S_02_scrambled.png,8,sad,-20,male,2,,227,on,2,0.5,0.75,0.5,0.847,3,226,1,1,1,2,2,32,128,162,,,,,,0,91,91,91,,,,,,,,,,,,,,,,,,,,,,,,,,,,,,,,,,,,,,,,,,,,,,,,,,,,,,,,,776.2395419999993,776.7450300000019,776.7450300000019,777.4947243999995,777.4947243999995,777.9973403000004,777.9973403000004,778.844291100002,778.844291100002,None,num_6,0.5018977999970957,778.844291100002,None,sad,1,Sad,779.3608216800013,None,None,779.3608216800013,None,,,,,,,,,,,,,,,,,,,,,,,,,,,,,,,,,,,,,,,,,,,,,,,,,,,,,9,001,female,31,450,500,2022_Aug_31_1531,Experiment,2021.1.4,359.58805592077596,
images\S4_M_H_01.png,images\S4_M_H_01_scrambled.png,4,happy,10,male,4,,559,on,2,0.5,0.75,0.5,0.95,3,558,2,1,1,2,2,32,128,164,,,,,,0,92,92,92,,,,,,,,,,,,,,,,,,,,,,,,,,,,,,,,,,,,,,,,,,,,,,,,,,,,,,,,,779.4080164000006,779.913537700002,779.913537700002,780.6659830000026,780.6659830000026,781.1713973000005,781.1713973000005,782.1210639000019,782.1210639000019,None,num_6,0.30495890000020154,782.1210639000019,None,sad,1,Happy,782.4321705400012,None,None,782.4321705400012,None,,,,,,,,,,,,,,,,,,,,,,,,,,,,,,,,,,,,,,,,,,,,,,,,,,,,,9,001,female,31,450,500,2022_Aug_31_1531,Experiment,2021.1.4,359.58805592077596,
images\S4_M_H_02.png,images\S4_M_H_02_scrambled.png,4,happy,20,male,5,,500,off,1,0.5,0.75,0.5,0.796,3,499,1,2,1,0,0,0,0,5,,,,,,0,93,93,93,,,,,,,,,,,,,,,,,,,,,,,,,,,,,,,,,,,,,,,,,,,,,,,,,,,,,,,,,782.4876134000006,782.9903049999994,782.9903049999994,783.7400355999998,783.7400355999998,784.2454520000028,784.2454520000028,785.0452221000014,785.0452221000014,None,num_6,0.3247951000012108,785.0452221000014,None,sad,1,Happy,785.3756201400006,None,None,785.3756201400006,None,,,,,,,,,,,,,,,,,,,,,,,,,,,,,,,,,,,,,,,,,,,,,,,,,,,,,9,001,female,31,450,500,2022_Aug_31_1531,Experiment,2021.1.4,359.58805592077596,
images\S7_F_S_01.png,images\S7_F_S_01_scrambled.png,7,sad,-10,female,3,,340,on,2,0.5,0.75,0.5,0.923,3,339,1,1,1,2,2,32,128,163,,,,,,0,94,94,94,,,,,,,,,,,,,,,,,,,,,,,,,,,,,,,,,,,,,,,,,,,,,,,,,,,,,,,,,785.4283761000006,785.9282190000013,785.9282190000013,786.6779886000004,786.6779886000004,787.1806613000008,787.1806613000008,788.1053950999994,788.1053950999994,None,num_6,0.6167596999985108,788.1053950999994,None,sad,1,Sad,788.7441784400012,None,None,788.7441784400012,None,,,,,,,,,,,,,,,,,,,,,,,,,,,,,,,,,,,,,,,,,,,,,,,,,,,,,9,001,female,31,450,500,2022_Aug_31_1531,Experiment,2021.1.4,359.58805592077596,
images\S5_F_H_02.png,images\S5_F_H_02_scrambled.png,5,happy,20,female,5,,86,on,2,0.5,0.75,0.5,0.882,3,85,2,1,1,2,2,32,128,165,,,,,,0,95,95,95,,,,,,,,,,,,,,,,,,,,,,,,,,,,,,,,,,,,,,,,,,,,,,,,,,,,,,,,,788.7940108000003,789.2966670000023,789.2966670000023,790.0519811000013,790.0519811000013,790.5518205000008,790.5518205000008,791.4376587000006,791.4376587000006,None,num_4,0.4525014999999257,791.4376587000006,None,happy,1,Happy,791.9126575600006,None,None,791.9126575600006,None,,,,,,,,,,,,,,,,,,,,,,,,,,,,,,,,,,,,,,,,,,,,,,,,,,,,,9,001,female,31,450,500,2022_Aug_31_1531,Experiment,2021.1.4,359.58805592077596,
images\S7_F_S_01.png,images\S7_F_S_01_scrambled.png,7,sad,-10,female,3,,400,off,1,0.5,0.75,0.5,0.92,3,399,1,1,1,0,0,0,0,3,,,,,,0,96,96,96,,,,,,,,,,,,,,,,,,,,,,,,,,,,,,,,,,,,,,,,,,,,,,,,,,,,,,,,,791.9680375999997,792.4707084000001,792.4707084000001,793.2232213000025,793.2232213000025,793.7258753000024,793.7258753000024,794.6505915000016,794.6505915000016,None,num_6,0.351447900000494,794.6505915000016,None,sad,1,Sad,795.0143556800023,None,None,795.0143556800023,None,,,,,,,,,,,,,,,,,,,,,,,,,,,,,,,,,,,,,,,,,,,,,,,,,,,,,9,001,female,31,450,500,2022_Aug_31_1531,Experiment,2021.1.4,359.58805592077596,
images\blank.jpg,images\blank.jpg,none,none,none,none,0,,617,on,2,0.5,0.75,0.5,0.822,0,616,1,1,1,3,3,48,192,240,,,,,,0,97,97,97,,,,,,,,,,,,,,,,,,,,,,,,,,,,,,,,,,,,,,,,,,,,,,,,,,,,,,,,,795.0979203999996,795.6002675000018,795.6002675000018,796.3528473000006,796.3528473000006,796.8555081000013,796.8555081000013,797.6773885000002,797.6773885000002,797.6773885000002,None,,797.6773885000002,None,miss,1,,800.6764917200023,None,None,800.6764917200023,None,,,,,,,,,,,,,,,,,,,,,,,,,,,,,,,,,,,,,,,,,,,,,,,,,,,,,9,001,female,31,450,500,2022_Aug_31_1531,Experiment,2021.1.4,359.58805592077596,
images\S6_M_S_02.png,images\S6_M_S_02_scrambled.png,6,sad,-20,male,2,,515,off,1,0.5,0.75,0.5,0.768,3,514,1,1,1,0,0,0,0,2,,,,,,0,98,98,98,,,,,,,,,,,,,,,,,,,,,,,,,,,,,,,,,,,,,,,,,,,,,,,,,,,,,,,,,800.7933766999995,801.2957786000006,801.2957786000006,802.0482847000021,802.0482847000021,802.5509456,802.5509456,803.3257021000027,803.3257021000027,None,num_6,0.5644793000028585,803.3257021000027,800.7933766999995,sad,1,Sad,803.9005169799995,None,None,803.9005169799995,None,,,,,,,,,,,,,,,,,,,,,,,,,,,,,,,,,,,,,,,,,,,,,,,,,,,,,9,001,female,31,450,500,2022_Aug_31_1531,Experiment,2021.1.4,359.58805592077596,
images\S7_F_S_03.png,images\S7_F_S_03_scrambled.png,7,sad,-30,female,1,,162,off,1,0.5,0.75,0.5,0.813,3,161,2,1,1,0,0,0,0,1,,,,,,0,99,99,99,,,,,,,,,,,,,,,,,,,,,,,,,,,,,,,,,,,,,,,,,,,,,,,,,,,,,,,,,803.9504774000015,804.4558982000017,804.4558982000017,805.2084424999994,805.2084424999994,805.7139208000008,805.7139208000008,806.5302709999996,806.5302709999996,None,num_6,0.6077717999978631,806.5302709999996,None,sad,1,Sad,807.1522939800008,None,None,807.1522939800008,None,,,,,,,,,,,,,,,,,,,,,,,,,,,,,,,,,,,,,,,,,,,,,,,,,,,,,9,001,female,31,450,500,2022_Aug_31_1531,Experiment,2021.1.4,359.58805592077596,
images\S10_M_H_02.png,images\S10_M_H_02_scrambled.png,10,happy,20,male,5,,236,on,2,0.5,0.75,0.5,0.858,3,235,1,1,1,2,2,32,128,165,,,,,,0,100,100,100,,,,,,,,,,,,,,,,,,,,,,,,,,,,,,,,,,,,,,,,,,,,,,,,,,,,,,,,,807.202257500001,807.7048719000013,807.7048719000013,808.457558500002,808.457558500002,808.9600454000029,808.9600454000029,809.8209160000006,809.8209160000006,None,num_4,0.30128100000001723,809.8209160000006,None,happy,1,Happy,810.1515456799999,None,None,810.1515456799999,None,,,,,,,,,,,,,,,,,,,,,,,,,,,,,,,,,,,,,,,,,,,,,,,,,,,,,9,001,female,31,450,500,2022_Aug_31_1531,Experiment,2021.1.4,359.58805592077596,
images\S4_M_H_01.png,images\S4_M_H_01_scrambled.png,4,happy,10,male,4,,199,on,2,0.5,0.75,0.5,0.893,3,198,2,1,1,2,2,32,128,164,,,,,,0,101,101,101,,,,,,,,,,,,,,,,,,,,,,,,,,,,,,,,,,,,,,,,,,,,,,,,,,,,,,,,,810.2041274000003,810.7039490999996,810.7039490999996,811.4565178000012,811.4565178000012,811.9591832000006,811.9591832000006,812.8589379000005,812.8589379000005,None,num_6,0.36723279999932856,812.8589379000005,None,sad,1,Happy,813.2337586400004,None,None,813.2337586400004,None,,,,,,,,,,,,,,,,,,,,,,,,,,,,,,,,,,,,,,,,,,,,,,,,,,,,,9,001,female,31,450,500,2022_Aug_31_1531,Experiment,2021.1.4,359.58805592077596,
images\S9_F_S_02.png,images\S9_F_S_02_scrambled.png,9,sad,-20,female,2,,353,on,2,0.5,0.75,0.5,0.907,3,352,3,1,1,2,2,32,128,162,,,,,,0,102,102,102,,,,,,,,,,,,,,,,,,,,,,,,,,,,,,,,,,,,,,,,,,,,,,,,,,,,,,,,,813.2837179000016,813.7891529000008,813.7891529000008,814.5388887000008,814.5388887000008,815.0416695999993,815.0416695999993,815.9523636000013,815.9523636000013,None,num_6,0.12163499999951455,815.9523636000013,None,sad,1,Sad,816.0995757800002,None,None,816.0995757800002,None,,,,,,,,,,,,,,,,,,,,,,,,,,,,,,,,,,,,,,,,,,,,,,,,,,,,,9,001,female,31,450,500,2022_Aug_31_1531,Experiment,2021.1.4,359.58805592077596,
images\S7_F_S_03.png,images\S7_F_S_03_scrambled.png,7,sad,-30,female,1,,522,off,1,0.5,0.75,0.5,0.931,3,521,1,1,1,0,0,0,0,1,,,,,,0,103,103,103,,,,,,,,,,,,,,,,,,,,,,,,,,,,,,,,,,,,,,,,,,,,,,,,,,,,,,,,,816.1550625000018,816.6604774000007,816.6604774000007,817.4130716,817.4130716,817.9184674999997,817.9184674999997,818.8514574000001,818.8514574000001,None,num_6,0.44654799999989336,818.8514574000001,None,sad,1,Sad,819.3152375999998,None,None,819.3152375999998,None,,,,,,,,,,,,,,,,,,,,,,,,,,,,,,,,,,,,,,,,,,,,,,,,,,,,,9,001,female,31,450,500,2022_Aug_31_1531,Experiment,2021.1.4,359.58805592077596,
images\S9_F_H_01.png,images\S9_F_H_01_scrambled.png,9,happy,10,female,4,,229,on,2,0.5,0.75,0.5,0.914,3,228,1,1,1,2,2,32,128,164,,,,,,0,104,104,104,,,,,,,,,,,,,,,,,,,,,,,,,,,,,,,,,,,,,,,,,,,,,,,,,,,,,,,,,819.3651922000026,819.8679093999999,819.8679093999999,820.6231955000003,820.6231955000003,821.1285948000004,821.1285948000004,822.047787200001,822.047787200001,None,num_4,0.3782993000022543,822.047787200001,None,happy,1,Happy,822.4477023599997,None,None,822.4477023599997,None,,,,,,,,,,,,,,,,,,,,,,,,,,,,,,,,,,,,,,,,,,,,,,,,,,,,,9,001,female,31,450,500,2022_Aug_31_1531,Experiment,2021.1.4,359.58805592077596,
images\S1_F_H_03.png,images\S1_F_H_03_scrambled.png,1,happy,30,female,6,,243,off,1,0.5,0.75,0.5,0.758,3,242,1,1,1,0,0,0,0,6,,,,,,0,105,105,105,,,,,,,,,,,,,,,,,,,,,,,,,,,,,,,,,,,,,,,,,,,,,,,,,,,,,,,,,822.5086059999994,823.0085177000001,823.0085177000001,823.7638797,823.7638797,824.2665025999995,824.2665025999995,825.0274734000013,825.0274734000013,None,num_4,0.4866696999997657,825.0274734000013,None,happy,1,Happy,825.527258180001,None,None,825.527258180001,None,,,,,,,,,,,,,,,,,,,,,,,,,,,,,,,,,,,,,,,,,,,,,,,,,,,,,9,001,female,31,450,500,2022_Aug_31_1531,Experiment,2021.1.4,359.58805592077596,
images\S2_M_H_02.png,images\S2_M_H_02_scrambled.png,2,happy,20,male,5,,248,off,1,0.5,0.75,0.5,0.779,3,247,2,1,1,0,0,0,0,5,,,,,,0,106,106,106,,,,,,,,,,,,,,,,,,,,,,,,,,,,,,,,,,,,,,,,,,,,,,,,,,,,,,,,,825.5744005000015,826.0770370999999,826.0770370999999,826.8323536000025,826.8323536000025,827.3350519000014,827.3350519000014,828.1208738000023,828.1208738000023,None,num_6,0.35319090000120923,828.1208738000023,None,sad,1,Happy,828.4790834400023,None,None,828.4790834400023,None,,,,,,,,,,,,,,,,,,,,,,,,,,,,,,,,,,,,,,,,,,,,,,,,,,,,,9,001,female,31,450,500,2022_Aug_31_1531,Experiment,2021.1.4,359.58805592077596,
images\S2_M_S_03.png,images\S2_M_S_03_scrambled.png,2,sad,-30,male,1,,312,on,2,0.5,0.75,0.5,0.95,3,311,1,2,1,2,2,32,128,161,,,,,,0,107,107,107,,,,,,,,,,,,,,,,,,,,,,,,,,,,,,,,,,,,,,,,,,,,,,,,,,,,,,,,,828.5318163000011,829.0345665999994,829.0345665999994,829.7870079000022,829.7870079000022,830.2897420000008,830.2897420000008,831.244963000001,831.244963000001,None,num_6,0.33318819999840343,831.244963000001,None,sad,1,Sad,831.597625520001,None,None,831.597625520001,None,,,,,,,,,,,,,,,,,,,,,,,,,,,,,,,,,,,,,,,,,,,,,,,,,,,,,9,001,female,31,450,500,2022_Aug_31_1531,Experiment,2021.1.4,359.58805592077596,
images\S5_F_S_01.png,images\S5_F_S_01_scrambled.png,5,sad,-10,female,3,,28,off,1,0.5,0.75,0.5,0.861,3,27,1,1,1,0,0,0,0,3,,,,,,0,108,108,108,,,,,,,,,,,,,,,,,,,,,,,,,,,,,,,,,,,,,,,,,,,,,,,,,,,,,,,,,831.6475320000027,832.1501635000022,832.1501635000022,832.8999380000023,832.8999380000023,833.3997894999993,833.3997894999993,834.2661590000025,834.2661590000025,None,num_4,0.5838751999981469,834.2661590000025,None,happy,1,Sad,834.8576940399994,None,None,834.8576940399994,None,,,,,,,,,,,,,,,,,,,,,,,,,,,,,,,,,,,,,,,,,,,,,,,,,,,,,9,001,female,31,450,500,2022_Aug_31_1531,Experiment,2021.1.4,359.58805592077596,
images\S5_F_H_03.png,images\S5_F_H_03_scrambled.png,5,happy,30,female,6,,567,on,2,0.5,0.75,0.5,0.753,3,566,1,2,1,2,2,32,128,166,,,,,,0,109,109,109,,,,,,,,,,,,,,,,,,,,,,,,,,,,,,,,,,,,,,,,,,,,,,,,,,,,,,,,,834.9104163000011,835.4158588000028,835.4158588000028,836.1655566000009,836.1655566000009,836.6710272000018,836.6710272000018,837.426310400002,837.426310400002,None,num_4,0.31188570000085747,837.426310400002,None,happy,1,Happy,837.7512357799998,None,None,837.7512357799998,None,,,,,,,,,,,,,,,,,,,,,,,,,,,,,,,,,,,,,,,,,,,,,,,,,,,,,9,001,female,31,450,500,2022_Aug_31_1531,Experiment,2021.1.4,359.58805592077596,
images\S8_M_S_02.png,images\S8_M_S_02_scrambled.png,8,sad,-20,male,2,,287,off,1,0.5,0.75,0.5,0.854,3,286,1,1,1,0,0,0,0,2,,,,,,0,110,110,110,,,,,,,,,,,,,,,,,,,,,,,,,,,,,,,,,,,,,,,,,,,,,,,,,,,,,,,,,837.8012027000004,838.3038267000011,838.3038267000011,839.0563825000027,839.0563825000027,839.5562100999996,839.5562100999996,840.417089300001,840.417089300001,None,num_6,0.281052099999215,840.417089300001,None,sad,1,Sad,840.7198750599986,None,None,840.7198750599986,None,,,,,,,,,,,,,,,,,,,,,,,,,,,,,,,,,,,,,,,,,,,,,,,,,,,,,9,001,female,31,450,500,2022_Aug_31_1531,Experiment,2021.1.4,359.58805592077596,
images\blank.jpg,images\blank.jpg,none,none,none,none,0,,619,on,2,0.5,0.75,0.5,0.922,0,618,1,1,1,3,3,48,192,240,,,,,,0,111,111,111,,,,,,,,,,,,,,,,,,,,,,,,,,,,,,,,,,,,,,,,,,,,,,,,,,,,,,,,,840.8118642000009,841.3167942,841.3167942,842.0665540000009,842.0665540000009,842.5719951000028,842.5719951000028,843.4967066999998,843.4967066999998,843.4967066999998,None,,843.4967066999998,None,miss,1,,846.4957791200002,None,None,846.4957791200002,None,,,,,,,,,,,,,,,,,,,,,,,,,,,,,,,,,,,,,,,,,,,,,,,,,,,,,9,001,female,31,450,500,2022_Aug_31_1531,Experiment,2021.1.4,359.58805592077596,
images\S3_F_S_02.png,images\S3_F_S_02_scrambled.png,3,sad,-20,female,2,,437,on,2,0.5,0.75,0.5,0.816,3,436,2,1,1,2,2,32,128,162,,,,,,0,112,112,112,,,,,,,,,,,,,,,,,,,,,,,,,,,,,,,,,,,,,,,,,,,,,,,,,,,,,,,,,846.6154582000017,847.1207030000005,847.1207030000005,847.8759639000018,847.8759639000018,848.3785223000014,848.3785223000014,849.2006011000012,849.2006011000012,None,num_6,0.34545210000214865,849.2006011000012,846.6154582000017,sad,1,Sad,849.56992226,None,None,849.56992226,None,,,,,,,,,,,,,,,,,,,,,,,,,,,,,,,,,,,,,,,,,,,,,,,,,,,,,9,001,female,31,450,500,2022_Aug_31_1531,Experiment,2021.1.4,359.58805592077596,
images\S6_M_S_03.png,images\S6_M_S_03_scrambled.png,6,sad,-30,male,1,,96,on,2,0.5,0.75,0.5,0.876,3,95,3,1,1,2,2,32,128,161,,,,,,0,113,113,113,,,,,,,,,,,,,,,,,,,,,,,,,,,,,,,,,,,,,,,,,,,,,,,,,,,,,,,,,849.6254697000004,850.1308067000027,850.1308067000027,850.8833358000011,850.8833358000011,851.3860435000024,851.3860435000024,852.2662574000024,852.2662574000024,None,num_6,0.32771649999995134,852.2662574000024,None,sad,1,Sad,852.605020080001,None,None,852.605020080001,None,,,,,,,,,,,,,,,,,,,,,,,,,,,,,,,,,,,,,,,,,,,,,,,,,,,,,9,001,female,31,450,500,2022_Aug_31_1531,Experiment,2021.1.4,359.58805592077596,
images\S5_F_S_01.png,images\S5_F_S_01_scrambled.png,5,sad,-10,female,3,,268,off,1,0.5,0.75,0.5,0.792,3,267,1,1,1,0,0,0,0,3,,,,,,0,114,114,114,,,,,,,,,,,,,,,,,,,,,,,,,,,,,,,,,,,,,,,,,,,,,,,,,,,,,,,,,852.6521950999995,853.1520391000013,853.1520391000013,853.9018044000004,853.9018044000004,854.4016857000024,854.4016857000024,855.1986710000019,855.1986710000019,None,num_4,0.41948190000039176,855.1986710000019,None,happy,1,Sad,855.6319312600011,None,None,855.6319312600011,None,,,,,,,,,,,,,,,,,,,,,,,,,,,,,,,,,,,,,,,,,,,,,,,,,,,,,9,001,female,31,450,500,2022_Aug_31_1531,Experiment,2021.1.4,359.58805592077596,
images\S7_F_H_02.png,images\S7_F_H_02_scrambled.png,7,happy,20,female,5,,158,off,1,0.5,0.75,0.5,0.886,3,157,2,1,1,0,0,0,0,5,,,,,,0,115,115,115,,,,,,,,,,,,,,,,,,,,,,,,,,,,,,,,,,,,,,,,,,,,,,,,,,,,,,,,,855.6873736000016,856.1928678000004,856.1928678000004,856.9453152999995,856.9453152999995,857.4451866000018,857.4451866000018,858.3338227999993,858.3338227999993,None,num_4,0.45218580000073416,858.3338227999993,None,happy,1,Happy,858.8003471000011,None,None,858.8003471000011,None,,,,,,,,,,,,,,,,,,,,,,,,,,,,,,,,,,,,,,,,,,,,,,,,,,,,,9,001,female,31,450,500,2022_Aug_31_1531,Experiment,2021.1.4,359.58805592077596,
images\S8_M_H_03.png,images\S8_M_H_03_scrambled.png,8,happy,30,male,6,,105,on,2,0.5,0.75,0.5,0.948,3,104,1,1,1,2,2,32,128,166,,,,,,0,116,116,116,,,,,,,,,,,,,,,,,,,,,,,,,,,,,,,,,,,,,,,,,,,,,,,,,,,,,,,,,858.8475173000006,859.350134100001,859.350134100001,860.1027214999995,860.1027214999995,860.6053066000022,860.6053066000022,861.5578062000022,861.5578062000022,None,num_6,0.46035930000289227,861.5578062000022,None,sad,1,Happy,862.0271968400025,None,None,862.0271968400025,None,,,,,,,,,,,,,,,,,,,,,,,,,,,,,,,,,,,,,,,,,,,,,,,,,,,,,9,001,female,31,450,500,2022_Aug_31_1531,Experiment,2021.1.4,359.58805592077596,
images\S2_M_S_02.png,images\S2_M_S_02_scrambled.png,2,sad,-20,male,2,,371,off,1,0.5,0.75,0.5,0.819,3,370,1,1,1,0,0,0,0,2,,,,,,0,117,117,117,,,,,,,,,,,,,,,,,,,,,,,,,,,,,,,,,,,,,,,,,,,,,,,,,,,,,,,,,862.0854031000017,862.588051900002,862.588051900002,863.3378221000021,863.3378221000021,863.8405540000022,863.8405540000022,864.6623940000027,864.6623940000027,None,num_6,0.4196192000017618,864.6623940000027,None,sad,1,Sad,865.0956300800018,None,None,865.0956300800018,None,,,,,,,,,,,,,,,,,,,,,,,,,,,,,,,,,,,,,,,,,,,,,,,,,,,,,9,001,female,31,450,500,2022_Aug_31_1531,Experiment,2021.1.4,359.58805592077596,
images\S6_M_H_02.png,images\S6_M_H_02_scrambled.png,6,happy,20,male,5,,92,on,2,0.5,0.75,0.5,0.808,3,91,1,1,1,2,2,32,128,165,,,,,,0,118,118,118,,,,,,,,,,,,,,,,,,,,,,,,,,,,,,,,,,,,,,,,,,,,,,,,,,,,,,,,,865.1484655000022,865.6511289000009,865.6511289000009,866.4035495999997,866.4035495999997,866.9062838999998,866.9062838999998,867.7170745000003,867.7170745000003,None,num_4,0.3490641999997024,867.7170745000003,None,happy,1,Happy,868.0808192799988,None,None,868.0808192799988,None,,,,,,,,,,,,,,,,,,,,,,,,,,,,,,,,,,,,,,,,,,,,,,,,,,,,,9,001,female,31,450,500,2022_Aug_31_1531,Experiment,2021.1.4,359.58805592077596,
images\S7_F_S_02.png,images\S7_F_S_02_scrambled.png,7,sad,-20,female,2,,341,on,2,0.5,0.75,0.5,0.886,3,340,2,1,1,2,2,32,128,162,,,,,,0,119,119,119,,,,,,,,,,,,,,,,,,,,,,,,,,,,,,,,,,,,,,,,,,,,,,,,,,,,,,,,,868.1308951000028,868.6362726000007,868.6362726000007,869.3887439000027,869.3887439000027,869.8913764000026,869.8913764000026,870.7771925000015,870.7771925000015,None,num_6,0.5128456000020378,870.7771925000015,None,sad,1,Sad,871.3104403400007,None,None,871.3104403400007,None,,,,,,,,,,,,,,,,,,,,,,,,,,,,,,,,,,,,,,,,,,,,,,,,,,,,,9,001,female,31,450,500,2022_Aug_31_1531,Experiment,2021.1.4,359.58805592077596,
images\S10_M_H_02.png,images\S10_M_H_02_scrambled.png,10,happy,20,male,5,,356,on,2,0.5,0.75,0.5,0.855,3,355,3,1,1,2,2,32,128,165,,,,,,0,120,120,120,,,,,,,,,,,,,,,,,,,,,,,,,,,,,,,,,,,,,,,,,,,,,,,,,,,,,,,,,871.3770084999996,871.8824416000025,871.8824416000025,872.6349584000018,872.6349584000018,873.1403879000027,873.1403879000027,873.9984244000007,873.9984244000007,None,num_4,0.3796148000001267,873.9984244000007,None,happy,1,Happy,874.3927805999992,None,None,874.3927805999992,None,,,,,,,,,,,,,,,,,,,,,,,,,,,,,,,,,,,,,,,,,,,,,,,,,,,,,9,001,female,31,450,500,2022_Aug_31_1531,Experiment,2021.1.4,359.58805592077596,
images\S5_F_S_02.png,images\S5_F_S_02_scrambled.png,5,sad,-20,female,2,,449,on,2,0.5,0.75,0.5,0.785,3,448,4,1,1,2,2,32,128,162,,,,,,0,121,121,121,,,,,,,,,,,,,,,,,,,,,,,,,,,,,,,,,,,,,,,,,,,,,,,,,,,,,,,,,874.4399445000017,874.9398084000022,874.9398084000022,875.6923988000017,875.6923988000017,876.1949781000003,876.1949781000003,876.9836246000013,876.9836246000013,None,num_6,0.7464882999993279,876.9836246000013,None,sad,1,Sad,877.7557218599999,None,None,877.7557218599999,None,,,,,,,,,,,,,,,,,,,,,,,,,,,,,,,,,,,,,,,,,,,,,,,,,,,,,9,001,female,31,450,500,2022_Aug_31_1531,Experiment,2021.1.4,359.58805592077596,
images\S9_F_S_03.png,images\S9_F_S_03_scrambled.png,9,sad,-30,female,1,,474,on,2,0.5,0.75,0.5,0.809,3,473,5,1,1,2,2,32,128,161,,,,,,0,122,122,122,,,,,,,,,,,,,,,,,,,,,,,,,,,,,,,,,,,,,,,,,,,,,,,,,,,,,,,,,877.8083618000019,878.3137825000013,878.3137825000013,879.0663268000026,879.0663268000026,879.5661829000019,879.5661829000019,880.3770846000007,880.3770846000007,None,num_6,0.2808842000013101,880.3770846000007,None,sad,1,Sad,880.6713986800015,None,None,880.6713986800015,None,,,,,,,,,,,,,,,,,,,,,,,,,,,,,,,,,,,,,,,,,,,,,,,,,,,,,9,001,female,31,450,500,2022_Aug_31_1531,Experiment,2021.1.4,359.58805592077596,
images\S2_M_S_01.png,images\S2_M_S_01_scrambled.png,2,sad,-10,male,3,,490,off,1,0.5,0.75,0.5,0.782,3,489,1,1,1,0,0,0,0,3,,,,,,0,123,123,123,,,,,,,,,,,,,,,,,,,,,,,,,,,,,,,,,,,,,,,,,,,,,,,,,,,,,,,,,880.7213637000023,881.2240115000022,881.2240115000022,881.9766684999995,881.9766684999995,882.4791495999998,882.4791495999998,883.2678828999997,883.2678828999997,None,num_6,0.41416229999958887,883.2678828999997,None,sad,1,Sad,883.7011108199993,None,None,883.7011108199993,None,,,,,,,,,,,,,,,,,,,,,,,,,,,,,,,,,,,,,,,,,,,,,,,,,,,,,9,001,female,31,450,500,2022_Aug_31_1531,Experiment,2021.1.4,359.58805592077596,
images\S1_F_H_01.png,images\S1_F_H_01_scrambled.png,1,happy,10,female,4,,181,on,2,0.5,0.75,0.5,0.861,3,180,1,1,1,2,2,32,128,164,,,,,,0,124,124,124,,,,,,,,,,,,,,,,,,,,,,,,,,,,,,,,,,,,,,,,,,,,,,,,,,,,,,,,,883.7537607000013,884.2591912000025,884.2591912000025,885.0144971000009,885.0144971000009,885.517227100001,885.517227100001,886.3807487000013,886.3807487000013,None,num_6,0.5893902999996499,886.3807487000013,None,sad,1,Happy,886.975020039999,None,None,886.975020039999,None,,,,,,,,,,,,,,,,,,,,,,,,,,,,,,,,,,,,,,,,,,,,,,,,,,,,,9,001,female,31,450,500,2022_Aug_31_1531,Experiment,2021.1.4,359.58805592077596,
images\S7_F_H_03.png,images\S7_F_H_03_scrambled.png,7,happy,30,female,6,,159,off,1,0.5,0.75,0.5,0.828,3,158,1,1,1,0,0,0,0,6,,,,,,0,125,125,125,,,,,,,,,,,,,,,,,,,,,,,,,,,,,,,,,,,,,,,,,,,,,,,,,,,,,,,,,887.0278345000006,887.5276039000018,887.5276039000018,888.2773713000024,888.2773713000024,888.7828167000007,888.7828167000007,889.613059700001,889.613059700001,None,num_4,0.23705840000184253,889.613059700001,None,happy,1,Happy,889.8714692400004,None,None,889.8714692400004,None,,,,,,,,,,,,,,,,,,,,,,,,,,,,,,,,,,,,,,,,,,,,,,,,,,,,,9,001,female,31,450,500,2022_Aug_31_1531,Experiment,2021.1.4,359.58805592077596,
images\S3_F_H_01.png,images\S3_F_H_01_scrambled.png,3,happy,10,female,4,,193,on,2,0.5,0.75,0.5,0.766,3,192,1,1,1,2,2,32,128,164,,,,,,0,126,126,126,,,,,,,,,,,,,,,,,,,,,,,,,,,,,,,,,,,,,,,,,,,,,,,,,,,,,,,,,889.9213070000005,890.4239530000013,890.4239530000013,891.1765011000025,891.1765011000025,891.6763563000022,891.6763563000022,892.4483424999999,892.4483424999999,None,num_6,0.32987689999936265,892.4483424999999,None,sad,1,Happy,892.7927339600013,None,None,892.7927339600013,None,,,,,,,,,,,,,,,,,,,,,,,,,,,,,,,,,,,,,,,,,,,,,,,,,,,,,9,001,female,31,450,500,2022_Aug_31_1531,Experiment,2021.1.4,359.58805592077596,
images\S4_M_H_02.png,images\S4_M_H_02_scrambled.png,4,happy,20,male,5,,380,off,1,0.5,0.75,0.5,0.862,3,379,1,1,1,0,0,0,0,5,,,,,,0,127,127,127,,,,,,,,,,,,,,,,,,,,,,,,,,,,,,,,,,,,,,,,,,,,,,,,,,,,,,,,,892.8620683000008,893.3647130000027,893.3647130000027,894.1172436000015,894.1172436000015,894.6226895,894.6226895,895.4890675000024,895.4890675000024,None,num_6,0.28912040000068373,895.4890675000024,None,sad,1,Happy,895.7918226599999,None,None,895.7918226599999,None,,,,,,,,,,,,,,,,,,,,,,,,,,,,,,,,,,,,,,,,,,,,,,,,,,,,,9,001,female,31,450,500,2022_Aug_31_1531,Experiment,2021.1.4,359.58805592077596,
images\blank.jpg,images\blank.jpg,none,none,none,none,0,,640,on,2,0.5,0.75,0.5,0.841,0,639,1,1,1,3,3,48,192,240,,,,,,0,128,128,128,,,,,,,,,,,,,,,,,,,,,,,,,,,,,,,,,,,,,,,,,,,,,,,,,,,,,,,,,895.8891671000019,896.3916807999994,896.3916807999994,897.1470053000012,897.1470053000012,897.6523297000022,897.6523297000022,898.4965824999999,898.4965824999999,898.4965824999999,None,,898.4965824999999,None,miss,1,,901.4983294199999,None,None,901.4983294199999,None,,,,,,,,,,,,,,,,,,,,,,,,,,,,,,,,,,,,,,,,,,,,,,,,,,,,,9,001,female,31,450,500,2022_Aug_31_1531,Experiment,2021.1.4,359.58805592077596,
images\S6_M_S_01.png,images\S6_M_S_01_scrambled.png,6,sad,-10,male,3,,574,on,2,0.5,0.75,0.5,0.943,3,573,2,1,1,2,2,32,128,163,,,,,,0,129,129,129,,,,,,,,,,,,,,,,,,,,,,,,,,,,,,,,,,,,,,,,,,,,,,,,,,,,,,,,,901.6123270999997,902.1120105000009,902.1120105000009,902.8646802000003,902.8646802000003,903.3671799000003,903.3671799000003,904.3142649000001,904.3142649000001,None,num_6,0.29573059999893303,904.3142649000001,901.6123270999997,sad,1,Sad,904.6251447800015,None,None,904.6251447800015,None,,,,,,,,,,,,,,,,,,,,,,,,,,,,,,,,,,,,,,,,,,,,,,,,,,,,,9,001,female,31,450,500,2022_Aug_31_1531,Experiment,2021.1.4,359.58805592077596,
images\S9_F_H_03.png,images\S9_F_H_03_scrambled.png,9,happy,30,female,6,,531,off,1,0.5,0.75,0.5,0.868,3,530,1,1,1,0,0,0,0,6,,,,,,0,130,130,130,,,,,,,,,,,,,,,,,,,,,,,,,,,,,,,,,,,,,,,,,,,,,,,,,,,,,,,,,904.6723421000024,905.1750499000009,905.1750499000009,905.9247518000011,905.9247518000011,906.4273553000021,906.4273553000021,907.3021074000026,907.3021074000026,None,num_4,0.25202530000024126,907.3021074000026,None,happy,1,Happy,907.5770259000019,None,space,907.5770259000019,None,20.52885570000217,,,,,,,,,,,,,,,,,,,,,,,,,,,,,,,,,,,,,,,,,,,,,,,,,,,,9,001,female,31,450,500,2022_Aug_31_1531,Experiment,2021.1.4,359.58805592077596,
images\S4_M_S_02.png,images\S4_M_S_02_scrambled.png,4,sad,-20,male,2,,203,on,2,0.5,0.75,0.5,0.935,3,202,1,1,1,2,2,32,128,162,,,,,,0,131,131,131,,,,,,,,,,,,,,,,,,,,,,,,,,,,,,,,,,,,,,,,,,,,,,,,,,,,,,,,,928.1595171000008,928.6594373000007,928.6594373000007,929.4148329000018,929.4148329000018,929.9146196000002,929.9146196000002,930.855997900002,930.855997900002,None,num_6,0.48214200000074925,930.855997900002,None,sad,1,Sad,931.3559244200012,None,None,931.3559244200012,None,,,,,,,,,,,,,,,,,,,,,,,,,,,,,,,,,,,,,,,,,,,,,,,,,,,,,9,001,female,31,450,500,2022_Aug_31_1531,Experiment,2021.1.4,359.58805592077596,
images\S7_F_H_02.png,images\S7_F_H_02_scrambled.png,7,happy,20,female,5,,98,on,2,0.5,0.75,0.5,0.868,3,97,2,1,1,2,2,32,128,165,,,,,,0,132,132,132,,,,,,,,,,,,,,,,,,,,,,,,,,,,,,,,,,,,,,,,,,,,,,,,,,,,,,,,,931.4057957000005,931.9112294000006,931.9112294000006,932.6637459000012,932.6637459000012,933.1663757000024,933.1663757000024,934.0411349999995,934.0411349999995,None,num_4,0.3370037999993656,934.0411349999995,None,happy,1,Happy,934.3994924400008,None,None,934.3994924400008,None,,,,,,,,,,,,,,,,,,,,,,,,,,,,,,,,,,,,,,,,,,,,,,,,,,,,,9,001,female,31,450,500,2022_Aug_31_1531,Experiment,2021.1.4,359.58805592077596,
images\S7_F_H_02.png,images\S7_F_H_02_scrambled.png,7,happy,20,female,5,,518,off,1,0.5,0.75,0.5,0.906,3,517,1,2,2,0,0,0,0,5,,,,,,0,133,133,133,,,,,,,,,,,,,,,,,,,,,,,,,,,,,,,,,,,,,,,,,,,,,,,,,,,,,,,,,934.4493149000009,934.9519593000005,934.9519593000005,935.7017025000023,935.7017025000023,936.204334500002,936.204334500002,937.1123924000021,937.1123924000021,None,num_4,0.313713600000483,937.1123924000021,None,happy,1,Happy,937.4428618800004,None,None,937.4428618800004,None,,,,,,,,,,,,,,,,,,,,,,,,,,,,,,,,,,,,,,,,,,,,,,,,,,,,,9,001,female,31,450,500,2022_Aug_31_1531,Experiment,2021.1.4,359.58805592077596,
images\S8_M_S_02.png,images\S8_M_S_02_scrambled.png,8,sad,-20,male,2,,587,on,2,0.5,0.75,0.5,0.775,3,586,1,1,1,2,2,32,128,162,,,,,,0,134,134,134,,,,,,,,,,,,,,,,,,,,,,,,,,,,,,,,,,,,,,,,,,,,,,,,,,,,,,,,,937.4928244000002,937.9954868000023,937.9954868000023,938.7508087999995,938.7508087999995,939.2561986000001,939.2561986000001,940.0309336000028,940.0309336000028,None,num_6,0.41907480000008945,940.0309336000028,None,sad,1,Sad,940.4669434999996,None,None,940.4669434999996,None,,,,,,,,,,,,,,,,,,,,,,,,,,,,,,,,,,,,,,,,,,,,,,,,,,,,,9,001,female,31,450,500,2022_Aug_31_1531,Experiment,2021.1.4,359.58805592077596,
images\S2_M_S_01.png,images\S2_M_S_01_scrambled.png,2,sad,-10,male,3,,70,on,2,0.5,0.75,0.5,0.758,3,69,2,1,1,2,2,32,128,163,,,,,,0,135,135,135,,,,,,,,,,,,,,,,,,,,,,,,,,,,,,,,,,,,,,,,,,,,,,,,,,,,,,,,,940.5141212000017,941.0167408000016,941.0167408000016,941.7692891000006,941.7692891000006,942.2719486000024,942.2719486000024,943.0357044000011,943.0357044000011,None,num_6,0.3982583999968483,943.0357044000011,None,sad,1,Sad,943.449356000001,None,None,943.449356000001,None,,,,,,,,,,,,,,,,,,,,,,,,,,,,,,,,,,,,,,,,,,,,,,,,,,,,,9,001,female,31,450,500,2022_Aug_31_1531,Experiment,2021.1.4,359.58805592077596,
images\blank.jpg,images\blank.jpg,none,none,none,none,0,,610,on,2,0.5,0.75,0.5,0.752,0,609,3,1,1,3,3,48,192,240,,,,,,0,136,136,136,,,,,,,,,,,,,,,,,,,,,,,,,,,,,,,,,,,,,,,,,,,,,,,,,,,,,,,,,943.5328679000013,944.0354007999995,944.0354007999995,944.7907163000018,944.7907163000018,945.2960738000002,945.2960738000002,946.0485324000001,946.0485324000001,946.0485324000001,None,,946.0485324000001,None,miss,1,,949.0504465400022,None,None,949.0504465400022,None,,,,,,,,,,,,,,,,,,,,,,,,,,,,,,,,,,,,,,,,,,,,,,,,,,,,,9,001,female,31,450,500,2022_Aug_31_1531,Experiment,2021.1.4,359.58805592077596,
images\S1_F_H_01.png,images\S1_F_H_01_scrambled.png,1,happy,10,female,4,,421,on,2,0.5,0.75,0.5,0.85,3,420,4,1,1,2,2,32,128,164,,,,,,0,137,137,137,,,,,,,,,,,,,,,,,,,,,,,,,,,,,,,,,,,,,,,,,,,,,,,,,,,,,,,,,949.1677001999997,949.6724482000027,949.6724482000027,950.4221964000026,950.4221964000026,950.9248707000006,950.9248707000006,951.7773798000017,951.7773798000017,None,num_4,0.3607369999990624,951.7773798000017,949.1677001999997,happy,1,Happy,952.152235380002,None,None,952.152235380002,None,,,,,,,,,,,,,,,,,,,,,,,,,,,,,,,,,,,,,,,,,,,,,,,,,,,,,9,001,female,31,450,500,2022_Aug_31_1531,Experiment,2021.1.4,359.58805592077596,
images\S1_F_S_02.png,images\S1_F_S_02_scrambled.png,1,sad,-20,female,2,,65,on,2,0.5,0.75,0.5,0.922,3,64,5,2,1,2,2,32,128,162,,,,,,0,138,138,138,,,,,,,,,,,,,,,,,,,,,,,,,,,,,,,,,,,,,,,,,,,,,,,,,,,,,,,,,952.2022877000018,952.707617,952.707617,953.4573765000023,953.4573765000023,953.9628057000009,953.9628057000009,954.8875399999997,954.8875399999997,None,num_4,0.546493100002408,954.8875399999997,None,happy,1,Sad,955.4456650400002,None,None,955.4456650400002,None,,,,,,,,,,,,,,,,,,,,,,,,,,,,,,,,,,,,,,,,,,,,,,,,,,,,,9,001,female,31,450,500,2022_Aug_31_1531,Experiment,2021.1.4,359.58805592077596,
